ImageFile,targ_side,correctAnswer,colour,distNo,targetType,trials_2.thisRepN,trials_2.thisTrialN,trials_2.thisN,trials_2.thisIndex,trials.thisRepN,trials.thisTrialN,trials.thisN,trials.thisIndex,text_6.started,text_6.stopped,buttonBox.keys,buttonBox.rt,buttonBox.started,buttonBox.stopped,text_7.started,text_7.stopped,buttonBox_3.keys,buttonBox_3.rt,buttonBox_3.started,buttonBox_3.stopped,text_8.started,text_8.stopped,buttonBox_4.keys,buttonBox_4.rt,buttonBox_4.started,buttonBox_4.stopped,text_9.started,text_9.stopped,buttonBox_5.keys,buttonBox_5.rt,buttonBox_5.started,buttonBox_5.stopped,text_2.started,text_2.stopped,buttonBox_6.keys,buttonBox_6.rt,buttonBox_6.started,buttonBox_6.stopped,text_5.started,text_5.stopped,buttonBox_7.keys,buttonBox_7.rt,image_2.started,image_2.stopped,image_3.started,image_3.stopped,buttonBox_8.keys,buttonBox_8.rt,buttonBox_8.started,buttonBox_8.stopped,polygon.started,polygon.stopped,buttonBox_9.keys,buttonBox_9.rt,buttonBox_9.started,buttonBox_9.stopped,image.started,image.stopped,buttonBox_10.keys,buttonBox_10.corr,buttonBox_10.rt,buttonBox_10.started,buttonBox_10.stopped,text_4.started,text_4.stopped,text.started,text.stopped,buttonBox_11.keys,buttonBox_11.rt,buttonBox_11.started,buttonBox_11.stopped,targetTypeInstruction.started,targetTypeInstruction.stopped,buttonBox_2.keys,buttonBox_2.rt,buttonBox_2.started,buttonBox_2.stopped,dispStimuli.started,dispStimuli.stopped,buttonBox_12.keys,buttonBox_12.corr,buttonBox_12.rt,buttonBox_12.started,buttonBox_12.stopped,breakMessage.started,breakMessage.stopped,buttonBox_13.keys,buttonBox_13.started,buttonBox_13.stopped,buttonBox_13.rt,participant,session,date,expName,psychopyVersion,frameRate,
,,,,,,,,,,,,,,9.274383179988945,None,2,51.60131556598935,9.274383179988945,None,,,,,,,,,,,,,,,,,,,,,,,,,,,,,,,,,,,,,,,,,,,,,,,,,,,,,,,,,,,,,,,,,,,,,,,,,,,,,06,001,2023_Jan_18_1349,searchDisc5,2021.2.3,59.93946796825601,
,,,,,,,,,,,,,,,,,,,,60.87367846199777,None,2,28.466935844015097,60.87367846199777,None,,,,,,,,,,,,,,,,,,,,,,,,,,,,,,,,,,,,,,,,,,,,,,,,,,,,,,,,,,,,,,,,,,,,,,,06,001,2023_Jan_18_1349,searchDisc5,2021.2.3,59.93946796825601,
,,,,,,,,,,,,,,,,,,,,,,,,,,89.34271895501297,None,2,10.915266830998007,89.34271895501297,None,,,,,,,,,,,,,,,,,,,,,,,,,,,,,,,,,,,,,,,,,,,,,,,,,,,,,,,,,,,,,,,,,06,001,2023_Jan_18_1349,searchDisc5,2021.2.3,59.93946796825601,
,,,,,,,,,,,,,,,,,,,,,,,,,,,,,,,,100.26019807800185,None,2,6.697759220987791,100.26019807800185,None,,,,,,,,,,,,,,,,,,,,,,,,,,,,,,,,,,,,,,,,,,,,,,,,,,,,,,,,,,,06,001,2023_Jan_18_1349,searchDisc5,2021.2.3,59.93946796825601,
,,,,,,,,,,,,,,,,,,,,,,,,,,,,,,,,,,,,,,106.96028682301403,None,2,6.298099286010256,107.94346204999601,None,,,,,,,,,,,,,,,,,,,,,,,,,,,,,,,,,,,,,,,,,,,,,,,,,,,,,06,001,2023_Jan_18_1349,searchDisc5,2021.2.3,59.93946796825601,
,,,,,,,,,,,,,,,,,,,,,,,,,,,,,,,,,,,,,,,,,,,,114.24169933999656,None,2,9.298198948992649,,,,,,,,,,,,,,,,,,,,,,,,,,,,,,,,,,,,,,,,,,,,,,,,,06,001,2023_Jan_18_1349,searchDisc5,2021.2.3,59.93946796825601,
,,,,,,,,,,,,,,,,,,,,,,,,,,,,,,,,,,,,,,,,,,,,,,,,126.54238442899077,None,126.54238442899077,None,2,2.314415998000186,126.54238442899077,None,,,,,,,,,,,,,,,,,,,,,,,,,,,,,,,,,,,,,,,,,06,001,2023_Jan_18_1349,searchDisc5,2021.2.3,59.93946796825601,
Practice arrays/exp1a_trial_10_colour3_distractors1_r.png,r,3,,,,0,0,0,4,,,,,,,,,,,,,,,,,,,,,,,,,,,,,,,,,,,,,,,,,,,,,,,128.89404781899066,None,2,10.304282344994135,128.89404781899066,None,139.24251665300108,None,3,1,1.2390142990043387,139.24251665300108,None,140.47523012998863,None,,,,,,,,,,,,,,,,,,,,,,,,,,06,001,2023_Jan_18_1349,searchDisc5,2021.2.3,59.93946796825601,
Practice arrays/exp1a_trial_16_colour1_distractors4_l.png,l,1,,,,0,1,1,13,,,,,,,,,,,,,,,,,,,,,,,,,,,,,,,,,,,,,,,,,,,,,,,142.47743240301497,None,2,3.5823184170003515,142.47743240301497,None,146.10928797599627,None,1,1,2.6335342160018627,146.10928797599627,None,148.742882652994,None,,,,,,,,,,,,,,,,,,,,,,,,,,06,001,2023_Jan_18_1349,searchDisc5,2021.2.3,59.93946796825601,
Practice arrays/exp1a_trial_18_colour1_distractors19_l.png,l,1,,,,0,2,2,8,,,,,,,,,,,,,,,,,,,,,,,,,,,,,,,,,,,,,,,,,,,,,,,150.74481518400717,None,2,0.799795991013525,150.74481518400717,None,151.59507581201615,None,1,1,1.4494104479963426,151.59507581201615,None,153.04287986899726,None,,,,,,,,,,,,,,,,,,,,,,,,,,06,001,2023_Jan_18_1349,searchDisc5,2021.2.3,59.93946796825601,
Practice arrays/exp1a_trial_1_colour1_distractors4_r.png,r,3,,,,0,3,3,1,,,,,,,,,,,,,,,,,,,,,,,,,,,,,,,,,,,,,,,,,,,,,,,155.04513645599945,None,2,0.6808685869909823,155.04513645599945,None,155.7786319630104,None,3,1,0.9856564179935958,155.7786319630104,None,156.75961005801219,None,,,,,,,,,,,,,,,,,,,,,,,,,,06,001,2023_Jan_18_1349,searchDisc5,2021.2.3,59.93946796825601,
Practice arrays/exp1a_trial_17_colour1_distractors9_l.png,l,1,,,,0,4,4,7,,,,,,,,,,,,,,,,,,,,,,,,,,,,,,,,,,,,,,,,,,,,,,,158.7615355369926,None,2,0.3971093759755604,158.7615355369926,None,159.21153811799013,None,1,1,0.9700720020045992,159.21153811799013,None,160.17632093801512,None,,,,,,,,,,,,,,,,,,,,,,,,,,06,001,2023_Jan_18_1349,searchDisc5,2021.2.3,59.93946796825601,
Practice arrays/exp1a_trial_8_colour2_distractors19_r.png,r,3,,,,0,5,5,3,,,,,,,,,,,,,,,,,,,,,,,,,,,,,,,,,,,,,,,,,,,,,,,162.17863219301216,None,2,0.4139414470118936,162.17863219301216,None,162.6431669839949,None,3,1,0.7847796460264362,162.6431669839949,None,163.42664233600954,None,,,,,,,,,,,,,,,,,,,,,,,,,,06,001,2023_Jan_18_1349,searchDisc5,2021.2.3,59.93946796825601,
Practice arrays/exp1a_trial_27_colour3_distractors9_l.png,l,1,,,,0,6,6,12,,,,,,,,,,,,,,,,,,,,,,,,,,,,,,,,,,,,,,,,,,,,,,,165.42865511900163,None,2,1.9471386600052938,165.42865511900163,None,167.42686287499964,None,1,1,0.837138557981234,167.42686287499964,None,168.25983451301,None,,,,,,,,,,,,,,,,,,,,,,,,,,06,001,2023_Jan_18_1349,searchDisc5,2021.2.3,59.93946796825601,
Practice arrays/exp1a_trial_12_colour3_distractors9_r.png,r,3,,,,0,7,7,5,,,,,,,,,,,,,,,,,,,,,,,,,,,,,,,,,,,,,,,,,,,,,,,170.26192553099827,None,2,0.41346388301462866,170.26192553099827,None,170.72892929200316,None,3,1,0.9706539839971811,170.72892929200316,None,171.6934587309952,None,,,,,,,,,,,,,,,,,,,,,,,,,,06,001,2023_Jan_18_1349,searchDisc5,2021.2.3,59.93946796825601,
Practice arrays/exp1a_trial_23_colour2_distractors19_l.png,l,1,,,,0,8,8,10,,,,,,,,,,,,,,,,,,,,,,,,,,,,,,,,,,,,,,,,,,,,,,,173.69549585899222,None,2,0.39852344000246376,173.69549585899222,None,174.1451545500022,None,1,1,0.6651642649958376,174.1451545500022,None,174.80933686401113,None,,,,,,,,,,,,,,,,,,,,,,,,,,06,001,2023_Jan_18_1349,searchDisc5,2021.2.3,59.93946796825601,
Practice arrays/exp1a_trial_7_colour2_distractors9_r.png,r,3,,,,0,9,9,2,,,,,,,,,,,,,,,,,,,,,,,,,,,,,,,,,,,,,,,,,,,,,,,176.81192598000052,None,2,0.3139311659906525,176.81192598000052,None,177.17916429400793,None,3,1,0.6869097340095323,177.17916429400793,None,177.8603112930141,None,,,,,,,,,,,,,,,,,,,,,,,,,,06,001,2023_Jan_18_1349,searchDisc5,2021.2.3,59.93946796825601,
Practice arrays/exp1a_trial_31_colour0_distractors0_l.png,l,1,,,,0,10,10,15,,,,,,,,,,,,,,,,,,,,,,,,,,,,,,,,,,,,,,,,,,,,,,,179.86187527599395,None,2,0.41304019099334255,179.86187527599395,None,180.3273094969918,None,1,1,0.6240253350115381,180.3273094969918,None,180.94379820401082,None,,,,,,,,,,,,,,,,,,,,,,,,,,06,001,2023_Jan_18_1349,searchDisc5,2021.2.3,59.93946796825601,
Practice arrays/exp1a_trial_14_colour3_distractors31_r.png,r,3,,,,0,11,11,6,,,,,,,,,,,,,,,,,,,,,,,,,,,,,,,,,,,,,,,,,,,,,,,182.94544421401224,None,2,0.3491562390117906,182.94544421401224,None,183.34594496400678,None,3,1,0.8489627109956928,183.34594496400678,None,184.19379828500678,None,,,,,,,,,,,,,,,,,,,,,,,,,,06,001,2023_Jan_18_1349,searchDisc5,2021.2.3,59.93946796825601,
Practice arrays/exp1a_trial_0_colour1_distractors1_r.png,r,3,,,,0,12,12,0,,,,,,,,,,,,,,,,,,,,,,,,,,,,,,,,,,,,,,,,,,,,,,,186.19586971899844,None,2,0.28071067898417823,186.19586971899844,None,186.52759127001627,None,3,1,0.9403240790124983,186.52759127001627,None,187.46071563201258,None,,,,,,,,,,,,,,,,,,,,,,,,,,06,001,2023_Jan_18_1349,searchDisc5,2021.2.3,59.93946796825601,
Practice arrays/exp1a_trial_21_colour2_distractors4_l.png,l,1,,,,0,13,13,9,,,,,,,,,,,,,,,,,,,,,,,,,,,,,,,,,,,,,,,,,,,,,,,189.46220982901286,None,2,0.3137005169992335,189.46220982901286,None,189.82889624100062,None,1,1,0.7882428400043864,189.82889624100062,None,190.6105952860089,None,,,,,,,,,,,,,,,,,,,,,,,,,,06,001,2023_Jan_18_1349,searchDisc5,2021.2.3,59.93946796825601,
Practice arrays/exp1a_trial_30_colour0_distractors0_r.png,r,3,,,,0,14,14,14,,,,,,,,,,,,,,,,,,,,,,,,,,,,,,,,,,,,,,,,,,,,,,,192.61222189600812,None,2,0.34934989098110236,192.61222189600812,None,193.012988581002,None,3,1,0.603831400978379,193.012988581002,None,193.6107333250111,None,,,,,,,,,,,,,,,,,,,,,,,,,,06,001,2023_Jan_18_1349,searchDisc5,2021.2.3,59.93946796825601,
Practice arrays/exp1a_trial_25_colour3_distractors1_l.png,l,1,,,,0,15,15,11,,,,,,,,,,,,,,,,,,,,,,,,,,,,,,,,,,,,,,,,,,,,,,,195.61244730598992,None,2,0.7991819180024322,195.61244730598992,None,196.46056591399247,None,1,1,0.6699332529969979,196.46056591399247,None,197.1274707330158,None,,,,,,,,,,,,,,,,,,,,,,,,,,06,001,2023_Jan_18_1349,searchDisc5,2021.2.3,59.93946796825601,
,,,,,,,,,,,,,,,,,,,,,,,,,,,,,,,,,,,,,,,,,,,,,,,,,,,,,,,,,,,,,,,,,,,,,,,199.21284993499285,None,2,4.097991441987688,200.196142196015,None,,,,,,,,,,,,,,,,,,,,06,001,2023_Jan_18_1349,searchDisc5,2021.2.3,59.93946796825601,
images/exp2c_trial_6_colour2_distractors4_r.png,r,3,2,4,0,,,,,0,0,0,0,,,,,,,,,,,,,,,,,,,,,,,,,,,,,,,,,,,,,,,,,,,210.67712774299434,None,2,0.9643200759892352,210.67712774299434,None,,,,,,,,,,,,,,,,204.88046586199198,None,2,3.81408482597908,206.86318322399165,None,211.70508070100914,None,3,1,0.7790381840022746,211.70508070100914,None,212.494895603793,None,None,None,None,,06,001,2023_Jan_18_1349,searchDisc5,2021.2.3,59.93946796825601,
images/exp2c_trial_69_colour2_distractors1_r.png,r,3,2,1,0,,,,,0,1,1,1,,,,,,,,,,,,,,,,,,,,,,,,,,,,,,,,,,,,,,,,,,,212.51098193699727,None,2,1.6218868760042824,212.51098193699727,None,,,,,,,,,,,,,,,,None,None,None,,None,None,214.17993092301185,None,3,1,0.7701115930103697,214.17993092301185,None,214.94486954489258,None,None,None,None,,06,001,2023_Jan_18_1349,searchDisc5,2021.2.3,59.93946796825601,
images/exp2c_trial_77_colour3_distractors19_r.png,r,3,3,19,0,,,,,0,2,2,2,,,,,,,,,,,,,,,,,,,,,,,,,,,,,,,,,,,,,,,,,,,214.96088276500814,None,2,1.103365943999961,214.96088276500814,None,,,,,,,,,,,,,,,,None,None,None,,None,None,216.1107256640098,None,3,1,2.4051548799907323,216.1107256640098,None,218.51141032490415,None,None,None,None,,06,001,2023_Jan_18_1349,searchDisc5,2021.2.3,59.93946796825601,
images/exp2a_trial_67_colour1_distractors19_r.png,r,3,1,19,0,,,,,0,3,3,3,,,,,,,,,,,,,,,,,,,,,,,,,,,,,,,,,,,,,,,,,,,218.52728798499447,None,2,0.9684430749912281,218.52728798499447,None,,,,,,,,,,,,,,,,None,None,None,,None,None,219.54493366798852,None,3,1,1.0368785570026375,219.54493366798852,None,220.57823818591424,None,None,None,None,,06,001,2023_Jan_18_1349,searchDisc5,2021.2.3,59.93946796825601,
images/exp1a_trial_297_colour2_distractors31_r.png,r,3,2,31,0,,,,,0,4,4,4,,,,,,,,,,,,,,,,,,,,,,,,,,,,,,,,,,,,,,,,,,,220.5947103429935,None,2,0.9548873829771765,220.5947103429935,None,,,,,,,,,,,,,,,,None,None,None,,None,None,221.59724862800795,None,3,1,0.8975254610122647,221.59724862800795,None,222.49482280890226,None,None,None,None,,06,001,2023_Jan_18_1349,searchDisc5,2021.2.3,59.93946796825601,
images/exp1a_trial_313_colour3_distractors1_l.png,l,1,3,1,0,,,,,0,5,5,5,,,,,,,,,,,,,,,,,,,,,,,,,,,,,,,,,,,,,,,,,,,222.51064657099778,None,2,0.8881798879883718,222.51064657099778,None,,,,,,,,,,,,,,,,None,None,None,,None,None,223.44483024001238,None,1,1,1.021868973999517,223.44483024001238,None,224.46161180791097,None,None,None,None,,06,001,2023_Jan_18_1349,searchDisc5,2021.2.3,59.93946796825601,
images/exp2b_trial_112_colour1_distractors4_l.png,l,1,1,4,0,,,,,0,6,6,6,,,,,,,,,,,,,,,,,,,,,,,,,,,,,,,,,,,,,,,,,,,224.4774840399914,None,2,0.9732366130047012,224.4774840399914,None,,,,,,,,,,,,,,,,None,None,None,,None,None,225.49633081399952,None,1,1,0.9028022999991663,225.49633081399952,None,226.39501361189178,None,None,None,None,,06,001,2023_Jan_18_1349,searchDisc5,2021.2.3,59.93946796825601,
images/exp2c_trial_42_colour3_distractors1_r.png,r,3,3,1,0,,,,,0,7,7,7,,,,,,,,,,,,,,,,,,,,,,,,,,,,,,,,,,,,,,,,,,,226.41151666198857,None,2,0.8713102890178561,226.41151666198857,None,,,,,,,,,,,,,,,,None,None,None,,None,None,227.32819961899077,None,3,1,0.8893657370063011,227.32819961899077,None,228.21175133088838,None,None,None,None,,06,001,2023_Jan_18_1349,searchDisc5,2021.2.3,59.93946796825601,
images/exp2b_trial_28_colour3_distractors19_l.png,l,1,3,19,0,,,,,0,8,8,8,,,,,,,,,,,,,,,,,,,,,,,,,,,,,,,,,,,,,,,,,,,228.22833834399353,None,2,0.8862848980061244,228.22833834399353,None,,,,,,,,,,,,,,,,None,None,None,,None,None,229.16128012299305,None,1,1,0.8206236860132776,229.16128012299305,None,229.97866989190226,None,None,None,None,,06,001,2023_Jan_18_1349,searchDisc5,2021.2.3,59.93946796825601,
images/exp1a_trial_302_colour3_distractors31_r.png,r,3,3,31,0,,,,,0,9,9,9,,,,,,,,,,,,,,,,,,,,,,,,,,,,,,,,,,,,,,,,,,,229.99493678400177,None,2,0.7208394109911751,229.99493678400177,None,,,,,,,,,,,,,,,,None,None,None,,None,None,230.76196344499476,None,3,1,0.7501297740091104,230.76196344499476,None,231.51207785289154,None,None,None,None,,06,001,2023_Jan_18_1349,searchDisc5,2021.2.3,59.93946796825601,
images/exp1a_trial_188_colour3_distractors19_l.png,l,1,3,19,0,,,,,0,10,10,10,,,,,,,,,,,,,,,,,,,,,,,,,,,,,,,,,,,,,,,,,,,231.5281975310063,None,2,0.6069844579906203,231.5281975310063,None,,,,,,,,,,,,,,,,None,None,None,,None,None,232.17998611400253,None,1,1,0.6321810520021245,232.17998611400253,None,232.81205091990415,None,None,None,None,,06,001,2023_Jan_18_1349,searchDisc5,2021.2.3,59.93946796825601,
images/exp2b_trial_296_colour2_distractors19_r.png,r,3,2,19,0,,,,,0,11,11,11,,,,,,,,,,,,,,,,,,,,,,,,,,,,,,,,,,,,,,,,,,,232.82821884800796,None,2,0.5543951769941486,232.82821884800796,None,,,,,,,,,,,,,,,,None,None,None,,None,None,233.42874527300592,None,3,1,0.734749355004169,233.42874527300592,None,234.16192128391123,None,None,None,None,,06,001,2023_Jan_18_1349,searchDisc5,2021.2.3,59.93946796825601,
images/exp2b_trial_130_colour1_distractors9_r.png,r,3,1,9,0,,,,,0,12,12,12,,,,,,,,,,,,,,,,,,,,,,,,,,,,,,,,,,,,,,,,,,,234.17786713101668,None,2,0.5378230820060708,234.17786713101668,None,,,,,,,,,,,,,,,,None,None,None,,None,None,234.7643464450084,None,3,1,0.8027737560041714,234.7643464450084,None,235.5619098518917,None,None,None,None,,06,001,2023_Jan_18_1349,searchDisc5,2021.2.3,59.93946796825601,
images/exp2c_trial_127_colour0_distractors0_l.png,l,1,0,0,0,,,,,0,13,13,13,,,,,,,,,,,,,,,,,,,,,,,,,,,,,,,,,,,,,,,,,,,235.57796046198928,None,2,0.45660545301507227,235.57796046198928,None,,,,,,,,,,,,,,,,None,None,None,,None,None,236.08057468300103,None,1,1,0.6541588919935748,236.08057468300103,None,236.7284639719117,None,None,None,None,,06,001,2023_Jan_18_1349,searchDisc5,2021.2.3,59.93946796825601,
images/exp2c_trial_279_colour2_distractors19_l.png,l,1,2,19,0,,,,,0,14,14,14,,,,,,,,,,,,,,,,,,,,,,,,,,,,,,,,,,,,,,,,,,,236.74483927400433,None,2,0.3713744959968608,236.74483927400433,None,,,,,,,,,,,,,,,,None,None,None,,None,None,237.16371135399095,None,1,1,0.6003916909976397,237.16371135399095,None,237.76191320091021,None,None,None,None,,06,001,2023_Jan_18_1349,searchDisc5,2021.2.3,59.93946796825601,
images/exp2a_trial_216_colour2_distractors31_l.png,l,1,2,31,0,,,,,0,15,15,15,,,,,,,,,,,,,,,,,,,,,,,,,,,,,,,,,,,,,,,,,,,237.78045051399386,None,2,0.35472784901503474,237.78045051399386,None,,,,,,,,,,,,,,,,None,None,None,,None,None,238.17874262001715,None,1,1,1.3441718870017212,238.17874262001715,None,239.52869555890794,None,None,None,None,,06,001,2023_Jan_18_1349,searchDisc5,2021.2.3,59.93946796825601,
images/exp2c_trial_314_colour3_distractors4_l.png,l,1,3,4,0,,,,,0,16,16,16,,,,,,,,,,,,,,,,,,,,,,,,,,,,,,,,,,,,,,,,,,,239.5452296959993,None,2,0.4557038329949137,239.5452296959993,None,,,,,,,,,,,,,,,,None,None,None,,None,None,240.04723715700675,None,1,1,0.6058266400068533,240.04723715700675,None,240.64563217789402,None,None,None,None,,06,001,2023_Jan_18_1349,searchDisc5,2021.2.3,59.93946796825601,
images/exp2b_trial_215_colour2_distractors19_l.png,l,1,2,19,0,,,,,0,17,17,17,,,,,,,,,,,,,,,,,,,,,,,,,,,,,,,,,,,,,,,,,,,240.6639688060095,None,2,0.36952148700947873,240.6639688060095,None,,,,,,,,,,,,,,,,None,None,None,,None,None,241.0806466040085,None,1,1,0.5530876110133249,241.0806466040085,None,241.62873812489562,None,None,None,None,,06,001,2023_Jan_18_1349,searchDisc5,2021.2.3,59.93946796825601,
images/exp2c_trial_293_colour2_distractors1_r.png,r,3,2,1,0,,,,,0,18,18,18,,,,,,,,,,,,,,,,,,,,,,,,,,,,,,,,,,,,,,,,,,,241.6451852899918,None,2,0.3708315810072236,241.6451852899918,None,,,,,,,,,,,,,,,,None,None,None,,None,None,242.06176109300577,None,3,1,0.5565327660006005,242.06176109300577,None,242.61231834189385,None,None,None,None,,06,001,2023_Jan_18_1349,searchDisc5,2021.2.3,59.93946796825601,
images/exp2c_trial_250_colour3_distractors4_l.png,l,1,3,4,0,,,,,0,19,19,19,,,,,,,,,,,,,,,,,,,,,,,,,,,,,,,,,,,,,,,,,,,242.62852102299803,None,2,0.3708072750014253,242.62852102299803,None,,,,,,,,,,,,,,,,None,None,None,,None,None,243.04719563000253,None,1,1,0.6543261129991151,243.04719563000253,None,243.69549782991527,None,None,None,None,,06,001,2023_Jan_18_1349,searchDisc5,2021.2.3,59.93946796825601,
images/exp2c_trial_62_colour0_distractors0_r.png,r,3,0,0,0,,,,,0,20,20,20,,,,,,,,,,,,,,,,,,,,,,,,,,,,,,,,,,,,,,,,,,,243.71352414300782,None,2,0.38999906499520876,243.71352414300782,None,,,,,,,,,,,,,,,,None,None,None,,None,None,244.14762306198827,None,3,1,0.687322589015821,244.14762306198827,None,244.8290020738903,None,None,None,None,,06,001,2023_Jan_18_1349,searchDisc5,2021.2.3,59.93946796825601,
images/exp2a_trial_156_colour3_distractors19_l.png,l,1,3,19,0,,,,,0,21,21,21,,,,,,,,,,,,,,,,,,,,,,,,,,,,,,,,,,,,,,,,,,,244.84729620700818,None,2,0.45448634700733237,244.84729620700818,None,,,,,,,,,,,,,,,,None,None,None,,None,None,245.3454699970025,None,1,1,0.5374409930082038,245.3454699970025,None,245.8790894429083,None,None,None,None,,06,001,2023_Jan_18_1349,searchDisc5,2021.2.3,59.93946796825601,
images/exp2c_trial_204_colour3_distractors9_r.png,r,3,3,9,0,,,,,0,22,22,22,,,,,,,,,,,,,,,,,,,,,,,,,,,,,,,,,,,,,,,,,,,245.895580048993,None,2,0.3875881110143382,245.895580048993,None,,,,,,,,,,,,,,,,None,None,None,,None,None,246.32865472801495,None,3,1,0.8548942539782729,246.32865472801495,None,247.17912546889858,None,None,None,None,,06,001,2023_Jan_18_1349,searchDisc5,2021.2.3,59.93946796825601,
images/exp1a_trial_214_colour2_distractors9_l.png,l,1,2,9,0,,,,,0,23,23,23,,,,,,,,,,,,,,,,,,,,,,,,,,,,,,,,,,,,,,,,,,,247.1952896110015,None,2,0.4060876280127559,247.1952896110015,None,,,,,,,,,,,,,,,,None,None,None,,None,None,247.6472294369887,None,1,1,0.6845555290055927,247.6472294369887,None,248.32862797590207,None,None,None,None,,06,001,2023_Jan_18_1349,searchDisc5,2021.2.3,59.93946796825601,
images/exp1a_trial_6_colour2_distractors4_r.png,r,3,2,4,0,,,,,0,24,24,24,,,,,,,,,,,,,,,,,,,,,,,,,,,,,,,,,,,,,,,,,,,248.34743802901357,None,2,0.38984112700563855,248.34743802901357,None,,,,,,,,,,,,,,,,None,None,None,,None,None,248.7806912130036,None,3,1,0.6701001070032362,248.7806912130036,None,249.44585068490125,None,None,None,None,,06,001,2023_Jan_18_1349,searchDisc5,2021.2.3,59.93946796825601,
images/exp2c_trial_92_colour3_distractors19_l.png,l,1,3,19,0,,,,,0,25,25,25,,,,,,,,,,,,,,,,,,,,,,,,,,,,,,,,,,,,,,,,,,,249.4614759729884,None,2,0.37021821801317856,249.4614759729884,None,,,,,,,,,,,,,,,,None,None,None,,None,None,249.88110982300714,None,1,1,1.057234640000388,249.88110982300714,None,250.92922136791168,None,None,None,None,,06,001,2023_Jan_18_1349,searchDisc5,2021.2.3,59.93946796825601,
images/exp2c_trial_267_colour3_distractors4_r.png,r,3,3,4,0,,,,,0,26,26,26,,,,,,,,,,,,,,,,,,,,,,,,,,,,,,,,,,,,,,,,,,,250.9449710030167,None,2,0.42048861901275814,250.9449710030167,None,,,,,,,,,,,,,,,,None,None,None,,None,None,251.4143402420159,None,3,1,0.9526501240034122,251.4143402420159,None,252.3625128838874,None,None,None,None,,06,001,2023_Jan_18_1349,searchDisc5,2021.2.3,59.93946796825601,
images/exp2c_trial_116_colour2_distractors1_l.png,l,1,2,1,0,,,,,0,27,27,27,,,,,,,,,,,,,,,,,,,,,,,,,,,,,,,,,,,,,,,,,,,252.3786440010008,None,2,0.37188208001316525,252.3786440010008,None,,,,,,,,,,,,,,,,None,None,None,,None,None,252.7958864569955,None,1,1,0.6384871620102786,252.7958864569955,None,253.42891081190902,None,None,None,None,,06,001,2023_Jan_18_1349,searchDisc5,2021.2.3,59.93946796825601,
images/exp2c_trial_159_colour0_distractors0_l.png,l,1,0,0,0,,,,,0,28,28,28,,,,,,,,,,,,,,,,,,,,,,,,,,,,,,,,,,,,,,,,,,,253.44556154400925,None,2,0.3552969860029407,253.44556154400925,None,,,,,,,,,,,,,,,,None,None,None,,None,None,253.8459059559973,None,1,1,0.5059811359969899,253.8459059559973,None,254.34575355289854,None,None,None,None,,06,001,2023_Jan_18_1349,searchDisc5,2021.2.3,59.93946796825601,
images/exp2b_trial_269_colour3_distractors19_r.png,r,3,3,19,0,,,,,0,29,29,29,,,,,,,,,,,,,,,,,,,,,,,,,,,,,,,,,,,,,,,,,,,254.36211601400282,None,2,0.37272973102517426,254.36211601400282,None,,,,,,,,,,,,,,,,None,None,None,,None,None,254.77911092099384,None,3,1,0.65192785099498,254.77911092099384,None,255.42926457088907,None,None,None,None,,06,001,2023_Jan_18_1349,searchDisc5,2021.2.3,59.93946796825601,
images/exp1a_trial_195_colour1_distractors19_r.png,r,3,1,19,0,,,,,0,30,30,30,,,,,,,,,,,,,,,,,,,,,,,,,,,,,,,,,,,,,,,,,,,255.44550167999114,None,2,0.42292316802195273,255.44550167999114,None,,,,,,,,,,,,,,,,None,None,None,,None,None,255.91458546899958,None,3,1,1.6178158030088525,255.91458546899958,None,257.53135796090356,None,None,None,None,,06,001,2023_Jan_18_1349,searchDisc5,2021.2.3,59.93946796825601,
images/exp1a_trial_29_colour3_distractors31_l.png,l,1,3,31,0,,,,,0,31,31,31,,,,,,,,,,,,,,,,,,,,,,,,,,,,,,,,,,,,,,,,,,,257.5475532319979,None,2,0.4044596980093047,257.5475532319979,None,,,,,,,,,,,,,,,,None,None,None,,None,None,257.9959275829897,None,1,1,0.6979194559971802,257.9959275829897,None,258.69609495489277,None,None,None,None,,06,001,2023_Jan_18_1349,searchDisc5,2021.2.3,59.93946796825601,
images/exp2c_trial_222_colour0_distractors0_r.png,r,3,0,0,0,,,,,0,32,32,32,,,,,,,,,,,,,,,,,,,,,,,,,,,,,,,,,,,,,,,,,,,258.7143667060009,None,2,0.3710437660047319,258.7143667060009,None,,,,,,,,,,,,,,,,None,None,None,,None,None,259.1312384850171,None,3,1,0.7225193020130973,259.1312384850171,None,259.84546200390906,None,None,None,None,,06,001,2023_Jan_18_1349,searchDisc5,2021.2.3,59.93946796825601,
images/exp2a_trial_314_colour3_distractors4_l.png,l,1,3,4,0,,,,,0,33,33,33,,,,,,,,,,,,,,,,,,,,,,,,,,,,,,,,,,,,,,,,,,,259.8626177709957,None,2,0.37159716500900686,259.8626177709957,None,,,,,,,,,,,,,,,,None,None,None,,None,None,260.2788102090126,None,1,1,0.7719460320076905,260.2788102090126,None,261.04572272889783,None,None,None,None,,06,001,2023_Jan_18_1349,searchDisc5,2021.2.3,59.93946796825601,
images/exp2c_trial_14_colour3_distractors31_r.png,r,3,3,31,0,,,,,0,34,34,34,,,,,,,,,,,,,,,,,,,,,,,,,,,,,,,,,,,,,,,,,,,261.06246059801197,None,2,0.3564692880026996,261.06246059801197,None,,,,,,,,,,,,,,,,None,None,None,,None,None,261.4628391849983,None,3,1,1.0338785120111424,261.4628391849983,None,262.4953793069115,None,None,None,None,,06,001,2023_Jan_18_1349,searchDisc5,2021.2.3,59.93946796825601,
images/exp1a_trial_68_colour1_distractors31_r.png,r,3,1,31,0,,,,,0,35,35,35,,,,,,,,,,,,,,,,,,,,,,,,,,,,,,,,,,,,,,,,,,,262.5125118159922,None,2,0.37186499300878495,262.5125118159922,None,,,,,,,,,,,,,,,,None,None,None,,None,None,262.9286573860154,None,3,1,0.9333690560015384,262.9286573860154,None,263.8627471409098,None,None,None,None,,06,001,2023_Jan_18_1349,searchDisc5,2021.2.3,59.93946796825601,
images/exp2c_trial_252_colour3_distractors19_l.png,l,1,3,19,0,,,,,0,36,36,36,,,,,,,,,,,,,,,,,,,,,,,,,,,,,,,,,,,,,,,,,,,263.8792326459952,None,2,0.36929548598709516,263.8792326459952,None,,,,,,,,,,,,,,,,None,None,None,,None,None,264.29572220300906,None,1,1,1.1369304329855368,264.29572220300906,None,265.4294368618983,None,None,None,None,,06,001,2023_Jan_18_1349,searchDisc5,2021.2.3,59.93946796825601,
images/exp2c_trial_299_colour3_distractors4_r.png,r,3,3,4,0,,,,,0,37,37,37,,,,,,,,,,,,,,,,,,,,,,,,,,,,,,,,,,,,,,,,,,,265.44583576801233,None,2,0.4036000139894895,265.44583576801233,None,,,,,,,,,,,,,,,,None,None,None,,None,None,265.89772578701377,None,3,1,0.6227520090178587,265.89772578701377,None,266.5127704989107,None,None,None,None,,06,001,2023_Jan_18_1349,searchDisc5,2021.2.3,59.93946796825601,
images/exp2a_trial_41_colour2_distractors31_r.png,r,3,2,31,0,,,,,0,38,38,38,,,,,,,,,,,,,,,,,,,,,,,,,,,,,,,,,,,,,,,,,,,266.5309341500106,None,2,0.32043919499847107,266.5309341500106,None,,,,,,,,,,,,,,,,None,None,None,,None,None,266.89629772500484,None,3,1,0.7620446890068706,266.89629772500484,None,267.66279868791463,None,None,None,None,,06,001,2023_Jan_18_1349,searchDisc5,2021.2.3,59.93946796825601,
images/exp2a_trial_235_colour3_distractors4_r.png,r,3,3,4,0,,,,,0,39,39,39,,,,,,,,,,,,,,,,,,,,,,,,,,,,,,,,,,,,,,,,,,,267.67928415100323,None,2,0.3713449449860491,267.67928415100323,None,,,,,,,,,,,,,,,,None,None,None,,None,None,268.09611389099155,None,3,1,0.6052500529913232,268.09611389099155,None,268.69617822290166,None,None,None,None,,06,001,2023_Jan_18_1349,searchDisc5,2021.2.3,59.93946796825601,
images/exp2a_trial_109_colour3_distractors19_r.png,r,3,3,19,0,,,,,0,40,40,40,,,,,,,,,,,,,,,,,,,,,,,,,,,,,,,,,,,,,,,,,,,268.71227186601027,None,2,0.34004721499513835,268.71227186601027,None,,,,,,,,,,,,,,,,None,None,None,,None,None,269.0981434920104,None,3,1,0.6022749329858925,269.0981434920104,None,269.69653073690716,None,None,None,None,,06,001,2023_Jan_18_1349,searchDisc5,2021.2.3,59.93946796825601,
images/exp1a_trial_48_colour1_distractors4_l.png,l,1,1,4,0,,,,,0,41,41,41,,,,,,,,,,,,,,,,,,,,,,,,,,,,,,,,,,,,,,,,,,,269.7145313080109,None,2,0.35424753700499423,269.7145313080109,None,,,,,,,,,,,,,,,,None,None,None,,None,None,270.1129036050115,None,1,1,0.7883205430116504,270.1129036050115,None,270.89628158790293,None,None,None,None,,06,001,2023_Jan_18_1349,searchDisc5,2021.2.3,59.93946796825601,
images/exp2c_trial_288_colour1_distractors1_r.png,r,3,1,1,0,,,,,0,42,42,42,,,,,,,,,,,,,,,,,,,,,,,,,,,,,,,,,,,,,,,,,,,270.912782992993,None,2,0.33773601401480846,270.912782992993,None,,,,,,,,,,,,,,,,None,None,None,,None,None,271.2965125190094,None,3,1,0.6559544620104134,271.2965125190094,None,271.94629009590136,None,None,None,None,,06,001,2023_Jan_18_1349,searchDisc5,2021.2.3,59.93946796825601,
images/exp2b_trial_163_colour1_distractors19_r.png,r,3,1,19,0,,,,,0,43,43,43,,,,,,,,,,,,,,,,,,,,,,,,,,,,,,,,,,,,,,,,,,,271.9648058619932,None,2,0.32078787600039504,271.9648058619932,None,,,,,,,,,,,,,,,,None,None,None,,None,None,272.3288592380122,None,3,1,0.9199348809779622,272.3288592380122,None,273.2460300948995,None,None,None,None,,06,001,2023_Jan_18_1349,searchDisc5,2021.2.3,59.93946796825601,
images/exp2b_trial_183_colour2_distractors19_l.png,l,1,2,19,0,,,,,0,44,44,44,,,,,,,,,,,,,,,,,,,,,,,,,,,,,,,,,,,,,,,,,,,273.26418328800355,None,2,0.35693884300417267,273.26418328800355,None,,,,,,,,,,,,,,,,None,None,None,,None,None,273.66494201798923,None,1,1,0.5679537809919566,273.66494201798923,None,274.22980664988864,None,None,None,None,,06,001,2023_Jan_18_1349,searchDisc5,2021.2.3,59.93946796825601,
images/exp1a_trial_167_colour2_distractors9_r.png,r,3,2,9,0,,,,,0,45,45,45,,,,,,,,,,,,,,,,,,,,,,,,,,,,,,,,,,,,,,,,,,,274.2461030650011,None,2,0.30430516600608826,274.2461030650011,None,,,,,,,,,,,,,,,,None,None,None,,None,None,274.596278069017,None,3,1,2.070298745005857,274.596278069017,None,276.6630685688986,None,None,None,None,,06,001,2023_Jan_18_1349,searchDisc5,2021.2.3,59.93946796825601,
images/exp2c_trial_275_colour1_distractors31_l.png,l,1,1,31,0,,,,,0,46,46,46,,,,,,,,,,,,,,,,,,,,,,,,,,,,,,,,,,,,,,,,,,,276.67956876699463,None,2,0.5065727329929359,276.67956876699463,None,,,,,,,,,,,,,,,,None,None,None,,None,None,277.231763090007,None,1,1,0.6337703830213286,277.231763090007,None,277.8632739418943,None,None,None,None,,06,001,2023_Jan_18_1349,searchDisc5,2021.2.3,59.93946796825601,
images/exp2b_trial_143_colour1_distractors1_l.png,l,1,1,1,0,,,,,0,47,47,47,,,,,,,,,,,,,,,,,,,,,,,,,,,,,,,,,,,,,,,,,,,277.8797562420077,None,2,0.32080554199637845,277.8797562420077,None,,,,,,,,,,,,,,,,None,None,None,,None,None,278.2465074880165,None,1,1,0.522345053992467,278.2465074880165,None,278.7626329319144,None,None,None,None,,06,001,2023_Jan_18_1349,searchDisc5,2021.2.3,59.93946796825601,
images/exp1a_trial_172_colour3_distractors9_r.png,r,3,3,9,0,,,,,0,48,48,48,,,,,,,,,,,,,,,,,,,,,,,,,,,,,,,,,,,,,,,,,,,278.7796982540167,None,2,0.3904058260086458,278.7796982540167,None,,,,,,,,,,,,,,,,None,None,None,,None,None,279.2146510599996,None,3,1,0.5685440730012488,279.2146510599996,None,279.77988459590125,None,None,None,None,,06,001,2023_Jan_18_1349,searchDisc5,2021.2.3,59.93946796825601,
images/exp2a_trial_229_colour2_distractors1_r.png,r,3,2,1,0,,,,,0,49,49,49,,,,,,,,,,,,,,,,,,,,,,,,,,,,,,,,,,,,,,,,,,,279.79642665199935,None,2,0.3541712840087712,279.79642665199935,None,,,,,,,,,,,,,,,,None,None,None,,None,None,280.19667524300166,None,3,1,0.7216778350120876,280.19667524300166,None,280.91336404789473,None,None,None,None,,06,001,2023_Jan_18_1349,searchDisc5,2021.2.3,59.93946796825601,
images/exp2b_trial_57_colour3_distractors1_l.png,l,1,3,1,0,,,,,0,50,50,50,,,,,,,,,,,,,,,,,,,,,,,,,,,,,,,,,,,,,,,,,,,280.9292137240118,None,2,0.32118243898730725,280.9292137240118,None,,,,,,,,,,,,,,,,None,None,None,,None,None,281.29656886699377,None,1,1,0.47249581798678264,281.29656886699377,None,281.7631600478897,None,None,None,None,,06,001,2023_Jan_18_1349,searchDisc5,2021.2.3,59.93946796825601,
images/exp1a_trial_90_colour3_distractors4_l.png,l,1,3,4,0,,,,,0,51,51,51,,,,,,,,,,,,,,,,,,,,,,,,,,,,,,,,,,,,,,,,,,,281.77939999100636,None,2,0.28794082801323384,281.77939999100636,None,,,,,,,,,,,,,,,,None,None,None,,None,None,282.11303380600293,None,1,1,0.7069864789955318,282.11303380600293,None,282.81318737788826,None,None,None,None,,06,001,2023_Jan_18_1349,searchDisc5,2021.2.3,59.93946796825601,
images/exp2a_trial_169_colour2_distractors31_r.png,r,3,2,31,0,,,,,0,52,52,52,,,,,,,,,,,,,,,,,,,,,,,,,,,,,,,,,,,,,,,,,,,282.82975911401445,None,2,0.3876187599962577,282.82975911401445,None,,,,,,,,,,,,,,,,None,None,None,,None,None,283.26904079999076,None,3,1,0.8109112239908427,283.26904079999076,None,284.0799225849158,None,None,None,None,,06,001,2023_Jan_18_1349,searchDisc5,2021.2.3,59.93946796825601,
images/exp1a_trial_119_colour2_distractors19_l.png,l,1,2,19,0,,,,,0,53,53,53,,,,,,,,,,,,,,,,,,,,,,,,,,,,,,,,,,,,,,,,,,,284.09594506700523,None,2,0.3378622670134064,284.09594506700523,None,,,,,,,,,,,,,,,,None,None,None,,None,None,284.47981468000216,None,1,1,0.7344992199796252,284.47981468000216,None,285.21323962190655,None,None,None,None,,06,001,2023_Jan_18_1349,searchDisc5,2021.2.3,59.93946796825601,
images/exp1a_trial_39_colour2_distractors9_r.png,r,3,2,9,0,,,,,0,54,54,54,,,,,,,,,,,,,,,,,,,,,,,,,,,,,,,,,,,,,,,,,,,285.2298025340133,None,2,0.3881893820071127,285.2298025340133,None,,,,,,,,,,,,,,,,None,None,None,,None,None,285.66506571299396,None,3,1,0.7199235830048565,285.66506571299396,None,286.37999122989714,None,None,None,None,,06,001,2023_Jan_18_1349,searchDisc5,2021.2.3,59.93946796825601,
images/exp2b_trial_263_colour2_distractors9_r.png,r,3,2,9,0,,,,,0,55,55,55,,,,,,,,,,,,,,,,,,,,,,,,,,,,,,,,,,,,,,,,,,,286.39597112999763,None,2,0.3378831860027276,286.39597112999763,None,,,,,,,,,,,,,,,,None,None,None,,None,None,286.7795858019963,None,3,1,0.672975534980651,286.7795858019963,None,287.4467355909117,None,None,None,None,,06,001,2023_Jan_18_1349,searchDisc5,2021.2.3,59.93946796825601,
images/exp2c_trial_251_colour3_distractors9_l.png,l,1,3,9,0,,,,,0,56,56,56,,,,,,,,,,,,,,,,,,,,,,,,,,,,,,,,,,,,,,,,,,,287.46265481298906,None,2,0.3194134999939706,287.46265481298906,None,,,,,,,,,,,,,,,,None,None,None,,None,None,287.83028959899093,None,1,1,0.5227515449805651,287.83028959899093,None,288.3469892288966,None,None,None,None,,06,001,2023_Jan_18_1349,searchDisc5,2021.2.3,59.93946796825601,
images/exp2b_trial_26_colour3_distractors4_l.png,l,1,3,4,0,,,,,0,57,57,57,,,,,,,,,,,,,,,,,,,,,,,,,,,,,,,,,,,,,,,,,,,288.3625881030166,None,2,0.33787477199803106,288.3625881030166,None,,,,,,,,,,,,,,,,None,None,None,,None,None,288.74613427498844,None,1,1,0.5714656529889908,288.74613427498844,None,289.31356167290943,None,None,None,None,,06,001,2023_Jan_18_1349,searchDisc5,2021.2.3,59.93946796825601,
images/exp2c_trial_56_colour2_distractors31_l.png,l,1,2,31,0,,,,,0,58,58,58,,,,,,,,,,,,,,,,,,,,,,,,,,,,,,,,,,,,,,,,,,,289.33207231899723,None,2,0.3208764720184263,289.33207231899723,None,,,,,,,,,,,,,,,,None,None,None,,None,None,289.6966668810055,None,1,1,0.6552944860013667,289.6966668810055,None,290.3489133699157,None,None,None,None,,06,001,2023_Jan_18_1349,searchDisc5,2021.2.3,59.93946796825601,
images/exp2a_trial_125_colour3_distractors31_l.png,l,1,3,31,0,,,,,0,59,59,59,,,,,,,,,,,,,,,,,,,,,,,,,,,,,,,,,,,,,,,,,,,290.36336495899013,None,2,0.3545931219996419,290.36336495899013,None,,,,,,,,,,,,,,,,None,None,None,,None,None,290.76320016599493,None,1,1,0.5678824939823244,290.76320016599493,None,291.33053985789303,None,None,None,None,,06,001,2023_Jan_18_1349,searchDisc5,2021.2.3,59.93946796825601,
images/exp2c_trial_49_colour1_distractors9_l.png,l,1,1,9,0,,,,,0,60,60,60,,,,,,,,,,,,,,,,,,,,,,,,,,,,,,,,,,,,,,,,,,,291.3466338599974,None,2,0.30476797398296185,291.3466338599974,None,,,,,,,,,,,,,,,,None,None,None,,None,None,291.6967770259944,None,1,1,0.5865315209957771,291.6967770259944,None,292.27930750690285,None,None,None,None,,06,001,2023_Jan_18_1349,searchDisc5,2021.2.3,59.93946796825601,
images/exp2b_trial_262_colour2_distractors4_r.png,r,3,2,4,0,,,,,0,61,61,61,,,,,,,,,,,,,,,,,,,,,,,,,,,,,,,,,,,,,,,,,,,292.2989378850034,None,2,0.42186005201074295,292.2989378850034,None,,,,,,,,,,,,,,,,None,None,None,,None,None,292.7633332480036,None,3,1,0.5729224759852514,292.7633332480036,None,293.3303641559149,None,None,None,None,,06,001,2023_Jan_18_1349,searchDisc5,2021.2.3,59.93946796825601,
images/exp2b_trial_255_colour0_distractors0_l.png,l,1,0,0,0,,,,,0,62,62,62,,,,,,,,,,,,,,,,,,,,,,,,,,,,,,,,,,,,,,,,,,,293.3467823349929,None,2,0.32114260699017905,293.3467823349929,None,,,,,,,,,,,,,,,,None,None,None,,None,None,293.7132587899978,None,1,1,0.5894935109827202,293.7132587899978,None,294.29700457090513,None,None,None,None,,06,001,2023_Jan_18_1349,searchDisc5,2021.2.3,59.93946796825601,
images/exp2c_trial_35_colour1_distractors19_r.png,r,3,1,19,0,,,,,0,63,63,63,,,,,,,,,,,,,,,,,,,,,,,,,,,,,,,,,,,,,,,,,,,294.3131107639929,None,2,0.3712073050264735,294.3131107639929,None,,,,,,,,,,,,,,,,None,None,None,,None,None,294.73019936599303,None,3,1,0.5535938510147389,294.73019936599303,None,295.28027249690496,None,None,None,None,,06,001,2023_Jan_18_1349,searchDisc5,2021.2.3,59.93946796825601,
images/exp2b_trial_170_colour3_distractors1_r.png,r,3,3,1,0,,,,,0,64,64,64,,,,,,,,,,,,,,,,,,,,,,,,,,,,,,,,,,,,,,,,,,,295.2987061350141,None,2,0.3375463249976747,295.2987061350141,None,,,,,,,,,,,,,,,,None,None,None,,None,None,295.68024427400087,None,3,1,0.5225699330039788,295.68024427400087,None,296.19685337789707,None,None,None,None,,06,001,2023_Jan_18_1349,searchDisc5,2021.2.3,59.93946796825601,
images/exp1a_trial_224_colour1_distractors1_r.png,r,3,1,1,0,,,,,0,65,65,65,,,,,,,,,,,,,,,,,,,,,,,,,,,,,,,,,,,,,,,,,,,296.21341325200046,None,2,0.3378204699838534,296.21341325200046,None,,,,,,,,,,,,,,,,None,None,None,,None,None,296.59715068299556,None,3,1,0.9891280299925711,296.59715068299556,None,297.5803128529049,None,None,None,None,,06,001,2023_Jan_18_1349,searchDisc5,2021.2.3,59.93946796825601,
images/exp2c_trial_30_colour0_distractors0_r.png,r,3,0,0,0,,,,,0,66,66,66,,,,,,,,,,,,,,,,,,,,,,,,,,,,,,,,,,,,,,,,,,,297.5984812940005,None,2,0.3047000269871205,297.5984812940005,None,,,,,,,,,,,,,,,,None,None,None,,None,None,297.9469241310144,None,3,1,0.5365842269966379,297.9469241310144,None,298.4803823368973,None,None,None,None,,06,001,2023_Jan_18_1349,searchDisc5,2021.2.3,59.93946796825601,
images/exp2b_trial_111_colour1_distractors1_l.png,l,1,1,1,0,,,,,0,67,67,67,,,,,,,,,,,,,,,,,,,,,,,,,,,,,,,,,,,,,,,,,,,298.4964481579955,None,2,0.28795579602592625,298.4964481579955,None,,,,,,,,,,,,,,,,None,None,None,,None,None,298.8303577270126,None,1,1,0.7226117590034846,298.8303577270126,None,299.54698320688914,None,None,None,None,,06,001,2023_Jan_18_1349,searchDisc5,2021.2.3,59.93946796825601,
images/exp1a_trial_245_colour2_distractors4_l.png,l,1,2,4,0,,,,,0,68,68,68,,,,,,,,,,,,,,,,,,,,,,,,,,,,,,,,,,,,,,,,,,,299.56354926299537,None,2,0.2710114970104769,299.56354926299537,None,,,,,,,,,,,,,,,,None,None,None,,None,None,299.8801731530111,None,1,1,0.6385334740043618,299.8801731530111,None,300.5138498548884,None,None,None,None,,06,001,2023_Jan_18_1349,searchDisc5,2021.2.3,59.93946796825601,
images/exp1a_trial_44_colour3_distractors9_r.png,r,3,3,9,0,,,,,0,69,69,69,,,,,,,,,,,,,,,,,,,,,,,,,,,,,,,,,,,,,,,,,,,300.5297452020168,None,2,0.3204211660195142,300.5297452020168,None,,,,,,,,,,,,,,,,None,None,None,,None,None,300.8967517669953,None,3,1,0.5878272469853982,300.8967517669953,None,301.4806214909011,None,None,None,None,,06,001,2023_Jan_18_1349,searchDisc5,2021.2.3,59.93946796825601,
images/exp2b_trial_77_colour3_distractors19_r.png,r,3,3,19,0,,,,,0,70,70,70,,,,,,,,,,,,,,,,,,,,,,,,,,,,,,,,,,,,,,,,,,,301.49692863199743,None,2,0.3065830580017064,301.49692863199743,None,,,,,,,,,,,,,,,,None,None,None,,None,None,301.8466006999952,None,3,1,0.5673569389909972,301.8466006999952,None,302.4135218628915,None,None,None,None,,06,001,2023_Jan_18_1349,searchDisc5,2021.2.3,59.93946796825601,
images/exp2b_trial_104_colour2_distractors19_r.png,r,3,2,19,0,,,,,0,71,71,71,,,,,,,,,,,,,,,,,,,,,,,,,,,,,,,,,,,,,,,,,,,302.4300855580077,None,2,0.3200421260262374,302.4300855580077,None,,,,,,,,,,,,,,,,None,None,None,,None,None,302.7969542889914,None,3,1,0.6553788669989444,302.7969542889914,None,303.44732051989996,None,None,None,None,,06,001,2023_Jan_18_1349,searchDisc5,2021.2.3,59.93946796825601,
images/exp2b_trial_174_colour3_distractors31_r.png,r,3,3,31,0,,,,,0,72,72,72,,,,,,,,,,,,,,,,,,,,,,,,,,,,,,,,,,,,,,,,,,,303.46337658000994,None,2,0.31896723998943344,303.46337658000994,None,,,,,,,,,,,,,,,,None,None,None,,None,None,303.8302250330162,None,3,1,0.5681551769957878,303.8302250330162,None,304.39666304590065,None,None,None,None,,06,001,2023_Jan_18_1349,searchDisc5,2021.2.3,59.93946796825601,
images/exp2c_trial_121_colour3_distractors1_l.png,l,1,3,1,0,,,,,0,73,73,73,,,,,,,,,,,,,,,,,,,,,,,,,,,,,,,,,,,,,,,,,,,304.41564604701125,None,2,0.3215558840020094,304.41564604701125,None,,,,,,,,,,,,,,,,None,None,None,,None,None,304.7801329169888,None,1,1,0.7397654219821561,304.7801329169888,None,305.51382403789904,None,None,None,None,,06,001,2023_Jan_18_1349,searchDisc5,2021.2.3,59.93946796825601,
images/exp1a_trial_205_colour3_distractors19_r.png,r,3,3,19,0,,,,,0,74,74,74,,,,,,,,,,,,,,,,,,,,,,,,,,,,,,,,,,,,,,,,,,,305.5299821429944,None,2,0.3374415919824969,305.5299821429944,None,,,,,,,,,,,,,,,,None,None,None,,None,None,305.91390534999664,None,3,1,1.002360560989473,305.91390534999664,None,306.91405827788986,None,None,None,None,,06,001,2023_Jan_18_1349,searchDisc5,2021.2.3,59.93946796825601,
images/exp2a_trial_192_colour1_distractors1_r.png,r,3,1,1,0,,,,,0,75,75,75,,,,,,,,,,,,,,,,,,,,,,,,,,,,,,,,,,,,,,,,,,,306.93212074399344,None,2,0.38953720597783104,306.93212074399344,None,,,,,,,,,,,,,,,,None,None,None,,None,None,307.366229103005,None,3,1,1.7874783159932122,307.366229103005,None,309.14732794290177,None,None,None,None,,06,001,2023_Jan_18_1349,searchDisc5,2021.2.3,59.93946796825601,
images/exp2b_trial_216_colour2_distractors31_l.png,l,1,2,31,0,,,,,0,76,76,76,,,,,,,,,,,,,,,,,,,,,,,,,,,,,,,,,,,,,,,,,,,309.16366897599073,None,2,0.38763547598500736,309.16366897599073,None,,,,,,,,,,,,,,,,None,None,None,,None,None,309.5986919119896,None,1,1,0.8364546250086278,309.5986919119896,None,310.43088916189737,None,None,None,None,,06,001,2023_Jan_18_1349,searchDisc5,2021.2.3,59.93946796825601,
images/exp2b_trial_258_colour1_distractors9_r.png,r,3,1,9,0,,,,,0,77,77,77,,,,,,,,,,,,,,,,,,,,,,,,,,,,,,,,,,,,,,,,,,,310.4473901480087,None,2,0.35435453499667346,310.4473901480087,None,,,,,,,,,,,,,,,,None,None,None,,None,None,310.8473948019964,None,3,1,0.6899457760155201,310.8473948019964,None,311.5309321559151,None,None,None,None,,06,001,2023_Jan_18_1349,searchDisc5,2021.2.3,59.93946796825601,
images/exp2b_trial_259_colour1_distractors19_r.png,r,3,1,19,0,,,,,0,78,78,78,,,,,,,,,,,,,,,,,,,,,,,,,,,,,,,,,,,,,,,,,,,311.54647728899727,None,2,0.3690396980091464,311.54647728899727,None,,,,,,,,,,,,,,,,None,None,None,,None,None,311.96602502200403,None,3,1,0.6231765660049859,311.96602502200403,None,312.5808260378952,None,None,None,None,,06,001,2023_Jan_18_1349,searchDisc5,2021.2.3,59.93946796825601,
images/exp1a_trial_25_colour3_distractors1_l.png,l,1,3,1,0,,,,,0,79,79,79,,,,,,,,,,,,,,,,,,,,,,,,,,,,,,,,,,,,,,,,,,,312.5969624230056,None,2,0.35225476199411787,312.5969624230056,None,,,,,,,,,,,,,,,,None,None,None,,None,None,312.99715564699727,None,1,1,0.5886724799929652,312.99715564699727,None,313.5800781929109,None,None,None,None,,06,001,2023_Jan_18_1349,searchDisc5,2021.2.3,59.93946796825601,
images/exp2c_trial_64_colour1_distractors1_r.png,r,3,1,1,0,,,,,0,80,80,80,,,,,,,,,,,,,,,,,,,,,,,,,,,,,,,,,,,,,,,,,,,313.5970107789908,None,2,0.33858422498451546,313.5970107789908,None,,,,,,,,,,,,,,,,None,None,None,,None,None,313.9810447990021,None,3,1,0.6899754049954936,313.9810447990021,None,314.66404441890774,None,None,None,None,,06,001,2023_Jan_18_1349,searchDisc5,2021.2.3,59.93946796825601,
images/exp2a_trial_264_colour2_distractors19_r.png,r,3,2,19,0,,,,,0,81,81,81,,,,,,,,,,,,,,,,,,,,,,,,,,,,,,,,,,,,,,,,,,,314.68067860699375,None,2,0.3712334170122631,314.68067860699375,None,,,,,,,,,,,,,,,,None,None,None,,None,None,315.09985413000686,None,3,1,1.016138698993018,315.09985413000686,None,316.1140415069065,None,None,None,None,,06,001,2023_Jan_18_1349,searchDisc5,2021.2.3,59.93946796825601,
images/exp1a_trial_168_colour2_distractors19_r.png,r,3,2,19,0,,,,,0,82,82,82,,,,,,,,,,,,,,,,,,,,,,,,,,,,,,,,,,,,,,,,,,,316.1300811780093,None,2,0.286006959999213,316.1300811780093,None,,,,,,,,,,,,,,,,None,None,None,,None,None,316.46427486199536,None,3,1,0.7191961870121304,316.46427486199536,None,317.18085067088833,None,None,None,None,,06,001,2023_Jan_18_1349,searchDisc5,2021.2.3,59.93946796825601,
images/exp2c_trial_162_colour1_distractors9_r.png,r,3,1,9,0,,,,,0,83,83,83,,,,,,,,,,,,,,,,,,,,,,,,,,,,,,,,,,,,,,,,,,,317.1967250299931,None,2,0.32004715999937616,317.1967250299931,None,,,,,,,,,,,,,,,,None,None,None,,None,None,317.56420120000257,None,3,1,0.5051831649907399,317.56420120000257,None,318.0636342039041,None,None,None,None,,06,001,2023_Jan_18_1349,searchDisc5,2021.2.3,59.93946796825601,
images/exp2c_trial_195_colour1_distractors19_r.png,r,3,1,19,0,,,,,0,84,84,84,,,,,,,,,,,,,,,,,,,,,,,,,,,,,,,,,,,,,,,,,,,318.08100639100303,None,2,0.30524349998449907,318.08100639100303,None,,,,,,,,,,,,,,,,None,None,None,,None,None,318.43096306500956,None,3,1,0.5865643429860938,318.43096306500956,None,319.0143734119018,None,None,None,None,,06,001,2023_Jan_18_1349,searchDisc5,2021.2.3,59.93946796825601,
images/exp1a_trial_303_colour1_distractors1_l.png,l,1,1,1,0,,,,,0,85,85,85,,,,,,,,,,,,,,,,,,,,,,,,,,,,,,,,,,,,,,,,,,,319.03247707898845,None,2,0.32119184799375944,319.03247707898845,None,,,,,,,,,,,,,,,,None,None,None,,None,None,319.39760122899315,None,1,1,0.9720013210026082,319.39760122899315,None,320.3638295279059,None,None,None,None,,06,001,2023_Jan_18_1349,searchDisc5,2021.2.3,59.93946796825601,
images/exp2a_trial_40_colour2_distractors19_r.png,r,3,2,19,0,,,,,0,86,86,86,,,,,,,,,,,,,,,,,,,,,,,,,,,,,,,,,,,,,,,,,,,320.3810315890005,None,2,0.33852234299411066,320.3810315890005,None,,,,,,,,,,,,,,,,None,None,None,,None,None,320.76387358098873,None,3,1,1.1325333850109018,320.76387358098873,None,321.8976476338983,None,None,None,None,,06,001,2023_Jan_18_1349,searchDisc5,2021.2.3,59.93946796825601,
images/exp1a_trial_301_colour3_distractors19_r.png,r,3,3,19,0,,,,,0,87,87,87,,,,,,,,,,,,,,,,,,,,,,,,,,,,,,,,,,,,,,,,,,,321.9141326940153,None,2,0.31932483200216666,321.9141326940153,None,,,,,,,,,,,,,,,,None,None,None,,None,None,322.2810442500049,None,3,1,0.6840383099915925,322.2810442500049,None,322.9644180578878,None,None,None,None,,06,001,2023_Jan_18_1349,searchDisc5,2021.2.3,59.93946796825601,
images/exp2a_trial_257_colour1_distractors4_r.png,r,3,1,4,0,,,,,0,88,88,88,,,,,,,,,,,,,,,,,,,,,,,,,,,,,,,,,,,,,,,,,,,322.9808503240056,None,2,0.3043913079891354,322.9808503240056,None,,,,,,,,,,,,,,,,None,None,None,,None,None,323.3310952190077,None,3,1,0.5890086189901922,323.3310952190077,None,323.9144798618916,None,None,None,None,,06,001,2023_Jan_18_1349,searchDisc5,2021.2.3,59.93946796825601,
images/exp1a_trial_194_colour1_distractors9_r.png,r,3,1,9,0,,,,,0,89,89,89,,,,,,,,,,,,,,,,,,,,,,,,,,,,,,,,,,,,,,,,,,,323.9301970640081,None,2,0.3209796040027868,323.9301970640081,None,,,,,,,,,,,,,,,,None,None,None,,None,None,324.2977405069978,None,3,1,0.9708400660019834,324.2977405069978,None,325.26466547891033,None,None,None,None,,06,001,2023_Jan_18_1349,searchDisc5,2021.2.3,59.93946796825601,
images/exp2c_trial_91_colour3_distractors9_l.png,l,1,3,9,0,,,,,0,90,90,90,,,,,,,,,,,,,,,,,,,,,,,,,,,,,,,,,,,,,,,,,,,325.28083551701275,None,2,0.3228227010113187,325.28083551701275,None,,,,,,,,,,,,,,,,None,None,None,,None,None,325.6476679040061,None,1,1,0.635922663990641,325.6476679040061,None,326.28120891291184,None,None,None,None,,06,001,2023_Jan_18_1349,searchDisc5,2021.2.3,59.93946796825601,
images/exp2b_trial_220_colour3_distractors19_l.png,l,1,3,19,0,,,,,0,91,91,91,,,,,,,,,,,,,,,,,,,,,,,,,,,,,,,,,,,,,,,,,,,326.29747470800066,None,2,0.43960250800591893,326.29747470800066,None,,,,,,,,,,,,,,,,None,None,None,,None,None,326.7832099859952,None,1,1,0.9195649200119078,326.7832099859952,None,327.69798288891326,None,None,None,None,,06,001,2023_Jan_18_1349,searchDisc5,2021.2.3,59.93946796825601,
images/exp2c_trial_39_colour2_distractors9_r.png,r,3,2,9,0,,,,,0,92,92,92,,,,,,,,,,,,,,,,,,,,,,,,,,,,,,,,,,,,,,,,,,,327.7144170870015,None,2,0.5377008499926887,327.7144170870015,None,,,,,,,,,,,,,,,,None,None,None,,None,None,328.29797135898843,None,3,1,0.6033924290095456,328.29797135898843,None,328.89801077991143,None,None,None,None,,06,001,2023_Jan_18_1349,searchDisc5,2021.2.3,59.93946796825601,
images/exp2a_trial_224_colour1_distractors1_r.png,r,3,1,1,0,,,,,0,93,93,93,,,,,,,,,,,,,,,,,,,,,,,,,,,,,,,,,,,,,,,,,,,328.91436668200186,None,2,0.4396135349816177,328.91436668200186,None,,,,,,,,,,,,,,,,None,None,None,,None,None,329.400097648002,None,3,1,0.7551472409977578,329.400097648002,None,330.1499033979024,None,None,None,None,,06,001,2023_Jan_18_1349,searchDisc5,2021.2.3,59.93946796825601,
images/exp1a_trial_104_colour2_distractors19_r.png,r,3,2,19,0,,,,,0,94,94,94,,,,,,,,,,,,,,,,,,,,,,,,,,,,,,,,,,,,,,,,,,,330.1642875079997,None,2,0.3692159320053179,330.1642875079997,None,,,,,,,,,,,,,,,,None,None,None,,None,None,330.581263717002,None,3,1,0.5512138520134613,330.581263717002,None,331.1312470878882,None,None,None,None,,06,001,2023_Jan_18_1349,searchDisc5,2021.2.3,59.93946796825601,
images/exp2b_trial_237_colour3_distractors19_r.png,r,3,3,19,0,,,,,0,95,95,95,,,,,,,,,,,,,,,,,,,,,,,,,,,,,,,,,,,,,,,,,,,331.147656385001,None,2,0.3048515580012463,331.147656385001,None,,,,,,,,,,,,,,,,None,None,None,,None,None,331.497582120006,None,3,1,0.8359043749806006,331.497582120006,None,332.3305068388989,None,None,None,None,,06,001,2023_Jan_18_1349,searchDisc5,2021.2.3,59.93946796825601,
images/exp1a_trial_211_colour1_distractors31_l.png,l,1,1,31,0,,,,,0,96,96,96,,,,,,,,,,,,,,,,,,,,,,,,,,,,,,,,,,,,,,,,,,,332.3477082980098,None,2,0.32408330801990815,332.3477082980098,None,,,,,,,,,,,,,,,,None,None,None,,None,None,332.716650346003,None,1,1,1.931735916994512,332.716650346003,None,334.647919735912,None,None,None,None,,06,001,2023_Jan_18_1349,searchDisc5,2021.2.3,59.93946796825601,
images/exp2a_trial_208_colour1_distractors4_l.png,l,1,1,4,0,,,,,0,97,97,97,,,,,,,,,,,,,,,,,,,,,,,,,,,,,,,,,,,,,,,,,,,334.66452030901564,None,2,0.3378421459929086,334.66452030901564,None,,,,,,,,,,,,,,,,None,None,None,,None,None,335.04798435998964,None,1,1,0.6550238690106198,335.04798435998964,None,335.6973943919118,None,None,None,None,,06,001,2023_Jan_18_1349,searchDisc5,2021.2.3,59.93946796825601,
images/exp2a_trial_292_colour1_distractors31_r.png,r,3,1,31,0,,,,,0,98,98,98,,,,,,,,,,,,,,,,,,,,,,,,,,,,,,,,,,,,,,,,,,,335.7142966699903,None,2,0.3220814239757601,335.7142966699903,None,,,,,,,,,,,,,,,,None,None,None,,None,None,336.0808933379885,None,3,1,0.7023743790050503,336.0808933379885,None,336.7813342989073,None,None,None,None,,06,001,2023_Jan_18_1349,searchDisc5,2021.2.3,59.93946796825601,
images/exp2c_trial_53_colour2_distractors4_l.png,l,1,2,4,0,,,,,0,99,99,99,,,,,,,,,,,,,,,,,,,,,,,,,,,,,,,,,,,,,,,,,,,336.797337527998,None,2,0.35662641102680936,336.797337527998,None,,,,,,,,,,,,,,,,None,None,None,,None,None,337.20035845501116,None,1,1,0.5539438380219508,337.20035845501116,None,337.7480712659133,None,None,None,None,,06,001,2023_Jan_18_1349,searchDisc5,2021.2.3,59.93946796825601,
images/exp1a_trial_306_colour1_distractors19_l.png,l,1,1,19,0,,,,,0,100,100,100,,,,,,,,,,,,,,,,,,,,,,,,,,,,,,,,,,,,,,,,,,,337.76458756500506,None,2,0.3544103740132414,337.76458756500506,None,,,,,,,,,,,,,,,,None,None,None,,None,None,338.16491562401643,None,1,1,1.5850879210047424,338.16491562401643,None,339.7480844108912,None,None,None,None,,06,001,2023_Jan_18_1349,searchDisc5,2021.2.3,59.93946796825601,
images/exp2c_trial_24_colour2_distractors31_l.png,l,1,2,31,0,,,,,0,101,101,101,,,,,,,,,,,,,,,,,,,,,,,,,,,,,,,,,,,,,,,,,,,339.7645978250075,None,2,0.3057901669817511,339.7645978250075,None,,,,,,,,,,,,,,,,None,None,None,,None,None,340.11497114101076,None,1,1,0.5682546280149836,340.11497114101076,None,340.68156329491177,None,None,None,None,,06,001,2023_Jan_18_1349,searchDisc5,2021.2.3,59.93946796825601,
images/exp1a_trial_265_colour2_distractors31_r.png,r,3,2,31,0,,,,,0,102,102,102,,,,,,,,,,,,,,,,,,,,,,,,,,,,,,,,,,,,,,,,,,,340.69759997399524,None,2,0.2711766590073239,340.69759997399524,None,,,,,,,,,,,,,,,,None,None,None,,None,None,341.0149932639906,None,3,1,0.7002719839802012,341.0149932639906,None,341.71482172190446,None,None,None,None,,06,001,2023_Jan_18_1349,searchDisc5,2021.2.3,59.93946796825601,
images/exp1a_trial_139_colour3_distractors4_r.png,r,3,3,4,0,,,,,0,103,103,103,,,,,,,,,,,,,,,,,,,,,,,,,,,,,,,,,,,,,,,,,,,341.7312241680047,None,2,0.2899794930126518,341.7312241680047,None,,,,,,,,,,,,,,,,None,None,None,,None,None,342.0670408270089,None,3,1,0.6356397180061322,342.0670408270089,None,342.69771807490616,None,None,None,None,,06,001,2023_Jan_18_1349,searchDisc5,2021.2.3,59.93946796825601,
images/exp2b_trial_142_colour3_distractors31_r.png,r,3,3,31,0,,,,,0,104,104,104,,,,,,,,,,,,,,,,,,,,,,,,,,,,,,,,,,,,,,,,,,,342.71482233100687,None,2,0.3237833530001808,342.71482233100687,None,,,,,,,,,,,,,,,,None,None,None,,None,None,343.08292348499526,None,3,1,0.5677625539829023,343.08292348499526,None,343.6483721339144,None,None,None,None,,06,001,2023_Jan_18_1349,searchDisc5,2021.2.3,59.93946796825601,
images/exp1a_trial_142_colour3_distractors31_r.png,r,3,3,31,0,,,,,0,105,105,105,,,,,,,,,,,,,,,,,,,,,,,,,,,,,,,,,,,,,,,,,,,343.66467218499747,None,2,0.30478969000978395,343.66467218499747,None,,,,,,,,,,,,,,,,None,None,None,,None,None,344.01479826000286,None,3,1,0.550157372985268,344.01479826000286,None,344.56493084890536,None,None,None,None,,06,001,2023_Jan_18_1349,searchDisc5,2021.2.3,59.93946796825601,
images/exp2a_trial_194_colour1_distractors9_r.png,r,3,1,9,0,,,,,0,106,106,106,,,,,,,,,,,,,,,,,,,,,,,,,,,,,,,,,,,,,,,,,,,344.5812883650069,None,2,0.3210537279956043,344.5812883650069,None,,,,,,,,,,,,,,,,None,None,None,,None,None,344.9485117320146,None,3,1,0.6040048429858871,344.9485117320146,None,345.54839871691075,None,None,None,None,,06,001,2023_Jan_18_1349,searchDisc5,2021.2.3,59.93946796825601,
images/exp2b_trial_31_colour0_distractors0_l.png,l,1,0,0,0,,,,,0,107,107,107,,,,,,,,,,,,,,,,,,,,,,,,,,,,,,,,,,,,,,,,,,,345.5648569780169,None,2,0.3211567540129181,345.5648569780169,None,,,,,,,,,,,,,,,,None,None,None,,None,None,345.9317423719913,None,3,0,0.6413802979805041,345.9317423719913,None,346.5671772699105,None,None,None,None,,06,001,2023_Jan_18_1349,searchDisc5,2021.2.3,59.93946796825601,
images/exp2c_trial_283_colour3_distractors9_l.png,l,1,3,9,0,,,,,0,108,108,108,,,,,,,,,,,,,,,,,,,,,,,,,,,,,,,,,,,,,,,,,,,346.5814297560137,None,2,2.287812227004906,346.5814297560137,None,,,,,,,,,,,,,,,,None,None,None,,None,None,348.91682990800473,None,1,1,0.6528143890027422,348.91682990800473,None,349.56536511190353,None,None,None,None,,06,001,2023_Jan_18_1349,searchDisc5,2021.2.3,59.93946796825601,
images/exp2b_trial_90_colour3_distractors4_l.png,l,1,3,4,0,,,,,0,109,109,109,,,,,,,,,,,,,,,,,,,,,,,,,,,,,,,,,,,,,,,,,,,349.58145538601093,None,2,0.4875896050070878,349.58145538601093,None,,,,,,,,,,,,,,,,None,None,None,,None,None,350.11707360998844,None,1,1,0.8723330910142977,350.11707360998844,None,350.9818727478967,None,None,None,None,,06,001,2023_Jan_18_1349,searchDisc5,2021.2.3,59.93946796825601,
images/exp2a_trial_262_colour2_distractors4_r.png,r,3,2,4,0,,,,,0,110,110,110,,,,,,,,,,,,,,,,,,,,,,,,,,,,,,,,,,,,,,,,,,,350.99790674299584,None,2,0.4043520209961571,350.99790674299584,None,,,,,,,,,,,,,,,,None,None,None,,None,None,351.4502528180019,None,3,1,0.6378940670110751,351.4502528180019,None,352.08193753989764,None,None,None,None,,06,001,2023_Jan_18_1349,searchDisc5,2021.2.3,59.93946796825601,
images/exp1a_trial_254_colour0_distractors0_r.png,r,3,0,0,0,,,,,0,111,111,111,,,,,,,,,,,,,,,,,,,,,,,,,,,,,,,,,,,,,,,,,,,352.0977945580089,None,2,0.40293240899336524,352.0977945580089,None,,,,,,,,,,,,,,,,None,None,None,,None,None,352.54998242799775,None,3,1,0.5725778890191577,352.54998242799775,None,353.11531105091564,None,None,None,None,,06,001,2023_Jan_18_1349,searchDisc5,2021.2.3,59.93946796825601,
images/exp2c_trial_122_colour3_distractors4_l.png,l,1,3,4,0,,,,,0,112,112,112,,,,,,,,,,,,,,,,,,,,,,,,,,,,,,,,,,,,,,,,,,,353.1336476470169,None,2,0.38771499900030904,353.1336476470169,None,,,,,,,,,,,,,,,,None,None,None,,None,None,353.5652305690164,None,1,1,0.6381375080090947,353.5652305690164,None,354.1985564589093,None,None,None,None,,06,001,2023_Jan_18_1349,searchDisc5,2021.2.3,59.93946796825601,
images/exp2a_trial_160_colour1_distractors1_r.png,r,3,1,1,0,,,,,0,113,113,113,,,,,,,,,,,,,,,,,,,,,,,,,,,,,,,,,,,,,,,,,,,354.21465727098985,None,2,0.4044837570108939,354.21465727098985,None,,,,,,,,,,,,,,,,None,None,None,,None,None,354.66530220600544,None,3,1,0.7056436930142809,354.66530220600544,None,355.3648321809131,None,None,None,None,,06,001,2023_Jan_18_1349,searchDisc5,2021.2.3,59.93946796825601,
images/exp2b_trial_256_colour1_distractors1_r.png,r,3,1,1,0,,,,,0,114,114,114,,,,,,,,,,,,,,,,,,,,,,,,,,,,,,,,,,,,,,,,,,,355.38196066900855,None,2,0.40495044001727365,355.38196066900855,None,,,,,,,,,,,,,,,,None,None,None,,None,None,355.83148854400497,None,3,1,0.7398833759943955,355.83148854400497,None,356.56543021091494,None,None,None,None,,06,001,2023_Jan_18_1349,searchDisc5,2021.2.3,59.93946796825601,
images/exp2c_trial_0_colour1_distractors1_r.png,r,3,1,1,0,,,,,0,115,115,115,,,,,,,,,,,,,,,,,,,,,,,,,,,,,,,,,,,,,,,,,,,356.58169860200724,None,2,0.40651317400624976,356.58169860200724,None,,,,,,,,,,,,,,,,None,None,None,,None,None,357.0340778910031,None,3,1,0.5704857910168357,357.0340778910031,None,357.59876658890863,None,None,None,None,,06,001,2023_Jan_18_1349,searchDisc5,2021.2.3,59.93946796825601,
images/exp1a_trial_255_colour0_distractors0_l.png,l,1,0,0,0,,,,,0,116,116,116,,,,,,,,,,,,,,,,,,,,,,,,,,,,,,,,,,,,,,,,,,,357.61498942700564,None,2,0.35427206300664693,357.61498942700564,None,,,,,,,,,,,,,,,,None,None,None,,None,None,358.01512294998975,None,1,1,0.5916171459830366,358.01512294998975,None,358.59872262990103,None,None,None,None,,06,001,2023_Jan_18_1349,searchDisc5,2021.2.3,59.93946796825601,
images/exp1a_trial_277_colour2_distractors4_l.png,l,1,2,4,0,,,,,0,117,117,117,,,,,,,,,,,,,,,,,,,,,,,,,,,,,,,,,,,,,,,,,,,358.6151373180037,None,2,0.31899618901661597,358.6151373180037,None,,,,,,,,,,,,,,,,None,None,None,,None,None,358.98209566500736,None,1,1,0.5892866299836896,358.98209566500736,None,359.5655059309036,None,None,None,None,,06,001,2023_Jan_18_1349,searchDisc5,2021.2.3,59.93946796825601,
images/exp2c_trial_32_colour1_distractors1_r.png,r,3,1,1,0,,,,,0,118,118,118,,,,,,,,,,,,,,,,,,,,,,,,,,,,,,,,,,,,,,,,,,,359.5818566940143,None,2,0.3545095610024873,359.5818566940143,None,,,,,,,,,,,,,,,,None,None,None,,None,None,359.9821342730138,None,3,1,0.608059382007923,359.9821342730138,None,360.5841675929085,None,None,None,None,,06,001,2023_Jan_18_1349,searchDisc5,2021.2.3,59.93946796825601,
images/exp2a_trial_74_colour3_distractors1_r.png,r,3,3,1,0,,,,,0,119,119,119,,,,,,,,,,,,,,,,,,,,,,,,,,,,,,,,,,,,,,,,,,,360.6005220290099,None,2,0.40458105300785974,360.6005220290099,None,,,,,,,,,,,,,,,,None,None,None,,None,None,361.04820307399496,None,3,1,0.7209851090156008,361.04820307399496,None,361.7653615039133,None,None,None,None,,06,001,2023_Jan_18_1349,searchDisc5,2021.2.3,59.93946796825601,
images/exp2b_trial_63_colour0_distractors0_l.png,l,1,0,0,0,,,,,0,120,120,120,,,,,,,,,,,,,,,,,,,,,,,,,,,,,,,,,,,,,,,,,,,361.7819395159895,None,2,0.35664559400174767,361.7819395159895,None,,,,,,,,,,,,,,,,None,None,None,,None,None,362.1816718839982,None,1,1,0.5874769490037579,362.1816718839982,None,362.7653986268968,None,None,None,None,,06,001,2023_Jan_18_1349,searchDisc5,2021.2.3,59.93946796825601,
images/exp2c_trial_15_colour1_distractors1_l.png,l,1,1,1,0,,,,,0,121,121,121,,,,,,,,,,,,,,,,,,,,,,,,,,,,,,,,,,,,,,,,,,,362.78165334201185,None,2,0.2878275300026871,362.78165334201185,None,,,,,,,,,,,,,,,,None,None,None,,None,None,363.11542889499106,None,1,1,0.5913957750017289,363.11542889499106,None,363.69881910791156,None,None,None,None,,06,001,2023_Jan_18_1349,searchDisc5,2021.2.3,59.93946796825601,
images/exp1a_trial_210_colour1_distractors19_l.png,l,1,1,19,0,,,,,0,122,122,122,,,,,,,,,,,,,,,,,,,,,,,,,,,,,,,,,,,,,,,,,,,363.7147404749994,None,2,0.33791435198509134,363.7147404749994,None,,,,,,,,,,,,,,,,None,None,None,,None,None,364.1010557789996,None,1,1,2.800946050003404,364.1010557789996,None,366.8990863328916,None,None,None,None,,06,001,2023_Jan_18_1349,searchDisc5,2021.2.3,59.93946796825601,
images/exp1a_trial_161_colour1_distractors4_r.png,r,3,1,4,0,,,,,0,123,123,123,,,,,,,,,,,,,,,,,,,,,,,,,,,,,,,,,,,,,,,,,,,366.9150302800117,None,2,0.33775212298496626,366.9150302800117,None,,,,,,,,,,,,,,,,None,None,None,,None,None,367.2982478539925,None,3,1,0.6207917519786861,367.2982478539925,None,367.9157827638963,None,None,None,None,,06,001,2023_Jan_18_1349,searchDisc5,2021.2.3,59.93946796825601,
images/exp2c_trial_236_colour3_distractors9_r.png,r,3,3,9,0,,,,,0,124,124,124,,,,,,,,,,,,,,,,,,,,,,,,,,,,,,,,,,,,,,,,,,,367.9320507730008,None,2,0.7057995409995783,367.9320507730008,None,,,,,,,,,,,,,,,,None,None,None,,None,None,368.6821960739908,None,3,1,1.0547202909947373,368.6821960739908,None,369.7317649739096,None,None,None,None,,06,001,2023_Jan_18_1349,searchDisc5,2021.2.3,59.93946796825601,
images/exp2c_trial_34_colour1_distractors9_r.png,r,3,1,9,0,,,,,0,125,125,125,,,,,,,,,,,,,,,,,,,,,,,,,,,,,,,,,,,,,,,,,,,369.7488144300005,None,2,0.3032191959791817,369.7488144300005,None,,,,,,,,,,,,,,,,None,None,None,,None,None,370.0990198329964,None,3,1,0.587865817011334,370.0990198329964,None,370.6825332238921,None,None,None,None,,06,001,2023_Jan_18_1349,searchDisc5,2021.2.3,59.93946796825601,
images/exp2b_trial_177_colour1_distractors9_l.png,l,1,1,9,0,,,,,0,126,126,126,,,,,,,,,,,,,,,,,,,,,,,,,,,,,,,,,,,,,,,,,,,370.69878385501215,None,2,0.33987930201692507,370.69878385501215,None,,,,,,,,,,,,,,,,None,None,None,,None,None,371.0818866530026,None,1,1,0.8189007430046331,371.0818866530026,None,371.89858725889354,None,None,None,None,,06,001,2023_Jan_18_1349,searchDisc5,2021.2.3,59.93946796825601,
images/exp2a_trial_268_colour3_distractors9_r.png,r,3,3,9,0,,,,,0,127,127,127,,,,,,,,,,,,,,,,,,,,,,,,,,,,,,,,,,,,,,,,,,,371.9148538009904,None,2,0.33803877400350757,371.9148538009904,None,,,,,,,,,,,,,,,,None,None,None,,None,None,372.2988659760158,None,3,1,0.7045475920022,372.2988659760158,None,372.99919273690904,None,None,None,None,,06,001,2023_Jan_18_1349,searchDisc5,2021.2.3,59.93946796825601,
images/exp1a_trial_193_colour1_distractors4_r.png,r,3,1,4,0,,,,,0,128,128,128,,,,,,,,,,,,,,,,,,,,,,,,,,,,,,,,,,,,,,,,,,,373.0154951130098,None,2,0.3373151770210825,373.0154951130098,None,,,,,,,,,,,,,,,,None,None,None,,None,None,373.398605675,None,3,1,0.6556752579926979,373.398605675,None,374.0491605269024,None,None,None,None,,06,001,2023_Jan_18_1349,searchDisc5,2021.2.3,59.93946796825601,
images/exp1a_trial_288_colour1_distractors1_r.png,r,3,1,1,0,,,,,0,129,129,129,,,,,,,,,,,,,,,,,,,,,,,,,,,,,,,,,,,,,,,,,,,374.06478621799033,None,2,0.27085192999220453,374.06478621799033,None,,,,,,,,,,,,,,,,None,None,None,,None,None,374.38262457499513,None,3,1,0.5725450340250973,374.38262457499513,None,374.94911287490396,None,None,None,None,,06,001,2023_Jan_18_1349,searchDisc5,2021.2.3,59.93946796825601,
images/exp1a_trial_169_colour2_distractors31_r.png,r,3,2,31,0,,,,,0,130,130,130,,,,,,,,,,,,,,,,,,,,,,,,,,,,,,,,,,,,,,,,,,,374.9676068800036,None,2,0.2877897819853388,374.9676068800036,None,,,,,,,,,,,,,,,,None,None,None,,None,None,375.2991488460102,None,3,1,0.6836887300014496,375.2991488460102,None,375.9826520819159,None,None,None,None,,06,001,2023_Jan_18_1349,searchDisc5,2021.2.3,59.93946796825601,
images/exp2b_trial_120_colour2_distractors31_l.png,l,1,2,31,0,,,,,0,131,131,131,,,,,,,,,,,,,,,,,,,,,,,,,,,,,,,,,,,,,,,,,,,375.9986395580054,None,2,0.2897533590148669,375.9986395580054,None,,,,,,,,,,,,,,,,None,None,None,,None,None,376.33442129701143,None,1,1,0.6674021390208509,376.33442129701143,None,376.99910885489663,None,None,None,None,,06,001,2023_Jan_18_1349,searchDisc5,2021.2.3,59.93946796825601,
images/exp2b_trial_206_colour3_distractors31_r.png,r,3,3,31,0,,,,,0,132,132,132,,,,,,,,,,,,,,,,,,,,,,,,,,,,,,,,,,,,,,,,,,,377.01571210299153,None,2,0.30467593399225734,377.01571210299153,None,,,,,,,,,,,,,,,,None,None,None,,None,None,377.36597268801415,None,3,1,0.7028811199998017,377.36597268801415,None,378.06575369390777,None,None,None,None,,06,001,2023_Jan_18_1349,searchDisc5,2021.2.3,59.93946796825601,
images/exp2b_trial_184_colour2_distractors31_l.png,l,1,2,31,0,,,,,0,133,133,133,,,,,,,,,,,,,,,,,,,,,,,,,,,,,,,,,,,,,,,,,,,378.0822660620033,None,2,0.28943037800490856,378.0822660620033,None,,,,,,,,,,,,,,,,None,None,None,,None,None,378.415720096993,None,1,1,0.6687574709940236,378.415720096993,None,379.0825985538948,None,None,None,None,,06,001,2023_Jan_18_1349,searchDisc5,2021.2.3,59.93946796825601,
images/exp2c_trial_318_colour0_distractors0_r.png,r,3,0,0,0,,,,,0,134,134,134,,,,,,,,,,,,,,,,,,,,,,,,,,,,,,,,,,,,,,,,,,,379.1008768969914,None,2,0.3044625549810007,379.1008768969914,None,,,,,,,,,,,,,,,,None,None,None,,None,None,379.4492032029957,None,3,1,0.6055386239895597,379.4492032029957,None,380.04877763690894,None,None,None,None,,06,001,2023_Jan_18_1349,searchDisc5,2021.2.3,59.93946796825601,
images/exp2a_trial_170_colour3_distractors1_r.png,r,3,3,1,0,,,,,0,135,135,135,,,,,,,,,,,,,,,,,,,,,,,,,,,,,,,,,,,,,,,,,,,380.06600448599784,None,2,0.4237773630011361,380.06600448599784,None,,,,,,,,,,,,,,,,None,None,None,,None,None,380.53464791801525,None,3,1,0.5879616390157025,380.53464791801525,None,381.1159622339008,None,None,None,None,,06,001,2023_Jan_18_1349,searchDisc5,2021.2.3,59.93946796825601,
images/exp2a_trial_131_colour1_distractors19_r.png,r,3,1,19,0,,,,,0,136,136,136,,,,,,,,,,,,,,,,,,,,,,,,,,,,,,,,,,,,,,,,,,,381.1321975339961,None,2,0.2884926139959134,381.1321975339961,None,,,,,,,,,,,,,,,,None,None,None,,None,None,381.4655763829942,None,3,1,0.5870099629973993,381.4655763829942,None,382.0495278349088,None,None,None,None,,06,001,2023_Jan_18_1349,searchDisc5,2021.2.3,59.93946796825601,
images/exp1a_trial_102_colour2_distractors4_r.png,r,3,2,4,0,,,,,0,137,137,137,,,,,,,,,,,,,,,,,,,,,,,,,,,,,,,,,,,,,,,,,,,382.06576882401714,None,2,0.3543338759918697,382.06576882401714,None,,,,,,,,,,,,,,,,None,None,None,,None,None,382.46599090800737,None,3,1,0.721143470989773,382.46599090800737,None,383.1827021548932,None,None,None,None,,06,001,2023_Jan_18_1349,searchDisc5,2021.2.3,59.93946796825601,
images/exp1a_trial_166_colour2_distractors4_r.png,r,3,2,4,0,,,,,0,138,138,138,,,,,,,,,,,,,,,,,,,,,,,,,,,,,,,,,,,,,,,,,,,383.1991086920025,None,2,0.42122458599624224,383.1991086920025,None,,,,,,,,,,,,,,,,None,None,None,,None,None,383.6660919570131,None,3,1,0.6881010819924995,383.6660919570131,None,384.34937772089035,None,None,None,None,,06,001,2023_Jan_18_1349,searchDisc5,2021.2.3,59.93946796825601,
images/exp1a_trial_284_colour3_distractors19_l.png,l,1,3,19,0,,,,,0,139,139,139,,,,,,,,,,,,,,,,,,,,,,,,,,,,,,,,,,,,,,,,,,,384.36613399899215,None,2,0.3541928500053473,384.36613399899215,None,,,,,,,,,,,,,,,,None,None,None,,None,None,384.7654786980129,None,1,1,0.6186379719874822,384.7654786980129,None,385.38291998589995,None,None,None,None,,06,001,2023_Jan_18_1349,searchDisc5,2021.2.3,59.93946796825601,
images/exp2b_trial_70_colour2_distractors4_r.png,r,3,2,4,0,,,,,0,140,140,140,,,,,,,,,,,,,,,,,,,,,,,,,,,,,,,,,,,,,,,,,,,385.3990022680082,None,2,0.3542841890011914,385.3990022680082,None,,,,,,,,,,,,,,,,None,None,None,,None,None,385.799274599005,None,3,1,0.5552571809967048,385.799274599005,None,386.3495440569066,None,None,None,None,,06,001,2023_Jan_18_1349,searchDisc5,2021.2.3,59.93946796825601,
images/exp1a_trial_137_colour2_distractors31_r.png,r,3,2,31,0,,,,,0,141,141,141,,,,,,,,,,,,,,,,,,,,,,,,,,,,,,,,,,,,,,,,,,,386.3657925130101,None,2,0.354152048996184,386.3657925130101,None,,,,,,,,,,,,,,,,None,None,None,,None,None,386.76624481301405,None,3,1,0.7497479979938362,386.76624481301405,None,387.516172213899,None,None,None,None,,06,001,2023_Jan_18_1349,searchDisc5,2021.2.3,59.93946796825601,
images/exp1a_trial_182_colour2_distractors9_l.png,l,1,2,9,0,,,,,0,142,142,142,,,,,,,,,,,,,,,,,,,,,,,,,,,,,,,,,,,,,,,,,,,387.5325625030091,None,2,0.3376180210034363,387.5325625030091,None,,,,,,,,,,,,,,,,None,None,None,,None,None,387.91629764501704,None,1,1,0.5707002499839291,387.91629764501704,None,388.48307869890124,None,None,None,None,,06,001,2023_Jan_18_1349,searchDisc5,2021.2.3,59.93946796825601,
images/exp2a_trial_3_colour1_distractors19_r.png,r,3,1,19,0,,,,,0,143,143,143,,,,,,,,,,,,,,,,,,,,,,,,,,,,,,,,,,,,,,,,,,,388.4992431389983,None,2,0.3541343419929035,388.4992431389983,None,,,,,,,,,,,,,,,,None,None,None,,None,None,388.8995569370163,None,3,1,0.6691992729902267,388.8995569370163,None,389.56595079590335,None,None,None,None,,06,001,2023_Jan_18_1349,searchDisc5,2021.2.3,59.93946796825601,
images/exp2a_trial_45_colour3_distractors19_r.png,r,3,3,19,0,,,,,0,144,144,144,,,,,,,,,,,,,,,,,,,,,,,,,,,,,,,,,,,,,,,,,,,389.58209741601604,None,2,0.3378893680055626,389.58209741601604,None,,,,,,,,,,,,,,,,None,None,None,,None,None,389.966371588991,None,3,1,0.6705140680132899,389.966371588991,None,390.63303616789636,None,None,None,None,,06,001,2023_Jan_18_1349,searchDisc5,2021.2.3,59.93946796825601,
images/exp2c_trial_212_colour2_distractors1_l.png,l,1,2,1,0,,,,,0,145,145,145,,,,,,,,,,,,,,,,,,,,,,,,,,,,,,,,,,,,,,,,,,,390.649341715005,None,2,0.33905988300102763,390.649341715005,None,,,,,,,,,,,,,,,,None,None,None,,None,None,391.0324780319934,None,1,1,0.554608576989267,391.0324780319934,None,391.5829351309047,None,None,None,None,,06,001,2023_Jan_18_1349,searchDisc5,2021.2.3,59.93946796825601,
images/exp2a_trial_6_colour2_distractors4_r.png,r,3,2,4,0,,,,,0,146,146,146,,,,,,,,,,,,,,,,,,,,,,,,,,,,,,,,,,,,,,,,,,,391.599313387007,None,2,0.2547060049837455,391.599313387007,None,,,,,,,,,,,,,,,,None,None,None,,None,None,391.8998248040152,None,3,1,0.5712608599860687,391.8998248040152,None,392.4662760229083,None,None,None,None,,06,001,2023_Jan_18_1349,searchDisc5,2021.2.3,59.93946796825601,
images/exp1a_trial_293_colour2_distractors1_r.png,r,3,2,1,0,,,,,0,147,147,147,,,,,,,,,,,,,,,,,,,,,,,,,,,,,,,,,,,,,,,,,,,392.48244056201656,None,2,0.32126731699099764,392.48244056201656,None,,,,,,,,,,,,,,,,None,None,None,,None,None,392.8496556179889,None,3,1,0.8052127590053715,392.8496556179889,None,393.6496620958904,None,None,None,None,,06,001,2023_Jan_18_1349,searchDisc5,2021.2.3,59.93946796825601,
images/exp1a_trial_187_colour3_distractors9_l.png,l,1,3,9,0,,,,,0,148,148,148,,,,,,,,,,,,,,,,,,,,,,,,,,,,,,,,,,,,,,,,,,,393.6661516079912,None,2,0.30343039199942723,393.6661516079912,None,,,,,,,,,,,,,,,,None,None,None,,None,None,394.01630975399166,None,1,1,0.5037552380235866,394.01630975399166,None,394.51573406190147,None,None,None,None,,06,001,2023_Jan_18_1349,searchDisc5,2021.2.3,59.93946796825601,
images/exp1a_trial_197_colour2_distractors1_r.png,r,3,2,1,0,,,,,0,149,149,149,,,,,,,,,,,,,,,,,,,,,,,,,,,,,,,,,,,,,,,,,,,394.5329460600042,None,2,0.33774852598435245,394.5329460600042,None,,,,,,,,,,,,,,,,None,None,None,,None,None,394.9162004989921,None,3,1,0.7062331449997146,394.9162004989921,None,395.6165602158988,None,None,None,None,,06,001,2023_Jan_18_1349,searchDisc5,2021.2.3,59.93946796825601,
images/exp1a_trial_95_colour0_distractors0_l.png,l,1,0,0,0,,,,,0,150,150,150,,,,,,,,,,,,,,,,,,,,,,,,,,,,,,,,,,,,,,,,,,,395.6326968270005,None,2,0.3063899030094035,395.6326968270005,None,,,,,,,,,,,,,,,,None,None,None,,None,None,395.98310951999156,None,1,1,0.5210991859785281,395.98310951999156,None,396.49980858490454,None,None,None,None,,06,001,2023_Jan_18_1349,searchDisc5,2021.2.3,59.93946796825601,
images/exp1a_trial_89_colour3_distractors1_l.png,l,1,3,1,0,,,,,0,151,151,151,,,,,,,,,,,,,,,,,,,,,,,,,,,,,,,,,,,,,,,,,,,396.5162121820031,None,2,0.33797441399656236,396.5162121820031,None,,,,,,,,,,,,,,,,None,None,None,,None,None,396.8992804379959,None,1,1,0.5230882210016716,396.8992804379959,None,397.4165210538893,None,None,None,None,,06,001,2023_Jan_18_1349,searchDisc5,2021.2.3,59.93946796825601,
images/exp2b_trial_267_colour3_distractors4_r.png,r,3,3,4,0,,,,,0,152,152,152,,,,,,,,,,,,,,,,,,,,,,,,,,,,,,,,,,,,,,,,,,,397.4326622039953,None,2,0.33765816799132153,397.4326622039953,None,,,,,,,,,,,,,,,,None,None,None,,None,None,397.81640244601294,None,3,1,0.5717238369979896,397.81640244601294,None,398.38306079890464,None,None,None,None,,06,001,2023_Jan_18_1349,searchDisc5,2021.2.3,59.93946796825601,
images/exp2c_trial_1_colour1_distractors4_r.png,r,3,1,4,0,,,,,0,153,153,153,,,,,,,,,,,,,,,,,,,,,,,,,,,,,,,,,,,,,,,,,,,398.40200342200114,None,2,0.3539235850039404,398.40200342200114,None,,,,,,,,,,,,,,,,None,None,None,,None,None,398.8017563660105,None,3,1,0.5214916020049714,398.8017563660105,None,399.3164273878909,None,None,None,None,,06,001,2023_Jan_18_1349,searchDisc5,2021.2.3,59.93946796825601,
images/exp1a_trial_154_colour3_distractors4_l.png,l,1,3,4,0,,,,,0,154,154,154,,,,,,,,,,,,,,,,,,,,,,,,,,,,,,,,,,,,,,,,,,,399.3345731080044,None,2,0.3544844690186437,399.3345731080044,None,,,,,,,,,,,,,,,,None,None,None,,None,None,399.73529362800764,None,1,1,0.48749416100326926,399.73529362800764,None,400.2160400578985,None,None,None,None,,06,001,2023_Jan_18_1349,searchDisc5,2021.2.3,59.93946796825601,
images/exp2a_trial_188_colour3_distractors19_l.png,l,1,3,19,0,,,,,0,155,155,155,,,,,,,,,,,,,,,,,,,,,,,,,,,,,,,,,,,,,,,,,,,400.2331749210134,None,2,0.338475066004321,400.2331749210134,None,,,,,,,,,,,,,,,,None,None,None,,None,None,400.6167284120165,None,1,1,0.653718009009026,400.6167284120165,None,401.26654216191383,None,None,None,None,,06,001,2023_Jan_18_1349,searchDisc5,2021.2.3,59.93946796825601,
images/exp2b_trial_306_colour1_distractors19_l.png,l,1,1,19,0,,,,,0,156,156,156,,,,,,,,,,,,,,,,,,,,,,,,,,,,,,,,,,,,,,,,,,,401.2850180279929,None,2,0.3376884349854663,401.2850180279929,None,,,,,,,,,,,,,,,,None,None,None,,None,None,401.6687330160057,None,1,1,0.9204307539912406,401.6687330160057,None,402.58308755491163,None,None,None,None,,06,001,2023_Jan_18_1349,searchDisc5,2021.2.3,59.93946796825601,
images/exp2c_trial_294_colour2_distractors4_r.png,r,3,2,4,0,,,,,0,157,157,157,,,,,,,,,,,,,,,,,,,,,,,,,,,,,,,,,,,,,,,,,,,402.59956289699767,None,2,0.3046173669863492,402.59956289699767,None,,,,,,,,,,,,,,,,None,None,None,,None,None,402.94970461001503,None,3,1,0.5886278200196102,402.94970461001503,None,403.53332642691095,None,None,None,None,,06,001,2023_Jan_18_1349,searchDisc5,2021.2.3,59.93946796825601,
images/exp2c_trial_189_colour3_distractors31_l.png,l,1,3,31,0,,,,,0,158,158,158,,,,,,,,,,,,,,,,,,,,,,,,,,,,,,,,,,,,,,,,,,,403.5496827349998,None,2,0.3059395079908427,403.5496827349998,None,,,,,,,,,,,,,,,,None,None,None,,None,None,403.8998495269916,None,1,1,0.935575693991268,403.8998495269916,None,404.83345608190285,None,None,None,None,,06,001,2023_Jan_18_1349,searchDisc5,2021.2.3,59.93946796825601,
images/exp1a_trial_85_colour2_distractors4_l.png,l,1,2,4,0,,,,,0,159,159,159,,,,,,,,,,,,,,,,,,,,,,,,,,,,,,,,,,,,,,,,,,,404.849630214012,None,2,0.27096546298707835,404.849630214012,None,,,,,,,,,,,,,,,,None,None,None,,None,None,405.16693857099744,None,1,1,0.5881318020110484,405.16693857099744,None,405.7499651789083,None,None,None,None,,06,001,2023_Jan_18_1349,searchDisc5,2021.2.3,59.93946796825601,
images/exp2b_trial_129_colour1_distractors4_r.png,r,3,1,4,0,,,,,0,160,160,160,,,,,,,,,,,,,,,,,,,,,,,,,,,,,,,,,,,,,,,,,,,405.76627321899286,None,2,0.23876131500583142,405.76627321899286,None,,,,,,,,,,,,,,,,None,None,None,,None,None,406.0522596100054,None,3,1,0.7559385939966887,406.0522596100054,None,406.80004343190814,None,None,None,None,,06,001,2023_Jan_18_1349,searchDisc5,2021.2.3,59.93946796825601,
images/exp2c_trial_213_colour2_distractors4_l.png,l,1,2,4,0,,,,,0,161,161,161,,,,,,,,,,,,,,,,,,,,,,,,,,,,,,,,,,,,,,,,,,,406.8162181680091,None,2,0.23693873500451446,406.8162181680091,None,,,,,,,,,,,,,,,,None,None,None,,None,None,407.102090054017,None,1,1,0.5722916740051005,407.102090054017,None,407.66689395591385,None,None,None,None,,06,001,2023_Jan_18_1349,searchDisc5,2021.2.3,59.93946796825601,
images/exp2c_trial_4_colour1_distractors31_r.png,r,3,1,31,0,,,,,0,162,162,162,,,,,,,,,,,,,,,,,,,,,,,,,,,,,,,,,,,,,,,,,,,407.68308635699213,None,2,0.18751873599831015,407.68308635699213,None,,,,,,,,,,,,,,,,None,None,None,,None,None,407.9162158599938,None,3,1,0.6539376619912218,407.9162158599938,None,408.56695826489596,None,None,None,None,,06,001,2023_Jan_18_1349,searchDisc5,2021.2.3,59.93946796825601,
images/exp2c_trial_18_colour1_distractors19_l.png,l,1,1,19,0,,,,,0,163,163,163,,,,,,,,,,,,,,,,,,,,,,,,,,,,,,,,,,,,,,,,,,,408.58303493101266,None,2,0.33896545399329625,408.58303493101266,None,,,,,,,,,,,,,,,,None,None,None,,None,None,408.9681710700097,None,1,1,0.6006019249907695,408.9681710700097,None,409.5667609899072,None,None,None,None,,06,001,2023_Jan_18_1349,searchDisc5,2021.2.3,59.93946796825601,
images/exp2a_trial_247_colour2_distractors19_l.png,l,1,2,19,0,,,,,0,164,164,164,,,,,,,,,,,,,,,,,,,,,,,,,,,,,,,,,,,,,,,,,,,409.58518015401205,None,2,0.27117628598352894,409.58518015401205,None,,,,,,,,,,,,,,,,None,None,None,,None,None,409.90011326101376,None,1,1,0.9638656650204211,409.90011326101376,None,410.86677225089517,None,None,None,None,,06,001,2023_Jan_18_1349,searchDisc5,2021.2.3,59.93946796825601,
images/exp2a_trial_54_colour2_distractors9_l.png,l,1,2,9,0,,,,,0,165,165,165,,,,,,,,,,,,,,,,,,,,,,,,,,,,,,,,,,,,,,,,,,,410.8834259189898,None,2,0.271396068012109,410.8834259189898,None,,,,,,,,,,,,,,,,None,None,None,,None,None,411.20013517301413,None,1,1,0.7011673400120344,411.20013517301413,None,411.90058007290355,None,None,None,None,,06,001,2023_Jan_18_1349,searchDisc5,2021.2.3,59.93946796825601,
images/exp2c_trial_51_colour1_distractors31_l.png,l,1,1,31,0,,,,,0,166,166,166,,,,,,,,,,,,,,,,,,,,,,,,,,,,,,,,,,,,,,,,,,,411.9188154680014,None,2,0.220852600003127,411.9188154680014,None,,,,,,,,,,,,,,,,None,None,None,,None,None,412.18375196901616,None,1,1,0.5860164089826867,412.18375196901616,None,412.766783016891,None,None,None,None,,06,001,2023_Jan_18_1349,searchDisc5,2021.2.3,59.93946796825601,
images/exp2c_trial_216_colour2_distractors31_l.png,l,1,2,31,0,,,,,0,167,167,167,,,,,,,,,,,,,,,,,,,,,,,,,,,,,,,,,,,,,,,,,,,412.78315786100575,None,2,0.2583179189823568,412.78315786100575,None,,,,,,,,,,,,,,,,None,None,None,,None,None,413.08323227701476,None,1,1,0.5683899389987346,413.08323227701476,None,413.6504267118988,None,None,None,None,,06,001,2023_Jan_18_1349,searchDisc5,2021.2.3,59.93946796825601,
images/exp2c_trial_112_colour1_distractors4_l.png,l,1,1,4,0,,,,,0,168,168,168,,,,,,,,,,,,,,,,,,,,,,,,,,,,,,,,,,,,,,,,,,,413.6668980960094,None,2,0.2354842539934907,413.6668980960094,None,,,,,,,,,,,,,,,,None,None,None,,None,None,413.9522427560005,None,1,1,0.6242677599948365,413.9522427560005,None,414.56693030790194,None,None,None,None,,06,001,2023_Jan_18_1349,searchDisc5,2021.2.3,59.93946796825601,
images/exp2a_trial_162_colour1_distractors9_r.png,r,3,1,9,0,,,,,0,169,169,169,,,,,,,,,,,,,,,,,,,,,,,,,,,,,,,,,,,,,,,,,,,414.58530147900456,None,2,0.2523768129758537,414.58530147900456,None,,,,,,,,,,,,,,,,None,None,None,,None,None,414.8835041440034,None,3,1,0.5893997279927135,414.8835041440034,None,415.46690985488823,None,None,None,None,,06,001,2023_Jan_18_1349,searchDisc5,2021.2.3,59.93946796825601,
images/exp2b_trial_53_colour2_distractors4_l.png,l,1,2,4,0,,,,,0,170,170,170,,,,,,,,,,,,,,,,,,,,,,,,,,,,,,,,,,,,,,,,,,,415.48306660499657,None,2,0.2879558230051771,415.48306660499657,None,,,,,,,,,,,,,,,,None,None,None,,None,None,415.8169769330125,None,1,1,0.6198364199954085,415.8169769330125,None,416.4335553479148,None,None,None,None,,06,001,2023_Jan_18_1349,searchDisc5,2021.2.3,59.93946796825601,
images/exp2b_trial_122_colour3_distractors4_l.png,l,1,3,4,0,,,,,0,171,171,171,,,,,,,,,,,,,,,,,,,,,,,,,,,,,,,,,,,,,,,,,,,416.4496527159936,None,2,0.3047008469875436,416.4496527159936,None,,,,,,,,,,,,,,,,None,None,None,,None,None,416.8004115410149,None,1,1,0.5556445959955454,416.8004115410149,None,417.3502363498963,None,None,None,None,,06,001,2023_Jan_18_1349,searchDisc5,2021.2.3,59.93946796825601,
images/exp1a_trial_203_colour3_distractors4_r.png,r,3,3,4,0,,,,,0,172,172,172,,,,,,,,,,,,,,,,,,,,,,,,,,,,,,,,,,,,,,,,,,,417.36677125500864,None,2,0.28983993199653924,417.36677125500864,None,,,,,,,,,,,,,,,,None,None,None,,None,None,417.7024841819948,None,3,1,0.5529307189863175,417.7024841819948,None,418.2504538199108,None,None,None,None,,06,001,2023_Jan_18_1349,searchDisc5,2021.2.3,59.93946796825601,
images/exp1a_trial_12_colour3_distractors9_r.png,r,3,3,9,0,,,,,0,173,173,173,,,,,,,,,,,,,,,,,,,,,,,,,,,,,,,,,,,,,,,,,,,418.2667833130108,None,2,0.2879110650101211,418.2667833130108,None,,,,,,,,,,,,,,,,None,None,None,,None,None,418.5998573859979,None,3,1,0.5209702879947145,418.5998573859979,None,419.11701524791425,None,None,None,None,,06,001,2023_Jan_18_1349,searchDisc5,2021.2.3,59.93946796825601,
images/exp1a_trial_97_colour1_distractors4_r.png,r,3,1,4,0,,,,,0,174,174,174,,,,,,,,,,,,,,,,,,,,,,,,,,,,,,,,,,,,,,,,,,,419.13319802400656,None,2,0.2878172360069584,419.13319802400656,None,,,,,,,,,,,,,,,,None,None,None,,None,None,419.4671188890061,None,3,1,0.5864842250011861,419.4671188890061,None,420.0497766398883,None,None,None,None,,06,001,2023_Jan_18_1349,searchDisc5,2021.2.3,59.93946796825601,
images/exp2b_trial_24_colour2_distractors31_l.png,l,1,2,31,0,,,,,0,175,175,175,,,,,,,,,,,,,,,,,,,,,,,,,,,,,,,,,,,,,,,,,,,420.0668797089893,None,2,0.3054605190118309,420.0668797089893,None,,,,,,,,,,,,,,,,None,None,None,,None,None,420.4191198149929,None,1,1,0.65280352398986,420.4191198149929,None,421.06703104691115,None,None,None,None,,06,001,2023_Jan_18_1349,searchDisc5,2021.2.3,59.93946796825601,
images/exp2b_trial_42_colour3_distractors1_r.png,r,3,3,1,0,,,,,0,176,176,176,,,,,,,,,,,,,,,,,,,,,,,,,,,,,,,,,,,,,,,,,,,421.08333384999423,None,2,0.2707954880024772,421.08333384999423,None,,,,,,,,,,,,,,,,None,None,None,,None,None,421.4005629250023,None,3,1,0.5558108790137339,421.4005629250023,None,421.9505243059073,None,None,None,None,,06,001,2023_Jan_18_1349,searchDisc5,2021.2.3,59.93946796825601,
images/exp2a_trial_114_colour1_distractors19_l.png,l,1,1,19,0,,,,,0,177,177,177,,,,,,,,,,,,,,,,,,,,,,,,,,,,,,,,,,,,,,,,,,,421.96653739199974,None,2,0.28768501500599086,421.96653739199974,None,,,,,,,,,,,,,,,,None,None,None,,None,None,422.3004849049903,None,1,1,0.6699692830152344,422.3004849049903,None,422.96701762890444,None,None,None,None,,06,001,2023_Jan_18_1349,searchDisc5,2021.2.3,59.93946796825601,
images/exp1a_trial_229_colour2_distractors1_r.png,r,3,2,1,0,,,,,0,178,178,178,,,,,,,,,,,,,,,,,,,,,,,,,,,,,,,,,,,,,,,,,,,422.98362533201,None,2,0.30422258700127713,422.98362533201,None,,,,,,,,,,,,,,,,None,None,None,,None,None,423.33373993300484,None,3,1,0.5559318529849406,423.33373993300484,None,423.8838127009047,None,None,None,None,,06,001,2023_Jan_18_1349,searchDisc5,2021.2.3,59.93946796825601,
images/exp2b_trial_274_colour1_distractors19_l.png,l,1,1,19,0,,,,,0,179,179,179,,,,,,,,,,,,,,,,,,,,,,,,,,,,,,,,,,,,,,,,,,,423.8996942320082,None,2,0.27334641001652926,423.8996942320082,None,,,,,,,,,,,,,,,,None,None,None,,None,None,424.21719925600337,None,1,1,0.5849605569965206,424.21719925600337,None,424.8005372709129,None,None,None,None,,06,001,2023_Jan_18_1349,searchDisc5,2021.2.3,59.93946796825601,
images/exp2a_trial_204_colour3_distractors9_r.png,r,3,3,9,0,,,,,0,180,180,180,,,,,,,,,,,,,,,,,,,,,,,,,,,,,,,,,,,,,,,,,,,424.81901142999413,None,2,0.3232774219941348,424.81901142999413,None,,,,,,,,,,,,,,,,None,None,None,,None,None,425.18393673500395,None,3,1,0.7357788880181033,425.18393673500395,None,425.91740059391014,None,None,None,None,,06,001,2023_Jan_18_1349,searchDisc5,2021.2.3,59.93946796825601,
images/exp2c_trial_146_colour1_distractors19_l.png,l,1,1,19,0,,,,,0,181,181,181,,,,,,,,,,,,,,,,,,,,,,,,,,,,,,,,,,,,,,,,,,,425.9333190670004,None,2,0.2877293849887792,425.9333190670004,None,,,,,,,,,,,,,,,,None,None,None,,None,None,426.266680353001,None,1,1,0.537017647002358,426.266680353001,None,426.8006758818927,None,None,None,None,,06,001,2023_Jan_18_1349,searchDisc5,2021.2.3,59.93946796825601,
images/exp2c_trial_143_colour1_distractors1_l.png,l,1,1,1,0,,,,,0,182,182,182,,,,,,,,,,,,,,,,,,,,,,,,,,,,,,,,,,,,,,,,,,,426.81694829801563,None,2,0.337496974010719,426.81694829801563,None,,,,,,,,,,,,,,,,None,None,None,,None,None,427.2001298330142,None,1,1,0.591591052012518,427.2001298330142,None,427.78404131189455,None,None,None,None,,06,001,2023_Jan_18_1349,searchDisc5,2021.2.3,59.93946796825601,
images/exp2c_trial_291_colour1_distractors19_r.png,r,3,1,19,0,,,,,0,183,183,183,,,,,,,,,,,,,,,,,,,,,,,,,,,,,,,,,,,,,,,,,,,427.80016084501403,None,2,0.28602602900355123,427.80016084501403,None,,,,,,,,,,,,,,,,None,None,None,,None,None,428.13388580299215,None,3,1,0.6049706379999407,428.13388580299215,None,428.7339680079138,None,None,None,None,,06,001,2023_Jan_18_1349,searchDisc5,2021.2.3,59.93946796825601,
images/exp2b_trial_189_colour3_distractors31_l.png,l,1,3,31,0,,,,,0,184,184,184,,,,,,,,,,,,,,,,,,,,,,,,,,,,,,,,,,,,,,,,,,,428.7507581420068,None,2,0.2882721920032054,428.7507581420068,None,,,,,,,,,,,,,,,,None,None,None,,None,None,429.0858010080119,None,1,1,0.6344727230025455,429.0858010080119,None,429.71729804390344,None,None,None,None,,06,001,2023_Jan_18_1349,searchDisc5,2021.2.3,59.93946796825601,
images/exp2c_trial_181_colour2_distractors4_l.png,l,1,2,4,0,,,,,0,185,185,185,,,,,,,,,,,,,,,,,,,,,,,,,,,,,,,,,,,,,,,,,,,429.7334123819892,None,2,0.30666756400023587,429.7334123819892,None,,,,,,,,,,,,,,,,None,None,None,,None,None,430.08608636198915,None,1,1,0.6370119010098279,430.08608636198915,None,430.7175563468889,None,None,None,None,,06,001,2023_Jan_18_1349,searchDisc5,2021.2.3,59.93946796825601,
images/exp2c_trial_167_colour2_distractors9_r.png,r,3,2,9,0,,,,,0,186,186,186,,,,,,,,,,,,,,,,,,,,,,,,,,,,,,,,,,,,,,,,,,,430.73381303899805,None,2,0.2709960600186605,430.73381303899805,None,,,,,,,,,,,,,,,,None,None,None,,None,None,431.05297046899796,None,3,1,0.5887575919914525,431.05297046899796,None,431.6340473739081,None,None,None,None,,06,001,2023_Jan_18_1349,searchDisc5,2021.2.3,59.93946796825601,
images/exp1a_trial_216_colour2_distractors31_l.png,l,1,2,31,0,,,,,0,187,187,187,,,,,,,,,,,,,,,,,,,,,,,,,,,,,,,,,,,,,,,,,,,431.65052832700894,None,2,0.30431070501799695,431.65052832700894,None,,,,,,,,,,,,,,,,None,None,None,,None,None,432.0006033469981,None,1,1,0.683836590993451,432.0006033469981,None,432.6841676588927,None,None,None,None,,06,001,2023_Jan_18_1349,searchDisc5,2021.2.3,59.93946796825601,
images/exp1a_trial_15_colour1_distractors1_l.png,l,1,1,1,0,,,,,0,188,188,188,,,,,,,,,,,,,,,,,,,,,,,,,,,,,,,,,,,,,,,,,,,432.700468422001,None,2,0.32341392801026814,432.700468422001,None,,,,,,,,,,,,,,,,None,None,None,,None,None,433.0694852780143,None,1,1,0.8707581170019694,433.0694852780143,None,433.93404985988747,None,None,None,None,,06,001,2023_Jan_18_1349,searchDisc5,2021.2.3,59.93946796825601,
images/exp1a_trial_21_colour2_distractors4_l.png,l,1,2,4,0,,,,,0,189,189,189,,,,,,,,,,,,,,,,,,,,,,,,,,,,,,,,,,,,,,,,,,,433.95069239501026,None,2,0.3206832720024977,433.95069239501026,None,,,,,,,,,,,,,,,,None,None,None,,None,None,434.3175087010022,None,1,1,0.538461645017378,434.3175087010022,None,434.850873327913,None,None,None,None,,06,001,2023_Jan_18_1349,searchDisc5,2021.2.3,59.93946796825601,
images/exp1a_trial_177_colour1_distractors9_l.png,l,1,1,9,0,,,,,0,190,190,190,,,,,,,,,,,,,,,,,,,,,,,,,,,,,,,,,,,,,,,,,,,434.86737620300846,None,2,0.2711534860136453,434.86737620300846,None,,,,,,,,,,,,,,,,None,None,None,,None,None,435.186478913005,None,1,1,0.9373048009874765,435.186478913005,None,436.11782823591494,None,None,None,None,,06,001,2023_Jan_18_1349,searchDisc5,2021.2.3,59.93946796825601,
images/exp2b_trial_68_colour1_distractors31_r.png,r,3,1,31,0,,,,,0,191,191,191,,,,,,,,,,,,,,,,,,,,,,,,,,,,,,,,,,,,,,,,,,,436.1339600229985,None,2,0.2562657759990543,436.1339600229985,None,,,,,,,,,,,,,,,,None,None,None,,None,None,436.4343515720102,None,3,1,1.2176946279942058,436.4343515720102,None,437.6509341788886,None,None,None,None,,06,001,2023_Jan_18_1349,searchDisc5,2021.2.3,59.93946796825601,
images/exp2a_trial_245_colour2_distractors4_l.png,l,1,2,4,0,,,,,0,192,192,192,,,,,,,,,,,,,,,,,,,,,,,,,,,,,,,,,,,,,,,,,,,437.66720602399437,None,2,0.30433175701182336,437.66720602399437,None,,,,,,,,,,,,,,,,None,None,None,,None,None,438.01757805401576,None,1,1,0.953576204017736,438.01757805401576,None,438.9676873229153,None,None,None,None,,06,001,2023_Jan_18_1349,searchDisc5,2021.2.3,59.93946796825601,
images/exp1a_trial_88_colour2_distractors31_l.png,l,1,2,31,0,,,,,0,193,193,193,,,,,,,,,,,,,,,,,,,,,,,,,,,,,,,,,,,,,,,,,,,438.98376009298954,None,2,0.27109585399739444,438.98376009298954,None,,,,,,,,,,,,,,,,None,None,None,,None,None,439.3001973440114,None,1,1,0.7663384949846659,439.3001973440114,None,440.06749986290816,None,None,None,None,,06,001,2023_Jan_18_1349,searchDisc5,2021.2.3,59.93946796825601,
images/exp1a_trial_38_colour2_distractors4_r.png,r,3,2,4,0,,,,,0,194,194,194,,,,,,,,,,,,,,,,,,,,,,,,,,,,,,,,,,,,,,,,,,,440.08571059899987,None,2,0.25631548499222845,440.08571059899987,None,,,,,,,,,,,,,,,,None,None,None,,None,None,440.3838213260169,None,3,1,0.6217329489882104,440.3838213260169,None,441.000961100898,None,None,None,None,,06,001,2023_Jan_18_1349,searchDisc5,2021.2.3,59.93946796825601,
images/exp1a_trial_204_colour3_distractors9_r.png,r,3,3,9,0,,,,,0,195,195,195,,,,,,,,,,,,,,,,,,,,,,,,,,,,,,,,,,,,,,,,,,,441.0189767900156,None,2,0.2689425789867528,441.0189767900156,None,,,,,,,,,,,,,,,,None,None,None,,None,None,441.3341078629892,None,3,1,0.5869706780067645,441.3341078629892,None,441.91781447389513,None,None,None,None,,06,001,2023_Jan_18_1349,searchDisc5,2021.2.3,59.93946796825601,
images/exp2a_trial_267_colour3_distractors4_r.png,r,3,3,4,0,,,,,0,196,196,196,,,,,,,,,,,,,,,,,,,,,,,,,,,,,,,,,,,,,,,,,,,441.93423772999085,None,2,0.22348163297283463,441.93423772999085,None,,,,,,,,,,,,,,,,None,None,None,,None,None,442.2028449260106,None,3,1,0.7864553170220461,442.2028449260106,None,442.9843328108953,None,None,None,None,,06,001,2023_Jan_18_1349,searchDisc5,2021.2.3,59.93946796825601,
images/exp2c_trial_111_colour1_distractors1_l.png,l,1,1,1,0,,,,,0,197,197,197,,,,,,,,,,,,,,,,,,,,,,,,,,,,,,,,,,,,,,,,,,,443.0003862710146,None,2,0.2871862940082792,443.0003862710146,None,,,,,,,,,,,,,,,,None,None,None,,None,None,443.33449669601396,None,1,1,0.7555051860108506,443.33449669601396,None,444.08429402789335,None,None,None,None,,06,001,2023_Jan_18_1349,searchDisc5,2021.2.3,59.93946796825601,
images/exp2b_trial_214_colour2_distractors9_l.png,l,1,2,9,0,,,,,0,198,198,198,,,,,,,,,,,,,,,,,,,,,,,,,,,,,,,,,,,,,,,,,,,444.102325490996,None,2,0.23827927498496138,444.102325490996,None,,,,,,,,,,,,,,,,None,None,None,,None,None,444.38425411999924,None,1,1,0.554559723008424,444.38425411999924,None,444.93395572188894,None,None,None,None,,06,001,2023_Jan_18_1349,searchDisc5,2021.2.3,59.93946796825601,
images/exp2b_trial_116_colour2_distractors1_l.png,l,1,2,1,0,,,,,0,199,199,199,,,,,,,,,,,,,,,,,,,,,,,,,,,,,,,,,,,,,,,,,,,444.95012368800235,None,2,0.20699271600460634,444.95012368800235,None,,,,,,,,,,,,,,,,None,None,None,,None,None,445.2028320120007,None,1,1,0.7045341979828663,445.2028320120007,None,445.90132330990747,None,None,None,None,,06,001,2023_Jan_18_1349,searchDisc5,2021.2.3,59.93946796825601,
images/exp2c_trial_244_colour2_distractors1_l.png,l,1,2,1,0,,,,,0,200,200,200,,,,,,,,,,,,,,,,,,,,,,,,,,,,,,,,,,,,,,,,,,,445.918139654008,None,2,0.3879996180185117,445.918139654008,None,,,,,,,,,,,,,,,,None,None,None,,None,None,446.35334266201244,None,1,1,0.5218266750162002,446.35334266201244,None,446.8679010078893,None,None,None,None,,06,001,2023_Jan_18_1349,searchDisc5,2021.2.3,59.93946796825601,
images/exp2b_trial_64_colour1_distractors1_r.png,r,3,1,1,0,,,,,0,201,201,201,,,,,,,,,,,,,,,,,,,,,,,,,,,,,,,,,,,,,,,,,,,446.88445573399076,None,2,0.37226906200521626,446.88445573399076,None,,,,,,,,,,,,,,,,None,None,None,,None,None,447.3022061540105,None,3,1,0.7549855379911605,447.3022061540105,None,448.0512656108884,None,None,None,None,,06,001,2023_Jan_18_1349,searchDisc5,2021.2.3,59.93946796825601,
images/exp1a_trial_222_colour0_distractors0_r.png,r,3,0,0,0,,,,,0,202,202,202,,,,,,,,,,,,,,,,,,,,,,,,,,,,,,,,,,,,,,,,,,,448.0684849480167,None,2,0.3240017720090691,448.0684849480167,None,,,,,,,,,,,,,,,,None,None,None,,None,None,448.4354217789951,None,3,1,0.5022772679803893,448.4354217789951,None,448.934528359893,None,None,None,None,,06,001,2023_Jan_18_1349,searchDisc5,2021.2.3,59.93946796825601,
images/exp1a_trial_310_colour2_distractors9_l.png,l,1,2,9,0,,,,,0,203,203,203,,,,,,,,,,,,,,,,,,,,,,,,,,,,,,,,,,,,,,,,,,,448.9517004410154,None,2,0.33895411097910255,448.9517004410154,None,,,,,,,,,,,,,,,,None,None,None,,None,None,449.3373430430074,None,1,1,0.5017474170017522,449.3373430430074,None,449.83468174790033,None,None,None,None,,06,001,2023_Jan_18_1349,searchDisc5,2021.2.3,59.93946796825601,
images/exp1a_trial_185_colour3_distractors1_l.png,l,1,3,1,0,,,,,0,204,204,204,,,,,,,,,,,,,,,,,,,,,,,,,,,,,,,,,,,,,,,,,,,449.85109793700394,None,2,0.3046019930043258,449.85109793700394,None,,,,,,,,,,,,,,,,None,None,None,,None,None,450.2023587700096,None,1,1,0.6226561999937985,450.2023587700096,None,450.81811986390386,None,None,None,None,,06,001,2023_Jan_18_1349,searchDisc5,2021.2.3,59.93946796825601,
images/exp2b_trial_179_colour1_distractors31_l.png,l,1,1,31,0,,,,,0,205,205,205,,,,,,,,,,,,,,,,,,,,,,,,,,,,,,,,,,,,,,,,,,,450.83479060800164,None,2,0.2704636089911219,450.83479060800164,None,,,,,,,,,,,,,,,,None,None,None,,None,None,451.15135098600877,None,1,1,0.6233502750110347,451.15135098600877,None,451.7691311719071,None,None,None,None,,06,001,2023_Jan_18_1349,searchDisc5,2021.2.3,59.93946796825601,
images/exp1a_trial_109_colour3_distractors19_r.png,r,3,3,19,0,,,,,0,206,206,206,,,,,,,,,,,,,,,,,,,,,,,,,,,,,,,,,,,,,,,,,,,451.7865458280139,None,2,0.31863543001236394,451.7865458280139,None,,,,,,,,,,,,,,,,None,None,None,,None,None,452.1518898369977,None,3,1,0.6203338390041608,452.1518898369977,None,452.7682410788955,None,None,None,None,,06,001,2023_Jan_18_1349,searchDisc5,2021.2.3,59.93946796825601,
images/exp2b_trial_303_colour1_distractors1_l.png,l,1,1,1,0,,,,,0,207,207,207,,,,,,,,,,,,,,,,,,,,,,,,,,,,,,,,,,,,,,,,,,,452.78735478399904,None,2,0.3185636780108325,452.78735478399904,None,,,,,,,,,,,,,,,,None,None,None,,None,None,453.1518763710046,None,1,1,0.639882741990732,453.1518763710046,None,453.7847205668921,None,None,None,None,,06,001,2023_Jan_18_1349,searchDisc5,2021.2.3,59.93946796825601,
images/exp1a_trial_124_colour3_distractors19_l.png,l,1,3,19,0,,,,,0,208,208,208,,,,,,,,,,,,,,,,,,,,,,,,,,,,,,,,,,,,,,,,,,,453.8017200489994,None,2,0.3234547360043507,453.8017200489994,None,,,,,,,,,,,,,,,,None,None,None,,None,None,454.16907515900675,None,1,1,0.667753340996569,454.16907515900675,None,454.83686225390994,None,None,None,None,,06,001,2023_Jan_18_1349,searchDisc5,2021.2.3,59.93946796825601,
images/exp2a_trial_46_colour3_distractors31_r.png,r,3,3,31,0,,,,,0,209,209,209,,,,,,,,,,,,,,,,,,,,,,,,,,,,,,,,,,,,,,,,,,,454.8539561340003,None,2,0.286638793972088,454.8539561340003,None,,,,,,,,,,,,,,,,None,None,None,,None,None,455.1840324990044,None,3,1,0.7517421710072085,455.1840324990044,None,455.9348566719098,None,None,None,None,,06,001,2023_Jan_18_1349,searchDisc5,2021.2.3,59.93946796825601,
images/exp2a_trial_286_colour0_distractors0_r.png,r,3,0,0,0,,,,,0,210,210,210,,,,,,,,,,,,,,,,,,,,,,,,,,,,,,,,,,,,,,,,,,,455.9546072120138,None,2,0.3546700790175237,455.9546072120138,None,,,,,,,,,,,,,,,,None,None,None,,None,None,456.35468566798954,None,3,1,0.5384472110017668,456.35468566798954,None,456.88483708489804,None,None,None,None,,06,001,2023_Jan_18_1349,searchDisc5,2021.2.3,59.93946796825601,
images/exp2c_trial_304_colour1_distractors4_l.png,l,1,1,4,0,,,,,0,211,211,211,,,,,,,,,,,,,,,,,,,,,,,,,,,,,,,,,,,,,,,,,,,456.9016993989935,None,2,0.3555808259989135,456.9016993989935,None,,,,,,,,,,,,,,,,None,None,None,,None,None,457.3019488400023,None,1,1,0.9540735040209256,457.3019488400023,None,458.2510828678904,None,None,None,None,,06,001,2023_Jan_18_1349,searchDisc5,2021.2.3,59.93946796825601,
images/exp2b_trial_211_colour1_distractors31_l.png,l,1,1,31,0,,,,,0,212,212,212,,,,,,,,,,,,,,,,,,,,,,,,,,,,,,,,,,,,,,,,,,,458.26800012399326,None,2,0.2894964879960753,458.26800012399326,None,,,,,,,,,,,,,,,,None,None,None,,None,None,458.6046222290024,None,1,1,0.6845985880063381,458.6046222290024,None,459.2849643878988,None,None,None,None,,06,001,2023_Jan_18_1349,searchDisc5,2021.2.3,59.93946796825601,
images/exp1a_trial_305_colour1_distractors9_l.png,l,1,1,9,0,,,,,0,213,213,213,,,,,,,,,,,,,,,,,,,,,,,,,,,,,,,,,,,,,,,,,,,459.3014281950018,None,2,0.27130497799953446,459.3014281950018,None,,,,,,,,,,,,,,,,None,None,None,,None,None,459.6209421780077,None,1,1,0.7878483009990305,459.6209421780077,None,460.40166994889734,None,None,None,None,,06,001,2023_Jan_18_1349,searchDisc5,2021.2.3,59.93946796825601,
images/exp2b_trial_79_colour1_distractors1_l.png,l,1,1,1,0,,,,,0,214,214,214,,,,,,,,,,,,,,,,,,,,,,,,,,,,,,,,,,,,,,,,,,,460.4187884069979,None,2,0.25535611901432276,460.4187884069979,None,,,,,,,,,,,,,,,,None,None,None,,None,None,460.718511271989,None,1,1,0.45630487400921993,460.718511271989,None,461.1691014288925,None,None,None,None,,06,001,2023_Jan_18_1349,searchDisc5,2021.2.3,59.93946796825601,
images/exp1a_trial_234_colour3_distractors1_r.png,r,3,3,1,0,,,,,0,215,215,215,,,,,,,,,,,,,,,,,,,,,,,,,,,,,,,,,,,,,,,,,,,461.18529410200426,None,2,0.27343953397939913,461.18529410200426,None,,,,,,,,,,,,,,,,None,None,None,,None,None,461.50366499400116,None,3,1,0.5192007900041062,461.50366499400116,None,462.0184149778914,None,None,None,None,,06,001,2023_Jan_18_1349,searchDisc5,2021.2.3,59.93946796825601,
images/exp2c_trial_220_colour3_distractors19_l.png,l,1,3,19,0,,,,,0,216,216,216,,,,,,,,,,,,,,,,,,,,,,,,,,,,,,,,,,,,,,,,,,,462.03546447498957,None,2,0.24001462198793888,462.03546447498957,None,,,,,,,,,,,,,,,,None,None,None,,None,None,462.3209240169963,None,1,1,0.7515232269943226,462.3209240169963,None,463.0684803158918,None,None,None,None,,06,001,2023_Jan_18_1349,searchDisc5,2021.2.3,59.93946796825601,
images/exp1a_trial_11_colour3_distractors4_r.png,r,3,3,4,0,,,,,0,217,217,217,,,,,,,,,,,,,,,,,,,,,,,,,,,,,,,,,,,,,,,,,,,463.085639988014,None,2,0.25719832500908524,463.085639988014,None,,,,,,,,,,,,,,,,None,None,None,,None,None,463.38710554200225,None,3,1,0.6516940839937888,463.38710554200225,None,464.0351615118969,None,None,None,None,,06,001,2023_Jan_18_1349,searchDisc5,2021.2.3,59.93946796825601,
images/exp1a_trial_196_colour1_distractors31_r.png,r,3,1,31,0,,,,,0,218,218,218,,,,,,,,,,,,,,,,,,,,,,,,,,,,,,,,,,,,,,,,,,,464.05171902800794,None,2,0.24057737799012102,464.05171902800794,None,,,,,,,,,,,,,,,,None,None,None,,None,None,464.3389172239986,None,3,1,0.6626947840268258,464.3389172239986,None,465.0018077909015,None,None,None,None,,06,001,2023_Jan_18_1349,searchDisc5,2021.2.3,59.93946796825601,
images/exp1a_trial_52_colour2_distractors1_l.png,l,1,2,1,0,,,,,0,219,219,219,,,,,,,,,,,,,,,,,,,,,,,,,,,,,,,,,,,,,,,,,,,465.0183514379896,None,2,0.2544182519777678,465.0183514379896,None,,,,,,,,,,,,,,,,None,None,None,,None,None,465.31837605300825,None,1,1,0.6066148849786259,465.31837605300825,None,465.9182198339084,None,None,None,None,,06,001,2023_Jan_18_1349,searchDisc5,2021.2.3,59.93946796825601,
images/exp1a_trial_159_colour0_distractors0_l.png,l,1,0,0,0,,,,,0,220,220,220,,,,,,,,,,,,,,,,,,,,,,,,,,,,,,,,,,,,,,,,,,,465.9353524270118,None,2,0.2380496310070157,465.9353524270118,None,,,,,,,,,,,,,,,,None,None,None,,None,None,466.218695684016,None,1,1,0.5740873829927295,466.218695684016,None,466.78618073991385,None,None,None,None,,06,001,2023_Jan_18_1349,searchDisc5,2021.2.3,59.93946796825601,
images/exp1a_trial_232_colour2_distractors19_r.png,r,3,2,19,0,,,,,0,221,221,221,,,,,,,,,,,,,,,,,,,,,,,,,,,,,,,,,,,,,,,,,,,466.8010844019882,None,2,0.20576471800450236,466.8010844019882,None,,,,,,,,,,,,,,,,None,None,None,,None,None,467.05171288299607,None,3,1,0.6842640510003548,467.05171288299607,None,467.7362680129125,None,None,None,None,,06,001,2023_Jan_18_1349,searchDisc5,2021.2.3,59.93946796825601,
images/exp2a_trial_150_colour2_distractors9_l.png,l,1,2,9,0,,,,,0,222,222,222,,,,,,,,,,,,,,,,,,,,,,,,,,,,,,,,,,,,,,,,,,,467.7508475439972,None,2,0.2197030600218568,467.7508475439972,None,,,,,,,,,,,,,,,,None,None,None,,None,None,468.0183774640027,None,1,1,0.7013055020070169,468.0183774640027,None,468.718509780895,None,None,None,None,,06,001,2023_Jan_18_1349,searchDisc5,2021.2.3,59.93946796825601,
images/exp2a_trial_167_colour2_distractors9_r.png,r,3,2,9,0,,,,,0,223,223,223,,,,,,,,,,,,,,,,,,,,,,,,,,,,,,,,,,,,,,,,,,,468.7347529240069,None,2,0.2572721109900158,468.7347529240069,None,,,,,,,,,,,,,,,,None,None,None,,None,None,469.0352141520125,None,3,1,0.6490958840004168,469.0352141520125,None,469.68537649190404,None,None,None,None,,06,001,2023_Jan_18_1349,searchDisc5,2021.2.3,59.93946796825601,
images/exp2c_trial_104_colour2_distractors19_r.png,r,3,2,19,0,,,,,0,224,224,224,,,,,,,,,,,,,,,,,,,,,,,,,,,,,,,,,,,,,,,,,,,469.70165877600084,None,2,0.2537020309828222,469.70165877600084,None,,,,,,,,,,,,,,,,None,None,None,,None,None,470.0048434330092,None,3,1,0.6364405409840401,470.0048434330092,None,470.63527050790145,None,None,None,None,,06,001,2023_Jan_18_1349,searchDisc5,2021.2.3,59.93946796825601,
