ImageFile,targ_side,correctAnswer,colour,distNo,targetType,trials_2.thisRepN,trials_2.thisTrialN,trials_2.thisN,trials_2.thisIndex,trials.thisRepN,trials.thisTrialN,trials.thisN,trials.thisIndex,text_6.started,text_6.stopped,buttonBox.keys,buttonBox.rt,buttonBox.started,buttonBox.stopped,text_7.started,text_7.stopped,buttonBox_3.keys,buttonBox_3.rt,buttonBox_3.started,buttonBox_3.stopped,text_8.started,text_8.stopped,buttonBox_4.keys,buttonBox_4.rt,buttonBox_4.started,buttonBox_4.stopped,text_9.started,text_9.stopped,buttonBox_5.keys,buttonBox_5.rt,buttonBox_5.started,buttonBox_5.stopped,text_2.started,text_2.stopped,buttonBox_6.keys,buttonBox_6.rt,buttonBox_6.started,buttonBox_6.stopped,text_5.started,text_5.stopped,buttonBox_7.keys,buttonBox_7.rt,image_2.started,image_2.stopped,image_3.started,image_3.stopped,buttonBox_8.keys,buttonBox_8.rt,buttonBox_8.started,buttonBox_8.stopped,polygon.started,polygon.stopped,buttonBox_9.keys,buttonBox_9.rt,buttonBox_9.started,buttonBox_9.stopped,image.started,image.stopped,buttonBox_10.keys,buttonBox_10.corr,buttonBox_10.rt,buttonBox_10.started,buttonBox_10.stopped,text_4.started,text_4.stopped,text.started,text.stopped,buttonBox_11.keys,buttonBox_11.rt,buttonBox_11.started,buttonBox_11.stopped,targetTypeInstruction.started,targetTypeInstruction.stopped,buttonBox_2.keys,buttonBox_2.rt,buttonBox_2.started,buttonBox_2.stopped,dispStimuli.started,dispStimuli.stopped,buttonBox_12.keys,buttonBox_12.corr,buttonBox_12.rt,buttonBox_12.started,buttonBox_12.stopped,breakMessage.started,breakMessage.stopped,buttonBox_13.keys,buttonBox_13.started,buttonBox_13.stopped,buttonBox_13.rt,participant,session,date,expName,psychopyVersion,frameRate,
,,,,,,,,,,,,,,26.11966847901931,None,2,61.43645084698801,26.11966847901931,None,,,,,,,,,,,,,,,,,,,,,,,,,,,,,,,,,,,,,,,,,,,,,,,,,,,,,,,,,,,,,,,,,,,,,,,,,,,,,09,001,2023_Jan_19_1052,searchDisc5,2021.2.3,59.95381434260505,
,,,,,,,,,,,,,,,,,,,,87.55431367401616,None,2,11.995296320004854,87.55431367401616,None,,,,,,,,,,,,,,,,,,,,,,,,,,,,,,,,,,,,,,,,,,,,,,,,,,,,,,,,,,,,,,,,,,,,,,,09,001,2023_Jan_19_1052,searchDisc5,2021.2.3,59.95381434260505,
,,,,,,,,,,,,,,,,,,,,,,,,,,99.55221497602179,None,2,2.630405078001786,99.55221497602179,None,,,,,,,,,,,,,,,,,,,,,,,,,,,,,,,,,,,,,,,,,,,,,,,,,,,,,,,,,,,,,,,,,09,001,2023_Jan_19_1052,searchDisc5,2021.2.3,59.95381434260505,
,,,,,,,,,,,,,,,,,,,,,,,,,,,,,,,,102.18588829500368,None,2,5.049618860008195,102.18588829500368,None,,,,,,,,,,,,,,,,,,,,,,,,,,,,,,,,,,,,,,,,,,,,,,,,,,,,,,,,,,,09,001,2023_Jan_19_1052,searchDisc5,2021.2.3,59.95381434260505,
,,,,,,,,,,,,,,,,,,,,,,,,,,,,,,,,,,,,,,107.23799775601947,None,2,28.667523500014795,108.22135562400217,None,,,,,,,,,,,,,,,,,,,,,,,,,,,,,,,,,,,,,,,,,,,,,,,,,,,,,09,001,2023_Jan_19_1052,searchDisc5,2021.2.3,59.95381434260505,
,,,,,,,,,,,,,,,,,,,,,,,,,,,,,,,,,,,,,,,,,,,,136.88891305500874,None,2,8.017069032997824,,,,,,,,,,,,,,,,,,,,,,,,,,,,,,,,,,,,,,,,,,,,,,,,,09,001,2023_Jan_19_1052,searchDisc5,2021.2.3,59.95381434260505,
,,,,,,,,,,,,,,,,,,,,,,,,,,,,,,,,,,,,,,,,,,,,,,,,147.92264674699982,None,147.92264674699982,None,2,6.064473909005756,147.92264674699982,None,,,,,,,,,,,,,,,,,,,,,,,,,,,,,,,,,,,,,,,,,09,001,2023_Jan_19_1052,searchDisc5,2021.2.3,59.95381434260505,
Practice arrays/exp1a_trial_12_colour3_distractors9_r.png,r,3,,,,0,0,0,5,,,,,,,,,,,,,,,,,,,,,,,,,,,,,,,,,,,,,,,,,,,,,,,154.00409421900986,None,2,4.597951780015137,154.00409421900986,None,158.65637600401533,None,3,1,0.969426311989082,158.65637600401533,None,159.62000645400258,None,,,,,,,,,,,,,,,,,,,,,,,,,,09,001,2023_Jan_19_1052,searchDisc5,2021.2.3,59.95381434260505,
Practice arrays/exp1a_trial_17_colour1_distractors9_l.png,l,1,,,,0,1,1,7,,,,,,,,,,,,,,,,,,,,,,,,,,,,,,,,,,,,,,,,,,,,,,,161.6226884140051,None,2,3.099061001004884,161.6226884140051,None,164.77119159299764,None,1,1,0.6486823599843774,164.77119159299764,None,165.4210938650067,None,,,,,,,,,,,,,,,,,,,,,,,,,,09,001,2023_Jan_19_1052,searchDisc5,2021.2.3,59.95381434260505,
Practice arrays/exp1a_trial_14_colour3_distractors31_r.png,r,3,,,,0,2,2,6,,,,,,,,,,,,,,,,,,,,,,,,,,,,,,,,,,,,,,,,,,,,,,,167.4227602489991,None,2,1.0991643799934536,167.4227602489991,None,168.5737355070014,None,1,0,0.8977980659983587,168.5737355070014,None,169.47111043700716,None,,,,,,,,,,,,,,,,,,,,,,,,,,09,001,2023_Jan_19_1052,searchDisc5,2021.2.3,59.95381434260505,
Practice arrays/exp1a_trial_8_colour2_distractors19_r.png,r,3,,,,0,3,3,3,,,,,,,,,,,,,,,,,,,,,,,,,,,,,,,,,,,,,,,,,,,,,,,171.4732349489932,None,2,0.5330691160052083,171.4732349489932,None,172.0546161920065,None,3,1,0.9146722509758547,172.0546161920065,None,172.9712681460078,None,,,,,,,,,,,,,,,,,,,,,,,,,,09,001,2023_Jan_19_1052,searchDisc5,2021.2.3,59.95381434260505,
Practice arrays/exp1a_trial_0_colour1_distractors1_r.png,r,3,,,,0,4,4,0,,,,,,,,,,,,,,,,,,,,,,,,,,,,,,,,,,,,,,,,,,,,,,,174.9728371850215,None,2,1.6972773970046546,174.9728371850215,None,176.72156043100404,None,3,1,0.6712400699907448,176.72156043100404,None,177.38793795299716,None,,,,,,,,,,,,,,,,,,,,,,,,,,09,001,2023_Jan_19_1052,searchDisc5,2021.2.3,59.95381434260505,
Practice arrays/exp1a_trial_1_colour1_distractors4_r.png,r,3,,,,0,5,5,1,,,,,,,,,,,,,,,,,,,,,,,,,,,,,,,,,,,,,,,,,,,,,,,179.39024743600748,None,2,0.563946024980396,179.39024743600748,None,180.00445146800485,None,3,1,0.7863429290009663,180.00445146800485,None,180.788045918016,None,,,,,,,,,,,,,,,,,,,,,,,,,,09,001,2023_Jan_19_1052,searchDisc5,2021.2.3,59.95381434260505,
Practice arrays/exp1a_trial_30_colour0_distractors0_r.png,r,3,,,,0,6,6,14,,,,,,,,,,,,,,,,,,,,,,,,,,,,,,,,,,,,,,,,,,,,,,,182.79028764701798,None,2,0.5996200489753392,182.79028764701798,None,183.43834773401613,None,3,1,0.6695679459953681,183.43834773401613,None,184.1047348669963,None,,,,,,,,,,,,,,,,,,,,,,,,,,09,001,2023_Jan_19_1052,searchDisc5,2021.2.3,59.95381434260505,
Practice arrays/exp1a_trial_7_colour2_distractors9_r.png,r,3,,,,0,7,7,2,,,,,,,,,,,,,,,,,,,,,,,,,,,,,,,,,,,,,,,,,,,,,,,186.10647373701795,None,2,0.613812509982381,186.10647373701795,None,186.77168014200288,None,3,1,0.5359430350072216,186.77168014200288,None,187.30503003601916,None,,,,,,,,,,,,,,,,,,,,,,,,,,09,001,2023_Jan_19_1052,searchDisc5,2021.2.3,59.95381434260505,
Practice arrays/exp1a_trial_31_colour0_distractors0_l.png,l,1,,,,0,8,8,15,,,,,,,,,,,,,,,,,,,,,,,,,,,,,,,,,,,,,,,,,,,,,,,189.30713828399894,None,2,0.563809349987423,189.30713828399894,None,189.92168162300368,None,3,0,0.6384571450180374,189.92168162300368,None,190.5550485099957,None,,,,,,,,,,,,,,,,,,,,,,,,,,09,001,2023_Jan_19_1052,searchDisc5,2021.2.3,59.95381434260505,
Practice arrays/exp1a_trial_10_colour3_distractors1_r.png,r,3,,,,0,9,9,4,,,,,,,,,,,,,,,,,,,,,,,,,,,,,,,,,,,,,,,,,,,,,,,192.5567888719961,None,2,0.5471033389912918,192.5567888719961,None,193.15528426799574,None,3,1,0.6545285710017197,193.15528426799574,None,193.80493988501257,None,,,,,,,,,,,,,,,,,,,,,,,,,,09,001,2023_Jan_19_1052,searchDisc5,2021.2.3,59.95381434260505,
Practice arrays/exp1a_trial_27_colour3_distractors9_l.png,l,1,,,,0,10,10,12,,,,,,,,,,,,,,,,,,,,,,,,,,,,,,,,,,,,,,,,,,,,,,,195.8067372580117,None,2,0.5471513199736364,195.8067372580117,None,196.40535232101684,None,1,1,0.6506704060011543,196.40535232101684,None,197.05523825800628,None,,,,,,,,,,,,,,,,,,,,,,,,,,09,001,2023_Jan_19_1052,searchDisc5,2021.2.3,59.95381434260505,
Practice arrays/exp1a_trial_25_colour3_distractors1_l.png,l,1,,,,0,11,11,11,,,,,,,,,,,,,,,,,,,,,,,,,,,,,,,,,,,,,,,,,,,,,,,199.05677361099515,None,2,0.4472187430073973,199.05677361099515,None,199.55794478801545,None,1,1,0.7381934589939192,199.55794478801545,None,200.28834956602077,None,,,,,,,,,,,,,,,,,,,,,,,,,,09,001,2023_Jan_19_1052,searchDisc5,2021.2.3,59.95381434260505,
Practice arrays/exp1a_trial_21_colour2_distractors4_l.png,l,1,,,,0,12,12,9,,,,,,,,,,,,,,,,,,,,,,,,,,,,,,,,,,,,,,,,,,,,,,,202.29019262400107,None,2,0.413851302000694,202.29019262400107,None,202.75546923701768,None,1,1,0.606175415974576,202.75546923701768,None,203.35551746899728,None,,,,,,,,,,,,,,,,,,,,,,,,,,09,001,2023_Jan_19_1052,searchDisc5,2021.2.3,59.95381434260505,
Practice arrays/exp1a_trial_23_colour2_distractors19_l.png,l,1,,,,0,13,13,10,,,,,,,,,,,,,,,,,,,,,,,,,,,,,,,,,,,,,,,,,,,,,,,205.35783007999999,None,2,0.4135739460180048,205.35783007999999,None,205.8223612360016,None,1,1,0.6167036489932798,205.8223612360016,None,206.43870093900478,None,,,,,,,,,,,,,,,,,,,,,,,,,,09,001,2023_Jan_19_1052,searchDisc5,2021.2.3,59.95381434260505,
Practice arrays/exp1a_trial_16_colour1_distractors4_l.png,l,1,,,,0,14,14,13,,,,,,,,,,,,,,,,,,,,,,,,,,,,,,,,,,,,,,,,,,,,,,,208.4402773019974,None,2,0.3304177969985176,208.4402773019974,None,208.82431009600987,None,3,0,0.5373900599952321,208.82431009600987,None,209.35558005500934,None,,,,,,,,,,,,,,,,,,,,,,,,,,09,001,2023_Jan_19_1052,searchDisc5,2021.2.3,59.95381434260505,
Practice arrays/exp1a_trial_18_colour1_distractors19_l.png,l,1,,,,0,15,15,8,,,,,,,,,,,,,,,,,,,,,,,,,,,,,,,,,,,,,,,,,,,,,,,211.35760960300104,None,2,0.38270979799563065,211.35760960300104,None,211.78907662801794,None,1,1,0.8650114870106336,211.78907662801794,None,212.6556186650123,None,,,,,,,,,,,,,,,,,,,,,,,,,,09,001,2023_Jan_19_1052,searchDisc5,2021.2.3,59.95381434260505,
,,,,,,,,,,,,,,,,,,,,,,,,,,,,,,,,,,,,,,,,,,,,,,,,,,,,,,,,,,,,,,,,,,,,,,,214.74103663899587,None,2,5.081507287977729,215.7076605260081,None,,,,,,,,,,,,,,,,,,,,09,001,2023_Jan_19_1052,searchDisc5,2021.2.3,59.95381434260505,
images/exp1a_trial_97_colour1_distractors4_r.png,r,3,1,4,0,,,,,0,0,0,0,,,,,,,,,,,,,,,,,,,,,,,,,,,,,,,,,,,,,,,,,,,224.17227707899292,None,2,1.5791107759869192,224.17227707899292,None,,,,,,,,,,,,,,,,221.39094204100547,None,2,0.8145943449926563,223.3578208500112,None,225.80545921300654,None,3,1,0.9794559279980604,225.80545921300654,None,226.80631487021458,None,None,None,None,,09,001,2023_Jan_19_1052,searchDisc5,2021.2.3,59.95381434260505,
images/exp2c_trial_94_colour0_distractors0_r.png,r,3,0,0,0,,,,,0,1,1,1,,,,,,,,,,,,,,,,,,,,,,,,,,,,,,,,,,,,,,,,,,,226.82263465199503,None,2,0.7218437039991841,226.82263465199503,None,,,,,,,,,,,,,,,,None,None,None,,None,None,227.5914385250071,None,3,1,0.5522435950115323,227.5914385250071,None,228.13968683761487,None,None,None,None,,09,001,2023_Jan_19_1052,searchDisc5,2021.2.3,59.95381434260505,
images/exp2b_trial_304_colour1_distractors4_l.png,l,1,1,4,0,,,,,0,2,2,2,,,,,,,,,,,,,,,,,,,,,,,,,,,,,,,,,,,,,,,,,,,228.15557023501606,None,2,0.7049104539910331,228.15557023501606,None,,,,,,,,,,,,,,,,None,None,None,,None,None,228.90576595201856,None,1,1,0.7983915079967119,228.90576595201856,None,229.7062534346158,None,None,None,None,,09,001,2023_Jan_19_1052,searchDisc5,2021.2.3,59.95381434260505,
images/exp2c_trial_150_colour2_distractors9_l.png,l,1,2,9,0,,,,,0,3,3,3,,,,,,,,,,,,,,,,,,,,,,,,,,,,,,,,,,,,,,,,,,,229.72199800499948,None,2,0.50766093400307,229.72199800499948,None,,,,,,,,,,,,,,,,None,None,None,,None,None,230.27203137500328,None,1,1,0.6311007990152575,230.27203137500328,None,230.90633054860228,None,None,None,None,,09,001,2023_Jan_19_1052,searchDisc5,2021.2.3,59.95381434260505,
images/exp2b_trial_37_colour2_distractors1_r.png,r,3,2,1,0,,,,,0,4,4,4,,,,,,,,,,,,,,,,,,,,,,,,,,,,,,,,,,,,,,,,,,,230.92179211002076,None,2,0.4723942560085561,230.92179211002076,None,,,,,,,,,,,,,,,,None,None,None,,None,None,231.44111800199607,None,3,1,0.6193499909713864,231.44111800199607,None,232.0562067896215,None,None,None,None,,09,001,2023_Jan_19_1052,searchDisc5,2021.2.3,59.95381434260505,
images/exp2b_trial_254_colour0_distractors0_r.png,r,3,0,0,0,,,,,0,5,5,5,,,,,,,,,,,,,,,,,,,,,,,,,,,,,,,,,,,,,,,,,,,232.0725797690102,None,2,0.5699686069856398,232.0725797690102,None,,,,,,,,,,,,,,,,None,None,None,,None,None,232.69108834399958,None,3,1,0.6057943940104451,232.69108834399958,None,233.28977271960758,None,None,None,None,,09,001,2023_Jan_19_1052,searchDisc5,2021.2.3,59.95381434260505,
images/exp2b_trial_189_colour3_distractors31_l.png,l,1,3,31,0,,,,,0,6,6,6,,,,,,,,,,,,,,,,,,,,,,,,,,,,,,,,,,,,,,,,,,,233.3076829140191,None,2,0.6378282259975094,233.3076829140191,None,,,,,,,,,,,,,,,,None,None,None,,None,None,233.98966678700526,None,1,1,0.6494140400027391,233.98966678700526,None,234.63963389361453,None,None,None,None,,09,001,2023_Jan_19_1052,searchDisc5,2021.2.3,59.95381434260505,
images/exp2c_trial_159_colour0_distractors0_l.png,l,1,0,0,0,,,,,0,7,7,7,,,,,,,,,,,,,,,,,,,,,,,,,,,,,,,,,,,,,,,,,,,234.65607394801918,None,2,0.3880384369986132,234.65607394801918,None,,,,,,,,,,,,,,,,None,None,None,,None,None,235.0918007059954,None,1,1,0.5035760969913099,235.0918007059954,None,235.58966860660877,None,None,None,None,,09,001,2023_Jan_19_1052,searchDisc5,2021.2.3,59.95381434260505,
images/exp2c_trial_203_colour3_distractors4_r.png,r,3,3,4,0,,,,,0,8,8,8,,,,,,,,,,,,,,,,,,,,,,,,,,,,,,,,,,,,,,,,,,,235.60608469700674,None,2,0.33796159000485204,235.60608469700674,None,,,,,,,,,,,,,,,,None,None,None,,None,None,235.98905293800635,None,3,1,0.6704736310057342,235.98905293800635,None,236.65652192459385,None,None,None,None,,09,001,2023_Jan_19_1052,searchDisc5,2021.2.3,59.95381434260505,
images/exp2b_trial_106_colour3_distractors1_r.png,r,3,3,1,0,,,,,0,9,9,9,,,,,,,,,,,,,,,,,,,,,,,,,,,,,,,,,,,,,,,,,,,236.67488276600488,None,2,0.3708556279889308,236.67488276600488,None,,,,,,,,,,,,,,,,None,None,None,,None,None,237.0918226140202,None,3,1,0.5408112949808128,237.0918226140202,None,237.62319409261983,None,None,None,None,,09,001,2023_Jan_19_1052,searchDisc5,2021.2.3,59.95381434260505,
images/exp2c_trial_59_colour3_distractors9_l.png,l,1,3,9,0,,,,,0,10,10,10,,,,,,,,,,,,,,,,,,,,,,,,,,,,,,,,,,,,,,,,,,,237.63942025901633,None,2,0.40223709697602317,237.63942025901633,None,,,,,,,,,,,,,,,,None,None,None,,None,None,238.09160090301884,None,1,1,1.0706824039807543,238.09160090301884,None,239.156612763615,None,None,None,None,,09,001,2023_Jan_19_1052,searchDisc5,2021.2.3,59.95381434260505,
images/exp1a_trial_195_colour1_distractors19_r.png,r,3,1,19,0,,,,,0,11,11,11,,,,,,,,,,,,,,,,,,,,,,,,,,,,,,,,,,,,,,,,,,,239.17275828000857,None,2,0.3209058950014878,239.17275828000857,None,,,,,,,,,,,,,,,,None,None,None,,None,None,239.53926134700305,None,3,1,0.8835149880032986,239.53926134700305,None,240.42313707159775,None,None,None,None,,09,001,2023_Jan_19_1052,searchDisc5,2021.2.3,59.95381434260505,
images/exp2c_trial_28_colour3_distractors19_l.png,l,1,3,19,0,,,,,0,12,12,12,,,,,,,,,,,,,,,,,,,,,,,,,,,,,,,,,,,,,,,,,,,240.43950385600328,None,2,0.3545353389927186,240.43950385600328,None,,,,,,,,,,,,,,,,None,None,None,,None,None,240.83998784300638,None,1,1,0.8364129090041388,240.83998784300638,None,241.6731333436008,None,None,None,None,,09,001,2023_Jan_19_1052,searchDisc5,2021.2.3,59.95381434260505,
images/exp2b_trial_40_colour2_distractors19_r.png,r,3,2,19,0,,,,,0,13,13,13,,,,,,,,,,,,,,,,,,,,,,,,,,,,,,,,,,,,,,,,,,,241.68951007002033,None,2,0.3369277530000545,241.68951007002033,None,,,,,,,,,,,,,,,,None,None,None,,None,None,242.07271256300737,None,3,1,0.5369921929959673,242.07271256300737,None,242.6066925385938,None,None,None,None,,09,001,2023_Jan_19_1052,searchDisc5,2021.2.3,59.95381434260505,
images/exp2c_trial_208_colour1_distractors4_l.png,l,1,1,4,0,,,,,0,14,14,14,,,,,,,,,,,,,,,,,,,,,,,,,,,,,,,,,,,,,,,,,,,242.6229149980063,None,2,1.6378062970179599,242.6229149980063,None,,,,,,,,,,,,,,,,None,None,None,,None,None,244.30654618801782,None,1,1,0.4526058289920911,244.30654618801782,None,244.7567071696074,None,None,None,None,,09,001,2023_Jan_19_1052,searchDisc5,2021.2.3,59.95381434260505,
images/exp2c_trial_205_colour3_distractors19_r.png,r,3,3,19,0,,,,,0,15,15,15,,,,,,,,,,,,,,,,,,,,,,,,,,,,,,,,,,,,,,,,,,,244.77291557000717,None,2,0.406178188015474,244.77291557000717,None,,,,,,,,,,,,,,,,None,None,None,,None,None,245.2251157220162,None,3,1,1.03346116701141,245.2251157220162,None,246.25674610660354,None,None,None,None,,09,001,2023_Jan_19_1052,searchDisc5,2021.2.3,59.95381434260505,
images/exp2c_trial_210_colour1_distractors19_l.png,l,1,1,19,0,,,,,0,16,16,16,,,,,,,,,,,,,,,,,,,,,,,,,,,,,,,,,,,,,,,,,,,246.27301180700306,None,2,0.3711592099862173,246.27301180700306,None,,,,,,,,,,,,,,,,None,None,None,,None,None,246.69033042300725,None,1,1,0.5196595409943257,246.69033042300725,None,247.20686435559475,None,None,None,None,,09,001,2023_Jan_19_1052,searchDisc5,2021.2.3,59.95381434260505,
images/exp2c_trial_211_colour1_distractors31_l.png,l,1,1,31,0,,,,,0,17,17,17,,,,,,,,,,,,,,,,,,,,,,,,,,,,,,,,,,,,,,,,,,,247.22464915300952,None,2,0.38963593199150637,247.22464915300952,None,,,,,,,,,,,,,,,,None,None,None,,None,None,247.66065180499572,None,1,1,0.7292800469731446,247.66065180499572,None,248.39009695959686,None,None,None,None,,09,001,2023_Jan_19_1052,searchDisc5,2021.2.3,59.95381434260505,
images/exp2c_trial_139_colour3_distractors4_r.png,r,3,3,4,0,,,,,0,18,18,18,,,,,,,,,,,,,,,,,,,,,,,,,,,,,,,,,,,,,,,,,,,248.40648823301308,None,2,0.3879732189816423,248.40648823301308,None,,,,,,,,,,,,,,,,None,None,None,,None,None,248.8422435070097,None,1,0,0.7214009249873925,248.8422435070097,None,249.55678441159836,None,None,None,None,,09,001,2023_Jan_19_1052,searchDisc5,2021.2.3,59.95381434260505,
images/exp2b_trial_173_colour3_distractors19_r.png,r,3,3,19,0,,,,,0,19,19,19,,,,,,,,,,,,,,,,,,,,,,,,,,,,,,,,,,,,,,,,,,,249.57298641800298,None,2,0.5897805650020018,249.57298641800298,None,,,,,,,,,,,,,,,,None,None,None,,None,None,250.20930579400738,None,3,1,0.7510114219912793,250.20930579400738,None,250.956888505604,None,None,None,None,,09,001,2023_Jan_19_1052,searchDisc5,2021.2.3,59.95381434260505,
images/exp2b_trial_200_colour2_distractors19_r.png,r,3,2,19,0,,,,,0,20,20,20,,,,,,,,,,,,,,,,,,,,,,,,,,,,,,,,,,,,,,,,,,,250.97325917999842,None,2,0.37122222300968133,250.97325917999842,None,,,,,,,,,,,,,,,,None,None,None,,None,None,251.39232085301774,None,3,1,0.6352810460084584,251.39232085301774,None,252.0233640925988,None,None,None,None,,09,001,2023_Jan_19_1052,searchDisc5,2021.2.3,59.95381434260505,
images/exp2c_trial_149_colour2_distractors4_l.png,l,1,2,4,0,,,,,0,21,21,21,,,,,,,,,,,,,,,,,,,,,,,,,,,,,,,,,,,,,,,,,,,252.0399248629983,None,2,0.5047309920191765,252.0399248629983,None,,,,,,,,,,,,,,,,None,None,None,,None,None,252.58976874800283,None,1,1,0.5879024019814096,252.58976874800283,None,253.17364612561943,None,None,None,None,,09,001,2023_Jan_19_1052,searchDisc5,2021.2.3,59.95381434260505,
images/exp1a_trial_200_colour2_distractors19_r.png,r,3,2,19,0,,,,,0,22,22,22,,,,,,,,,,,,,,,,,,,,,,,,,,,,,,,,,,,,,,,,,,,253.19185042500612,None,2,0.42321452297619544,253.19185042500612,None,,,,,,,,,,,,,,,,None,None,None,,None,None,253.65675480102072,None,3,1,0.7980818079959136,253.65675480102072,None,254.45621869861208,None,None,None,None,,09,001,2023_Jan_19_1052,searchDisc5,2021.2.3,59.95381434260505,
images/exp1a_trial_71_colour2_distractors9_r.png,r,3,2,9,0,,,,,0,23,23,23,,,,,,,,,,,,,,,,,,,,,,,,,,,,,,,,,,,,,,,,,,,254.47279319100198,None,2,0.40506233999622054,254.47279319100198,None,,,,,,,,,,,,,,,,None,None,None,,None,None,254.92355555001996,None,3,1,0.5198866300052032,254.92355555001996,None,255.44023886261567,None,None,None,None,,09,001,2023_Jan_19_1052,searchDisc5,2021.2.3,59.95381434260505,
images/exp2a_trial_318_colour0_distractors0_r.png,r,3,0,0,0,,,,,0,24,24,24,,,,,,,,,,,,,,,,,,,,,,,,,,,,,,,,,,,,,,,,,,,255.45657084501,None,2,0.4031896350206807,255.45657084501,None,,,,,,,,,,,,,,,,None,None,None,,None,None,255.90879825199954,None,3,1,0.48913374700350687,255.90879825199954,None,256.390520124606,None,None,None,None,,09,001,2023_Jan_19_1052,searchDisc5,2021.2.3,59.95381434260505,
images/exp2a_trial_102_colour2_distractors4_r.png,r,3,2,4,0,,,,,0,25,25,25,,,,,,,,,,,,,,,,,,,,,,,,,,,,,,,,,,,,,,,,,,,256.4067417400074,None,2,0.42532567397574894,256.4067417400074,None,,,,,,,,,,,,,,,,None,None,None,,None,None,256.87556691499776,None,3,1,1.1658656029903796,256.87556691499776,None,258.0403808756062,None,None,None,None,,09,001,2023_Jan_19_1052,searchDisc5,2021.2.3,59.95381434260505,
images/exp2c_trial_172_colour3_distractors9_r.png,r,3,3,9,0,,,,,0,26,26,26,,,,,,,,,,,,,,,,,,,,,,,,,,,,,,,,,,,,,,,,,,,258.0564802089939,None,2,0.37125817098421976,258.0564802089939,None,,,,,,,,,,,,,,,,None,None,None,,None,None,258.47585296901525,None,3,1,1.0024209819966927,258.47585296901525,None,259.4730916696106,None,None,None,None,,09,001,2023_Jan_19_1052,searchDisc5,2021.2.3,59.95381434260505,
images/exp2b_trial_119_colour2_distractors19_l.png,l,1,2,19,0,,,,,0,27,27,27,,,,,,,,,,,,,,,,,,,,,,,,,,,,,,,,,,,,,,,,,,,259.4903624940198,None,2,0.33767042800900526,259.4903624940198,None,,,,,,,,,,,,,,,,None,None,None,,None,None,259.8733320989995,None,1,1,0.6704823059844784,259.8733320989995,None,260.5404548506165,None,None,None,None,,09,001,2023_Jan_19_1052,searchDisc5,2021.2.3,59.95381434260505,
images/exp2c_trial_20_colour2_distractors1_l.png,l,1,2,1,0,,,,,0,28,28,28,,,,,,,,,,,,,,,,,,,,,,,,,,,,,,,,,,,,,,,,,,,260.5568698820134,None,2,0.38752739399205893,260.5568698820134,None,,,,,,,,,,,,,,,,None,None,None,,None,None,260.99251798001933,None,1,1,0.6883813019958325,260.99251798001933,None,261.67397843961663,None,None,None,None,,09,001,2023_Jan_19_1052,searchDisc5,2021.2.3,59.95381434260505,
images/exp1a_trial_271_colour1_distractors1_l.png,l,1,1,1,0,,,,,0,29,29,29,,,,,,,,,,,,,,,,,,,,,,,,,,,,,,,,,,,,,,,,,,,261.69187826200505,None,2,0.3378374360036105,261.69187826200505,None,,,,,,,,,,,,,,,,None,None,None,,None,None,262.07581691400264,None,1,1,1.004804341995623,262.07581691400264,None,263.07379438960635,None,None,None,None,,09,001,2023_Jan_19_1052,searchDisc5,2021.2.3,59.95381434260505,
images/exp2b_trial_53_colour2_distractors4_l.png,l,1,2,4,0,,,,,0,30,30,30,,,,,,,,,,,,,,,,,,,,,,,,,,,,,,,,,,,,,,,,,,,263.08955659501953,None,2,0.8881646759982686,263.08955659501953,None,,,,,,,,,,,,,,,,None,None,None,,None,None,264.02618562901625,None,1,1,0.6373149290157016,264.02618562901625,None,264.657302301607,None,None,None,None,,09,001,2023_Jan_19_1052,searchDisc5,2021.2.3,59.95381434260505,
images/exp2a_trial_38_colour2_distractors4_r.png,r,3,2,4,0,,,,,0,31,31,31,,,,,,,,,,,,,,,,,,,,,,,,,,,,,,,,,,,,,,,,,,,264.6737331309996,None,2,0.42086719200597145,264.6737331309996,None,,,,,,,,,,,,,,,,None,None,None,,None,None,265.14256962001673,None,1,0,0.5519865190144628,265.14256962001673,None,265.69067018461357,None,None,None,None,,09,001,2023_Jan_19_1052,searchDisc5,2021.2.3,59.95381434260505,
images/exp1a_trial_317_colour3_distractors31_l.png,l,1,3,31,0,,,,,0,32,32,32,,,,,,,,,,,,,,,,,,,,,,,,,,,,,,,,,,,,,,,,,,,265.70650539101916,None,2,0.5566557750280481,265.70650539101916,None,,,,,,,,,,,,,,,,None,None,None,,None,None,266.3112342910026,None,1,1,0.9292423879960552,266.3112342910026,None,267.24049906860165,None,None,None,None,,09,001,2023_Jan_19_1052,searchDisc5,2021.2.3,59.95381434260505,
images/exp2a_trial_172_colour3_distractors9_r.png,r,3,3,9,0,,,,,0,33,33,33,,,,,,,,,,,,,,,,,,,,,,,,,,,,,,,,,,,,,,,,,,,267.25898888200754,None,2,0.3900727430009283,267.25898888200754,None,,,,,,,,,,,,,,,,None,None,None,,None,None,267.69254353499855,None,3,1,0.6343916319892742,267.69254353499855,None,268.3241283406067,None,None,None,None,,09,001,2023_Jan_19_1052,searchDisc5,2021.2.3,59.95381434260505,
images/exp1a_trial_56_colour2_distractors31_l.png,l,1,2,31,0,,,,,0,34,34,34,,,,,,,,,,,,,,,,,,,,,,,,,,,,,,,,,,,,,,,,,,,268.33991554999375,None,2,0.3877613289805595,268.33991554999375,None,,,,,,,,,,,,,,,,None,None,None,,None,None,268.7755053290166,None,1,1,0.6491652799886651,268.7755053290166,None,269.42400561261167,None,None,None,None,,09,001,2023_Jan_19_1052,searchDisc5,2021.2.3,59.95381434260505,
images/exp1a_trial_129_colour1_distractors4_r.png,r,3,1,4,0,,,,,0,35,35,35,,,,,,,,,,,,,,,,,,,,,,,,,,,,,,,,,,,,,,,,,,,269.43980715601356,None,2,0.4223981150134932,269.43980715601356,None,,,,,,,,,,,,,,,,None,None,None,,None,None,269.9094510360155,None,3,1,0.603635678999126,269.9094510360155,None,270.5073329776031,None,None,None,None,,09,001,2023_Jan_19_1052,searchDisc5,2021.2.3,59.95381434260505,
images/exp2c_trial_99_colour1_distractors19_r.png,r,3,1,19,0,,,,,0,36,36,36,,,,,,,,,,,,,,,,,,,,,,,,,,,,,,,,,,,,,,,,,,,270.5238742410147,None,2,0.5367743039969355,270.5238742410147,None,,,,,,,,,,,,,,,,None,None,None,,None,None,271.1074511879997,None,3,1,0.5188551869941875,271.1074511879997,None,271.62406139459637,None,None,None,None,,09,001,2023_Jan_19_1052,searchDisc5,2021.2.3,59.95381434260505,
images/exp1a_trial_36_colour1_distractors31_r.png,r,3,1,31,0,,,,,0,37,37,37,,,,,,,,,,,,,,,,,,,,,,,,,,,,,,,,,,,,,,,,,,,271.6405045450083,None,2,0.40402951001306064,271.6405045450083,None,,,,,,,,,,,,,,,,None,None,None,,None,None,272.0926847960218,None,3,1,1.0493311249883845,272.0926847960218,None,273.14023771861395,None,None,None,None,,09,001,2023_Jan_19_1052,searchDisc5,2021.2.3,59.95381434260505,
images/exp2c_trial_222_colour0_distractors0_r.png,r,3,0,0,0,,,,,0,38,38,38,,,,,,,,,,,,,,,,,,,,,,,,,,,,,,,,,,,,,,,,,,,273.15710792900063,None,2,0.33861827399232425,273.15710792900063,None,,,,,,,,,,,,,,,,None,None,None,,None,None,273.5400900260138,None,3,1,0.504556698986562,273.5400900260138,None,274.04024177460525,None,None,None,None,,09,001,2023_Jan_19_1052,searchDisc5,2021.2.3,59.95381434260505,
images/exp1a_trial_189_colour3_distractors31_l.png,l,1,3,31,0,,,,,0,39,39,39,,,,,,,,,,,,,,,,,,,,,,,,,,,,,,,,,,,,,,,,,,,274.0571498530044,None,2,0.6546880240202881,274.0571498530044,None,,,,,,,,,,,,,,,,None,None,None,,None,None,274.7572698389995,None,1,1,0.598235940997256,274.7572698389995,None,275.3574986536085,None,None,None,None,,09,001,2023_Jan_19_1052,searchDisc5,2021.2.3,59.95381434260505,
images/exp2b_trial_318_colour0_distractors0_r.png,r,3,0,0,0,,,,,0,40,40,40,,,,,,,,,,,,,,,,,,,,,,,,,,,,,,,,,,,,,,,,,,,275.3759442390001,None,2,0.38978040099027567,275.3759442390001,None,,,,,,,,,,,,,,,,None,None,None,,None,None,275.8095626879949,None,3,1,0.5196329910249915,275.8095626879949,None,276.32428444560793,None,None,None,None,,09,001,2023_Jan_19_1052,searchDisc5,2021.2.3,59.95381434260505,
images/exp2b_trial_111_colour1_distractors1_l.png,l,1,1,1,0,,,,,0,41,41,41,,,,,,,,,,,,,,,,,,,,,,,,,,,,,,,,,,,,,,,,,,,276.34261328799766,None,2,0.45462321100058034,276.34261328799766,None,,,,,,,,,,,,,,,,None,None,None,,None,None,276.84089277201565,None,1,1,0.5881404539977666,276.84089277201565,None,277.42420450460924,None,None,None,None,,09,001,2023_Jan_19_1052,searchDisc5,2021.2.3,59.95381434260505,
images/exp1a_trial_174_colour3_distractors31_r.png,r,3,3,31,0,,,,,0,42,42,42,,,,,,,,,,,,,,,,,,,,,,,,,,,,,,,,,,,,,,,,,,,277.44209392700577,None,2,0.79065511902445,277.44209392700577,None,,,,,,,,,,,,,,,,None,None,None,,None,None,278.2743038040062,None,3,1,1.246491939004045,278.2743038040062,None,279.5244508435979,None,None,None,None,,09,001,2023_Jan_19_1052,searchDisc5,2021.2.3,59.95381434260505,
images/exp1a_trial_132_colour1_distractors31_r.png,r,3,1,31,0,,,,,0,43,43,43,,,,,,,,,,,,,,,,,,,,,,,,,,,,,,,,,,,,,,,,,,,279.5406846050173,None,2,0.4043836359924171,279.5406846050173,None,,,,,,,,,,,,,,,,None,None,None,,None,None,279.99293731700163,None,3,1,0.9653622629994061,279.99293731700163,None,280.95749948059967,None,None,None,None,,09,001,2023_Jan_19_1052,searchDisc5,2021.2.3,59.95381434260505,
images/exp2b_trial_306_colour1_distractors19_l.png,l,1,1,19,0,,,,,0,44,44,44,,,,,,,,,,,,,,,,,,,,,,,,,,,,,,,,,,,,,,,,,,,280.97442046299693,None,2,0.5379140159930103,280.97442046299693,None,,,,,,,,,,,,,,,,None,None,None,,None,None,281.55922788599855,None,1,1,0.5521909800008871,281.55922788599855,None,282.10730113161554,None,None,None,None,,09,001,2023_Jan_19_1052,searchDisc5,2021.2.3,59.95381434260505,
images/exp1a_trial_82_colour1_distractors19_l.png,l,1,1,19,0,,,,,0,45,45,45,,,,,,,,,,,,,,,,,,,,,,,,,,,,,,,,,,,,,,,,,,,282.12364884401904,None,2,0.37128559401025996,282.12364884401904,None,,,,,,,,,,,,,,,,None,None,None,,None,None,282.5406342270144,None,1,1,1.1343883730005473,282.5406342270144,None,283.67459010961176,None,None,None,None,,09,001,2023_Jan_19_1052,searchDisc5,2021.2.3,59.95381434260505,
images/exp2c_trial_53_colour2_distractors4_l.png,l,1,2,4,0,,,,,0,46,46,46,,,,,,,,,,,,,,,,,,,,,,,,,,,,,,,,,,,,,,,,,,,283.690967920993,None,2,0.6066705449775327,283.690967920993,None,,,,,,,,,,,,,,,,None,None,None,,None,None,284.34089226901415,None,1,1,0.7517776069871616,284.34089226901415,None,285.0905800356093,None,None,None,None,,09,001,2023_Jan_19_1052,searchDisc5,2021.2.3,59.95381434260505,
images/exp2c_trial_67_colour1_distractors19_r.png,r,3,1,19,0,,,,,0,47,47,47,,,,,,,,,,,,,,,,,,,,,,,,,,,,,,,,,,,,,,,,,,,285.107646621007,None,2,0.3383675770019181,285.107646621007,None,,,,,,,,,,,,,,,,None,None,None,,None,None,285.49124743702123,None,3,1,0.586405598995043,285.49124743702123,None,286.0744148066122,None,None,None,None,,09,001,2023_Jan_19_1052,searchDisc5,2021.2.3,59.95381434260505,
images/exp2c_trial_202_colour3_distractors1_r.png,r,3,3,1,0,,,,,0,48,48,48,,,,,,,,,,,,,,,,,,,,,,,,,,,,,,,,,,,,,,,,,,,286.0907463800104,None,2,0.45673266300582327,286.0907463800104,None,,,,,,,,,,,,,,,,None,None,None,,None,None,286.5931891390064,None,3,1,0.7550064630049746,286.5931891390064,None,287.3411506836099,None,None,None,None,,09,001,2023_Jan_19_1052,searchDisc5,2021.2.3,59.95381434260505,
images/exp2c_trial_185_colour3_distractors1_l.png,l,1,3,1,0,,,,,0,49,49,49,,,,,,,,,,,,,,,,,,,,,,,,,,,,,,,,,,,,,,,,,,,287.3576278290129,None,2,0.5207688929804135,287.3576278290129,None,,,,,,,,,,,,,,,,None,None,None,,None,None,287.92656234902097,None,1,1,0.6366539860027842,287.92656234902097,None,288.5580098516046,None,None,None,None,,09,001,2023_Jan_19_1052,searchDisc5,2021.2.3,59.95381434260505,
images/exp2c_trial_76_colour3_distractors9_r.png,r,3,3,9,0,,,,,0,50,50,50,,,,,,,,,,,,,,,,,,,,,,,,,,,,,,,,,,,,,,,,,,,288.5739379750157,None,2,0.33790569900884293,288.5739379750157,None,,,,,,,,,,,,,,,,None,None,None,,None,None,288.9576574410021,None,3,1,0.7701220939925406,288.9576574410021,None,289.7247184746055,None,None,None,None,,09,001,2023_Jan_19_1052,searchDisc5,2021.2.3,59.95381434260505,
images/exp2b_trial_115_colour1_distractors31_l.png,l,1,1,31,0,,,,,0,51,51,51,,,,,,,,,,,,,,,,,,,,,,,,,,,,,,,,,,,,,,,,,,,289.74038454701076,None,2,0.5728520679986104,289.74038454701076,None,,,,,,,,,,,,,,,,None,None,None,,None,None,290.35975247700117,None,1,1,0.5338451069837902,290.35975247700117,None,290.8914224296139,None,None,None,None,,09,001,2023_Jan_19_1052,searchDisc5,2021.2.3,59.95381434260505,
images/exp2b_trial_158_colour0_distractors0_r.png,r,3,0,0,0,,,,,0,52,52,52,,,,,,,,,,,,,,,,,,,,,,,,,,,,,,,,,,,,,,,,,,,290.90729417599505,None,2,0.320993509987602,290.90729417599505,None,,,,,,,,,,,,,,,,None,None,None,,None,None,291.27386727099656,None,3,1,0.522048557002563,291.27386727099656,None,291.79123631561816,None,None,None,None,,09,001,2023_Jan_19_1052,searchDisc5,2021.2.3,59.95381434260505,
images/exp2b_trial_122_colour3_distractors4_l.png,l,1,3,4,0,,,,,0,53,53,53,,,,,,,,,,,,,,,,,,,,,,,,,,,,,,,,,,,,,,,,,,,291.8075685950171,None,2,0.35468034297809936,291.8075685950171,None,,,,,,,,,,,,,,,,None,None,None,,None,None,292.20839056299883,None,1,1,0.45474379099323414,292.20839056299883,None,292.6579557986086,None,None,None,None,,09,001,2023_Jan_19_1052,searchDisc5,2021.2.3,59.95381434260505,
images/exp2b_trial_2_colour1_distractors9_r.png,r,3,1,9,0,,,,,0,54,54,54,,,,,,,,,,,,,,,,,,,,,,,,,,,,,,,,,,,,,,,,,,,292.67439861100866,None,2,0.3545484549831599,292.67439861100866,None,,,,,,,,,,,,,,,,None,None,None,,None,None,293.0766993210127,None,3,1,0.6036401279852726,293.0766993210127,None,293.6749150165968,None,None,None,None,,09,001,2023_Jan_19_1052,searchDisc5,2021.2.3,59.95381434260505,
images/exp2b_trial_243_colour1_distractors31_l.png,l,1,1,31,0,,,,,0,55,55,55,,,,,,,,,,,,,,,,,,,,,,,,,,,,,,,,,,,,,,,,,,,293.6930605060188,None,2,0.37307342898566276,293.6930605060188,None,,,,,,,,,,,,,,,,None,None,None,,None,None,294.1098384250072,None,1,1,0.6834721880150028,294.1098384250072,None,294.7914185656089,None,None,None,None,,09,001,2023_Jan_19_1052,searchDisc5,2021.2.3,59.95381434260505,
images/exp2c_trial_181_colour2_distractors4_l.png,l,1,2,4,0,,,,,0,56,56,56,,,,,,,,,,,,,,,,,,,,,,,,,,,,,,,,,,,,,,,,,,,294.80931218201295,None,2,0.5047107569989748,294.80931218201295,None,,,,,,,,,,,,,,,,None,None,None,,None,None,295.35956765699666,None,1,1,0.6679668379947543,295.35956765699666,None,296.024469013614,None,None,None,None,,09,001,2023_Jan_19_1052,searchDisc5,2021.2.3,59.95381434260505,
images/exp2c_trial_117_colour2_distractors4_l.png,l,1,2,4,0,,,,,0,57,57,57,,,,,,,,,,,,,,,,,,,,,,,,,,,,,,,,,,,,,,,,,,,296.0412644460157,None,2,0.4541778529819567,296.0412644460157,None,,,,,,,,,,,,,,,,None,None,None,,None,None,296.54127348799375,None,1,1,0.6059022799890954,296.54127348799375,None,297.14151292160096,None,None,None,None,,09,001,2023_Jan_19_1052,searchDisc5,2021.2.3,59.95381434260505,
images/exp2b_trial_299_colour3_distractors4_r.png,r,3,3,4,0,,,,,0,58,58,58,,,,,,,,,,,,,,,,,,,,,,,,,,,,,,,,,,,,,,,,,,,297.1597387930087,None,2,0.4379274979874026,297.1597387930087,None,,,,,,,,,,,,,,,,None,None,None,,None,None,297.64145472901873,None,3,1,0.5040047010115813,297.64145472901873,None,298.1414743575995,None,None,None,None,,09,001,2023_Jan_19_1052,searchDisc5,2021.2.3,59.95381434260505,
images/exp2a_trial_275_colour1_distractors31_l.png,l,1,1,31,0,,,,,0,59,59,59,,,,,,,,,,,,,,,,,,,,,,,,,,,,,,,,,,,,,,,,,,,298.1577187710209,None,2,0.36940987000707537,298.1577187710209,None,,,,,,,,,,,,,,,,None,None,None,,None,None,298.5749743900087,None,1,1,0.5005378770001698,298.5749743900087,None,299.0746583136177,None,None,None,None,,09,001,2023_Jan_19_1052,searchDisc5,2021.2.3,59.95381434260505,
images/exp2a_trial_64_colour1_distractors1_r.png,r,3,1,1,0,,,,,0,60,60,60,,,,,,,,,,,,,,,,,,,,,,,,,,,,,,,,,,,,,,,,,,,299.0926316580153,None,2,0.33821857400471345,299.0926316580153,None,,,,,,,,,,,,,,,,None,None,None,,None,None,299.47678391000954,None,3,1,0.6209956890088506,299.47678391000954,None,300.091523151609,None,None,None,None,,09,001,2023_Jan_19_1052,searchDisc5,2021.2.3,59.95381434260505,
images/exp2a_trial_85_colour2_distractors4_l.png,l,1,2,4,0,,,,,0,61,61,61,,,,,,,,,,,,,,,,,,,,,,,,,,,,,,,,,,,,,,,,,,,300.1079346970073,None,2,0.33797731797676533,300.1079346970073,None,,,,,,,,,,,,,,,,None,None,None,,None,None,300.49134548500297,None,1,1,0.6352412539999932,300.49134548500297,None,301.1244275906036,None,None,None,None,,09,001,2023_Jan_19_1052,searchDisc5,2021.2.3,59.95381434260505,
images/exp2a_trial_96_colour1_distractors1_r.png,r,3,1,1,0,,,,,0,62,62,62,,,,,,,,,,,,,,,,,,,,,,,,,,,,,,,,,,,,,,,,,,,301.1434165050159,None,2,0.33848640698124655,301.1434165050159,None,,,,,,,,,,,,,,,,None,None,None,,None,None,301.52626396299456,None,3,1,0.5540544420073275,301.52626396299456,None,302.07426603961795,None,None,None,None,,09,001,2023_Jan_19_1052,searchDisc5,2021.2.3,59.95381434260505,
images/exp1a_trial_285_colour3_distractors31_l.png,l,1,3,31,0,,,,,0,63,63,63,,,,,,,,,,,,,,,,,,,,,,,,,,,,,,,,,,,,,,,,,,,302.09122742601903,None,2,0.5052416260004975,302.09122742601903,None,,,,,,,,,,,,,,,,None,None,None,,None,None,302.64156922500115,None,1,1,0.4322779920184985,302.64156922500115,None,303.0749670776102,None,None,None,None,,09,001,2023_Jan_19_1052,searchDisc5,2021.2.3,59.95381434260505,
images/exp1a_trial_104_colour2_distractors19_r.png,r,3,2,19,0,,,,,0,64,64,64,,,,,,,,,,,,,,,,,,,,,,,,,,,,,,,,,,,,,,,,,,,303.0913118290191,None,2,0.3709757100150455,303.0913118290191,None,,,,,,,,,,,,,,,,None,None,None,,None,None,303.508155841002,None,3,1,0.6334396680176724,303.508155841002,None,304.14175655459695,None,None,None,None,,09,001,2023_Jan_19_1052,searchDisc5,2021.2.3,59.95381434260505,
images/exp1a_trial_116_colour2_distractors1_l.png,l,1,2,1,0,,,,,0,65,65,65,,,,,,,,,,,,,,,,,,,,,,,,,,,,,,,,,,,,,,,,,,,304.1578192190209,None,2,0.37307893100660294,304.1578192190209,None,,,,,,,,,,,,,,,,None,None,None,,None,None,304.57636551599717,None,1,1,0.602640369994333,304.57636551599717,None,305.17513469661645,None,None,None,None,,09,001,2023_Jan_19_1052,searchDisc5,2021.2.3,59.95381434260505,
images/exp2b_trial_96_colour1_distractors1_r.png,r,3,1,1,0,,,,,0,66,66,66,,,,,,,,,,,,,,,,,,,,,,,,,,,,,,,,,,,,,,,,,,,305.19339130900335,None,2,0.27117529697716236,305.19339130900335,None,,,,,,,,,,,,,,,,None,None,None,,None,None,305.50794654499623,None,3,1,0.537927829020191,305.50794654499623,None,306.04156137560204,None,None,None,None,,09,001,2023_Jan_19_1052,searchDisc5,2021.2.3,59.95381434260505,
images/exp2b_trial_165_colour2_distractors1_r.png,r,3,2,1,0,,,,,0,67,67,67,,,,,,,,,,,,,,,,,,,,,,,,,,,,,,,,,,,,,,,,,,,306.05805392499315,None,2,0.3545504920184612,306.05805392499315,None,,,,,,,,,,,,,,,,None,None,None,,None,None,306.46007034002105,None,3,1,0.588351871992927,306.46007034002105,None,307.04158066759993,None,None,None,None,,09,001,2023_Jan_19_1052,searchDisc5,2021.2.3,59.95381434260505,
images/exp1a_trial_272_colour1_distractors4_l.png,l,1,1,4,0,,,,,0,68,68,68,,,,,,,,,,,,,,,,,,,,,,,,,,,,,,,,,,,,,,,,,,,307.0578396820056,None,2,0.35445127298589796,307.0578396820056,None,,,,,,,,,,,,,,,,None,None,None,,None,None,307.4584098990017,None,1,1,0.5871180160029326,307.4584098990017,None,308.0417080836167,None,None,None,None,,09,001,2023_Jan_19_1052,searchDisc5,2021.2.3,59.95381434260505,
images/exp1a_trial_111_colour1_distractors1_l.png,l,1,1,1,0,,,,,0,69,69,69,,,,,,,,,,,,,,,,,,,,,,,,,,,,,,,,,,,,,,,,,,,308.05752832299913,None,2,0.4401097630034201,308.05752832299913,None,,,,,,,,,,,,,,,,None,None,None,,None,None,308.54307964700274,None,1,1,1.7527619000175036,308.54307964700274,None,310.291491613604,None,None,None,None,,09,001,2023_Jan_19_1052,searchDisc5,2021.2.3,59.95381434260505,
images/exp1a_trial_247_colour2_distractors19_l.png,l,1,2,19,0,,,,,0,70,70,70,,,,,,,,,,,,,,,,,,,,,,,,,,,,,,,,,,,,,,,,,,,310.30832336400636,None,2,0.37146364300861023,310.30832336400636,None,,,,,,,,,,,,,,,,None,None,None,,None,None,310.7268541690137,None,1,1,0.9836151709896512,310.7268541690137,None,311.70850101762045,None,None,None,None,,09,001,2023_Jan_19_1052,searchDisc5,2021.2.3,59.95381434260505,
images/exp2c_trial_269_colour3_distractors19_r.png,r,3,3,19,0,,,,,0,71,71,71,,,,,,,,,,,,,,,,,,,,,,,,,,,,,,,,,,,,,,,,,,,311.7247035750188,None,2,1.6213705829868559,311.7247035750188,None,,,,,,,,,,,,,,,,None,None,None,,None,None,313.3940268949955,None,3,1,1.0518727700109594,313.3940268949955,None,314.44189528459975,None,None,None,None,,09,001,2023_Jan_19_1052,searchDisc5,2021.2.3,59.95381434260505,
images/exp2b_trial_230_colour2_distractors4_r.png,r,3,2,4,0,,,,,0,72,72,72,,,,,,,,,,,,,,,,,,,,,,,,,,,,,,,,,,,,,,,,,,,314.45793790899916,None,2,0.47318120498675853,314.45793790899916,None,,,,,,,,,,,,,,,,None,None,None,,None,None,314.974767022999,None,3,1,0.8360415009956341,314.974767022999,None,315.8086845535989,None,None,None,None,,09,001,2023_Jan_19_1052,searchDisc5,2021.2.3,59.95381434260505,
images/exp1a_trial_70_colour2_distractors4_r.png,r,3,2,4,0,,,,,0,73,73,73,,,,,,,,,,,,,,,,,,,,,,,,,,,,,,,,,,,,,,,,,,,315.8246060220117,None,2,0.8546263239986729,315.8246060220117,None,,,,,,,,,,,,,,,,None,None,None,,None,None,316.72524072401575,None,3,1,0.7878695529943798,316.72524072401575,None,317.5086112685938,None,None,None,None,,09,001,2023_Jan_19_1052,searchDisc5,2021.2.3,59.95381434260505,
images/exp1a_trial_57_colour3_distractors1_l.png,l,1,3,1,0,,,,,0,74,74,74,,,,,,,,,,,,,,,,,,,,,,,,,,,,,,,,,,,,,,,,,,,317.5245882650197,None,2,0.589304302004166,317.5245882650197,None,,,,,,,,,,,,,,,,None,None,None,,None,None,318.15859027800616,None,1,1,0.5365577850025147,318.15859027800616,None,318.692011344622,None,None,None,None,,09,001,2023_Jan_19_1052,searchDisc5,2021.2.3,59.95381434260505,
images/exp2b_trial_73_colour2_distractors31_r.png,r,3,2,31,0,,,,,0,75,75,75,,,,,,,,,,,,,,,,,,,,,,,,,,,,,,,,,,,,,,,,,,,318.7081143580144,None,2,0.45671560600749217,318.7081143580144,None,,,,,,,,,,,,,,,,None,None,None,,None,None,319.2105760270206,None,3,1,0.46786141299526207,319.2105760270206,None,319.67523745959335,None,None,None,None,,09,001,2023_Jan_19_1052,searchDisc5,2021.2.3,59.95381434260505,
images/exp1a_trial_12_colour3_distractors9_r.png,r,3,3,9,0,,,,,0,76,76,76,,,,,,,,,,,,,,,,,,,,,,,,,,,,,,,,,,,,,,,,,,,319.69117061200086,None,2,0.552721574989846,319.69117061200086,None,,,,,,,,,,,,,,,,None,None,None,,None,None,320.29351253501954,None,1,0,0.4527807720005512,320.29351253501954,None,320.74217304360064,None,None,None,None,,09,001,2023_Jan_19_1052,searchDisc5,2021.2.3,59.95381434260505,
images/exp2a_trial_237_colour3_distractors19_r.png,r,3,3,19,0,,,,,0,77,77,77,,,,,,,,,,,,,,,,,,,,,,,,,,,,,,,,,,,,,,,,,,,320.7584471750015,None,2,0.5899201300053392,320.7584471750015,None,,,,,,,,,,,,,,,,None,None,None,,None,None,321.39329589001136,None,3,1,0.7675708699971437,321.39329589001136,None,322.15899673261157,None,None,None,None,,09,001,2023_Jan_19_1052,searchDisc5,2021.2.3,59.95381434260505,
images/exp1a_trial_38_colour2_distractors4_r.png,r,3,2,4,0,,,,,0,78,78,78,,,,,,,,,,,,,,,,,,,,,,,,,,,,,,,,,,,,,,,,,,,322.17718883400084,None,2,0.40650747300242074,322.17718883400084,None,,,,,,,,,,,,,,,,None,None,None,,None,None,322.62535150401527,None,3,1,0.5513946969876997,322.62535150401527,None,323.1755114076048,None,None,None,None,,09,001,2023_Jan_19_1052,searchDisc5,2021.2.3,59.95381434260505,
images/exp2b_trial_27_colour3_distractors9_l.png,l,1,3,9,0,,,,,0,79,79,79,,,,,,,,,,,,,,,,,,,,,,,,,,,,,,,,,,,,,,,,,,,323.1918696810026,None,2,0.5046664969995618,323.1918696810026,None,,,,,,,,,,,,,,,,None,None,None,,None,None,323.742163086019,None,1,1,0.5698052720108535,323.742163086019,None,324.3089017936116,None,None,None,None,,09,001,2023_Jan_19_1052,searchDisc5,2021.2.3,59.95381434260505,
images/exp2a_trial_15_colour1_distractors1_l.png,l,1,1,1,0,,,,,0,80,80,80,,,,,,,,,,,,,,,,,,,,,,,,,,,,,,,,,,,,,,,,,,,324.3252310990065,None,2,0.43974610199802555,324.3252310990065,None,,,,,,,,,,,,,,,,None,None,None,,None,None,324.81052385500516,None,1,1,0.6207987910020165,324.81052385500516,None,325.4254958346108,None,None,None,None,,09,001,2023_Jan_19_1052,searchDisc5,2021.2.3,59.95381434260505,
images/exp2c_trial_169_colour2_distractors31_r.png,r,3,2,31,0,,,,,0,81,81,81,,,,,,,,,,,,,,,,,,,,,,,,,,,,,,,,,,,,,,,,,,,325.4412437849969,None,2,0.5378495019976981,325.4412437849969,None,,,,,,,,,,,,,,,,None,None,None,,None,None,326.02739216102054,None,3,1,0.7318050049943849,326.02739216102054,None,326.75820977260884,None,None,None,None,,09,001,2023_Jan_19_1052,searchDisc5,2021.2.3,59.95381434260505,
images/exp2c_trial_287_colour0_distractors0_l.png,l,1,0,0,0,,,,,0,82,82,82,,,,,,,,,,,,,,,,,,,,,,,,,,,,,,,,,,,,,,,,,,,326.775091848016,None,2,0.3876810159999877,326.775091848016,None,,,,,,,,,,,,,,,,None,None,None,,None,None,327.2102657810028,None,1,1,0.45604348499909975,327.2102657810028,None,327.6589584865986,None,None,None,None,,09,001,2023_Jan_19_1052,searchDisc5,2021.2.3,59.95381434260505,
images/exp2b_trial_31_colour0_distractors0_l.png,l,1,0,0,0,,,,,0,83,83,83,,,,,,,,,,,,,,,,,,,,,,,,,,,,,,,,,,,,,,,,,,,327.6772693670064,None,2,0.389679520012578,327.6772693670064,None,,,,,,,,,,,,,,,,None,None,None,,None,None,328.1109490400122,None,1,1,0.571048679004889,328.1109490400122,None,328.67574810259686,None,None,None,None,,09,001,2023_Jan_19_1052,searchDisc5,2021.2.3,59.95381434260505,
images/exp1a_trial_30_colour0_distractors0_r.png,r,3,0,0,0,,,,,0,84,84,84,,,,,,,,,,,,,,,,,,,,,,,,,,,,,,,,,,,,,,,,,,,328.69209447299363,None,2,0.43879898998420686,328.69209447299363,None,,,,,,,,,,,,,,,,None,None,None,,None,None,329.1778067650157,None,3,1,0.45379223898635246,329.1778067650157,None,329.6256301936199,None,None,None,None,,09,001,2023_Jan_19_1052,searchDisc5,2021.2.3,59.95381434260505,
images/exp1a_trial_270_colour3_distractors31_r.png,r,3,3,31,0,,,,,0,85,85,85,,,,,,,,,,,,,,,,,,,,,,,,,,,,,,,,,,,,,,,,,,,329.641979995009,None,2,0.387820386007661,329.641979995009,None,,,,,,,,,,,,,,,,None,None,None,,None,None,330.0755337800074,None,3,1,0.4985010240052361,330.0755337800074,None,330.57521502661695,None,None,None,None,,09,001,2023_Jan_19_1052,searchDisc5,2021.2.3,59.95381434260505,
images/exp2b_trial_251_colour3_distractors9_l.png,l,1,3,9,0,,,,,0,86,86,86,,,,,,,,,,,,,,,,,,,,,,,,,,,,,,,,,,,,,,,,,,,330.5936497079965,None,2,0.38876779199927114,330.5936497079965,None,,,,,,,,,,,,,,,,None,None,None,,None,None,331.02775748600834,None,1,1,0.504799278016435,331.02775748600834,None,331.5256320136221,None,None,None,None,,09,001,2023_Jan_19_1052,searchDisc5,2021.2.3,59.95381434260505,
images/exp1a_trial_85_colour2_distractors4_l.png,l,1,2,4,0,,,,,0,87,87,87,,,,,,,,,,,,,,,,,,,,,,,,,,,,,,,,,,,,,,,,,,,331.5420659049996,None,2,0.33628815499832854,331.5420659049996,None,,,,,,,,,,,,,,,,None,None,None,,None,None,331.925371602003,None,3,0,0.453594790014904,331.925371602003,None,332.37591120559665,None,None,None,None,,09,001,2023_Jan_19_1052,searchDisc5,2021.2.3,59.95381434260505,
images/exp1a_trial_234_colour3_distractors1_r.png,r,3,3,1,0,,,,,0,88,88,88,,,,,,,,,,,,,,,,,,,,,,,,,,,,,,,,,,,,,,,,,,,332.39387710299343,None,2,0.5043736419756897,332.39387710299343,None,,,,,,,,,,,,,,,,None,None,None,,None,None,332.944262214005,None,3,1,0.6052202240098268,332.944262214005,None,333.5424772846134,None,None,None,None,,09,001,2023_Jan_19_1052,searchDisc5,2021.2.3,59.95381434260505,
images/exp2c_trial_308_colour2_distractors1_l.png,l,1,2,1,0,,,,,0,89,89,89,,,,,,,,,,,,,,,,,,,,,,,,,,,,,,,,,,,,,,,,,,,333.5607877620205,None,2,0.3712467910081614,333.5607877620205,None,,,,,,,,,,,,,,,,None,None,None,,None,None,333.97764316000394,None,1,1,0.5373950320063159,333.97764316000394,None,334.5090573966125,None,None,None,None,,09,001,2023_Jan_19_1052,searchDisc5,2021.2.3,59.95381434260505,
images/exp2b_trial_178_colour1_distractors19_l.png,l,1,1,19,0,,,,,0,90,90,90,,,,,,,,,,,,,,,,,,,,,,,,,,,,,,,,,,,,,,,,,,,334.525513443019,None,2,0.3541780150262639,334.525513443019,None,,,,,,,,,,,,,,,,None,None,None,,None,None,334.92604224401293,None,1,1,0.7194848050130531,334.92604224401293,None,335.64256179259684,None,None,None,None,,09,001,2023_Jan_19_1052,searchDisc5,2021.2.3,59.95381434260505,
images/exp2c_trial_307_colour1_distractors31_l.png,l,1,1,31,0,,,,,0,91,91,91,,,,,,,,,,,,,,,,,,,,,,,,,,,,,,,,,,,,,,,,,,,335.6589286280214,None,2,0.3545083320059348,335.6589286280214,None,,,,,,,,,,,,,,,,None,None,None,,None,None,336.06117030401947,None,1,1,0.6509985250013415,336.06117030401947,None,336.7090941645991,None,None,None,None,,09,001,2023_Jan_19_1052,searchDisc5,2021.2.3,59.95381434260505,
images/exp2a_trial_302_colour3_distractors31_r.png,r,3,3,31,0,,,,,0,92,92,92,,,,,,,,,,,,,,,,,,,,,,,,,,,,,,,,,,,,,,,,,,,336.7255116229935,None,2,0.2876322380034253,336.7255116229935,None,,,,,,,,,,,,,,,,None,None,None,,None,None,337.05873050901573,None,3,1,0.5340253589965869,337.05873050901573,None,337.59191126559455,None,None,None,None,,09,001,2023_Jan_19_1052,searchDisc5,2021.2.3,59.95381434260505,
images/exp2b_trial_199_colour2_distractors9_r.png,r,3,2,9,0,,,,,0,93,93,93,,,,,,,,,,,,,,,,,,,,,,,,,,,,,,,,,,,,,,,,,,,337.60898655300844,None,2,1.1386777659936342,337.60898655300844,None,,,,,,,,,,,,,,,,None,None,None,,None,None,338.79390444999444,None,3,1,0.42054638802073896,338.79390444999444,None,339.2092325265956,None,None,None,None,,09,001,2023_Jan_19_1052,searchDisc5,2021.2.3,59.95381434260505,
images/exp2b_trial_161_colour1_distractors4_r.png,r,3,1,4,0,,,,,0,94,94,94,,,,,,,,,,,,,,,,,,,,,,,,,,,,,,,,,,,,,,,,,,,339.22526752299746,None,2,0.5731495239888318,339.22526752299746,None,,,,,,,,,,,,,,,,None,None,None,,None,None,339.84481310500996,None,3,1,0.5189057200041134,339.84481310500996,None,340.3594535186101,None,None,None,None,,09,001,2023_Jan_19_1052,searchDisc5,2021.2.3,59.95381434260505,
images/exp2a_trial_10_colour3_distractors1_r.png,r,3,3,1,0,,,,,0,95,95,95,,,,,,,,,,,,,,,,,,,,,,,,,,,,,,,,,,,,,,,,,,,340.3775363220193,None,2,0.3896441560063977,340.3775363220193,None,,,,,,,,,,,,,,,,None,None,None,,None,None,340.81070750701474,None,1,0,0.42174801797955297,340.81070750701474,None,341.2254747156083,None,None,None,None,,09,001,2023_Jan_19_1052,searchDisc5,2021.2.3,59.95381434260505,
images/exp1a_trial_20_colour2_distractors1_l.png,l,1,2,1,0,,,,,0,96,96,96,,,,,,,,,,,,,,,,,,,,,,,,,,,,,,,,,,,,,,,,,,,341.24228606701945,None,2,0.5886454310093541,341.24228606701945,None,,,,,,,,,,,,,,,,None,None,None,,None,None,341.87585240401677,None,3,0,0.5379674409923609,341.87585240401677,None,342.40935486359814,None,None,None,None,,09,001,2023_Jan_19_1052,searchDisc5,2021.2.3,59.95381434260505,
images/exp2c_trial_265_colour2_distractors31_r.png,r,3,2,31,0,,,,,0,97,97,97,,,,,,,,,,,,,,,,,,,,,,,,,,,,,,,,,,,,,,,,,,,342.4279136060213,None,2,0.904256126988912,342.4279136060213,None,,,,,,,,,,,,,,,,None,None,None,,None,None,343.37799624801846,None,3,1,0.6829703789844643,343.37799624801846,None,344.0593111315946,None,None,None,None,,09,001,2023_Jan_19_1052,searchDisc5,2021.2.3,59.95381434260505,
images/exp2a_trial_26_colour3_distractors4_l.png,l,1,3,4,0,,,,,0,98,98,98,,,,,,,,,,,,,,,,,,,,,,,,,,,,,,,,,,,,,,,,,,,344.0777067230083,None,2,0.9401900639932137,344.0777067230083,None,,,,,,,,,,,,,,,,None,None,None,,None,None,345.0589439960022,None,1,1,0.5521293549973052,345.0589439960022,None,345.6096519896208,None,None,None,None,,09,001,2023_Jan_19_1052,searchDisc5,2021.2.3,59.95381434260505,
images/exp2b_trial_221_colour3_distractors31_l.png,l,1,3,31,0,,,,,0,99,99,99,,,,,,,,,,,,,,,,,,,,,,,,,,,,,,,,,,,,,,,,,,,345.6258716000011,None,2,0.32159622499602847,345.6258716000011,None,,,,,,,,,,,,,,,,None,None,None,,None,None,345.9926743810065,None,1,1,0.6341057709942106,345.9926743810065,None,346.6254740045959,None,None,None,None,,09,001,2023_Jan_19_1052,searchDisc5,2021.2.3,59.95381434260505,
images/exp1a_trial_252_colour3_distractors19_l.png,l,1,3,19,0,,,,,0,100,100,100,,,,,,,,,,,,,,,,,,,,,,,,,,,,,,,,,,,,,,,,,,,346.6424292830052,None,2,0.3211734470096417,346.6424292830052,None,,,,,,,,,,,,,,,,None,None,None,,None,None,347.0094662590127,None,1,1,0.568515909020789,347.0094662590127,None,347.5760686606198,None,None,None,None,,09,001,2023_Jan_19_1052,searchDisc5,2021.2.3,59.95381434260505,
images/exp1a_trial_155_colour3_distractors9_l.png,l,1,3,9,0,,,,,0,101,101,101,,,,,,,,,,,,,,,,,,,,,,,,,,,,,,,,,,,,,,,,,,,347.5925480610167,None,2,0.4067698790167924,347.5925480610167,None,,,,,,,,,,,,,,,,None,None,None,,None,None,348.04467507000663,None,1,1,0.4331026040017605,348.04467507000663,None,348.47604969062087,None,None,None,None,,09,001,2023_Jan_19_1052,searchDisc5,2021.2.3,59.95381434260505,
images/exp2c_trial_34_colour1_distractors9_r.png,r,3,1,9,0,,,,,0,102,102,102,,,,,,,,,,,,,,,,,,,,,,,,,,,,,,,,,,,,,,,,,,,348.4942280240066,None,2,0.37101414901553653,348.4942280240066,None,,,,,,,,,,,,,,,,None,None,None,,None,None,348.911872288998,None,3,1,0.6372070199868176,348.911872288998,None,349.54311144561217,None,None,None,None,,09,001,2023_Jan_19_1052,searchDisc5,2021.2.3,59.95381434260505,
images/exp2c_trial_186_colour3_distractors4_l.png,l,1,3,4,0,,,,,0,103,103,103,,,,,,,,,,,,,,,,,,,,,,,,,,,,,,,,,,,,,,,,,,,349.559161622019,None,2,0.9042616059887223,349.559161622019,None,,,,,,,,,,,,,,,,None,None,None,,None,None,350.5115842100058,None,1,1,0.7373999410192482,350.5115842100058,None,351.2428813466075,None,None,None,None,,09,001,2023_Jan_19_1052,searchDisc5,2021.2.3,59.95381434260505,
images/exp2a_trial_1_colour1_distractors4_r.png,r,3,1,4,0,,,,,0,104,104,104,,,,,,,,,,,,,,,,,,,,,,,,,,,,,,,,,,,,,,,,,,,351.2593065100082,None,2,0.770912835985655,351.2593065100082,None,,,,,,,,,,,,,,,,None,None,None,,None,None,352.0787083450123,None,3,1,0.6217648889869452,352.0787083450123,None,352.6929535966163,None,None,None,None,,09,001,2023_Jan_19_1052,searchDisc5,2021.2.3,59.95381434260505,
images/exp2b_trial_273_colour1_distractors9_l.png,l,1,1,9,0,,,,,0,105,105,105,,,,,,,,,,,,,,,,,,,,,,,,,,,,,,,,,,,,,,,,,,,352.7087345290056,None,2,0.42144670101697557,352.7087345290056,None,,,,,,,,,,,,,,,,None,None,None,,None,None,353.17827135600965,None,1,1,0.6206213620025665,353.17827135600965,None,353.7926857795945,None,None,None,None,,09,001,2023_Jan_19_1052,searchDisc5,2021.2.3,59.95381434260505,
images/exp2a_trial_121_colour3_distractors1_l.png,l,1,3,1,0,,,,,0,106,106,106,,,,,,,,,,,,,,,,,,,,,,,,,,,,,,,,,,,,,,,,,,,353.8092541200167,None,2,0.3880672120139934,353.8092541200167,None,,,,,,,,,,,,,,,,None,None,None,,None,None,354.243150557013,None,1,1,0.5733450439875014,354.243150557013,None,354.8099746656051,None,None,None,None,,09,001,2023_Jan_19_1052,searchDisc5,2021.2.3,59.95381434260505,
images/exp1a_trial_108_colour3_distractors9_r.png,r,3,3,9,0,,,,,0,107,107,107,,,,,,,,,,,,,,,,,,,,,,,,,,,,,,,,,,,,,,,,,,,354.82602702101576,None,2,0.5360802629729733,354.82602702101576,None,,,,,,,,,,,,,,,,None,None,None,,None,None,355.41172534099314,None,3,1,0.5354073049966246,355.41172534099314,None,355.9430741376098,None,None,None,None,,09,001,2023_Jan_19_1052,searchDisc5,2021.2.3,59.95381434260505,
images/exp1a_trial_9_colour2_distractors31_r.png,r,3,2,31,0,,,,,0,108,108,108,,,,,,,,,,,,,,,,,,,,,,,,,,,,,,,,,,,,,,,,,,,355.96123462100513,None,2,0.3711581919924356,355.96123462100513,None,,,,,,,,,,,,,,,,None,None,None,,None,None,356.3776954190107,None,3,1,0.6325778930040542,356.3776954190107,None,357.0097726205975,None,None,None,None,,09,001,2023_Jan_19_1052,searchDisc5,2021.2.3,59.95381434260505,
images/exp2a_trial_31_colour0_distractors0_l.png,l,1,0,0,0,,,,,0,109,109,109,,,,,,,,,,,,,,,,,,,,,,,,,,,,,,,,,,,,,,,,,,,357.0261229330208,None,2,0.3878937920089811,357.0261229330208,None,,,,,,,,,,,,,,,,None,None,None,,None,None,357.46177040200564,None,1,1,0.5214387650194112,357.46177040200564,None,357.976460050614,None,None,None,None,,09,001,2023_Jan_19_1052,searchDisc5,2021.2.3,59.95381434260505,
images/exp2b_trial_275_colour1_distractors31_l.png,l,1,1,31,0,,,,,0,110,110,110,,,,,,,,,,,,,,,,,,,,,,,,,,,,,,,,,,,,,,,,,,,357.9948022890021,None,2,0.47128810500726104,357.9948022890021,None,,,,,,,,,,,,,,,,None,None,None,,None,None,358.5117375389964,None,1,1,1.1009607829910237,358.5117375389964,None,359.6098618116201,None,None,None,None,,09,001,2023_Jan_19_1052,searchDisc5,2021.2.3,59.95381434260505,
images/exp2a_trial_120_colour2_distractors31_l.png,l,1,2,31,0,,,,,0,111,111,111,,,,,,,,,,,,,,,,,,,,,,,,,,,,,,,,,,,,,,,,,,,359.62593452300644,None,2,0.7045834639866371,359.62593452300644,None,,,,,,,,,,,,,,,,None,None,None,,None,None,360.3758190750086,None,1,1,1.7785687620053068,360.3758190750086,None,362.1598399775947,None,None,None,None,,09,001,2023_Jan_19_1052,searchDisc5,2021.2.3,59.95381434260505,
images/exp2a_trial_92_colour3_distractors19_l.png,l,1,3,19,0,,,,,0,112,112,112,,,,,,,,,,,,,,,,,,,,,,,,,,,,,,,,,,,,,,,,,,,362.1757448930002,None,2,0.5710549129871652,362.1757448930002,None,,,,,,,,,,,,,,,,None,None,None,,None,None,362.79540838400135,None,1,1,1.0028085079975426,362.79540838400135,None,363.79331015061763,None,None,None,None,,09,001,2023_Jan_19_1052,searchDisc5,2021.2.3,59.95381434260505,
images/exp2b_trial_36_colour1_distractors31_r.png,r,3,1,31,0,,,,,0,113,113,113,,,,,,,,,,,,,,,,,,,,,,,,,,,,,,,,,,,,,,,,,,,363.8093275540159,None,2,0.42324442201061174,363.8093275540159,None,,,,,,,,,,,,,,,,None,None,None,,None,None,364.2785853719979,None,3,1,0.8659200330148451,364.2785853719979,None,365.1432986636035,None,None,None,None,,09,001,2023_Jan_19_1052,searchDisc5,2021.2.3,59.95381434260505,
images/exp2b_trial_300_colour3_distractors9_r.png,r,3,3,9,0,,,,,0,114,114,114,,,,,,,,,,,,,,,,,,,,,,,,,,,,,,,,,,,,,,,,,,,365.15924000600353,None,2,0.4212400050018914,365.15924000600353,None,,,,,,,,,,,,,,,,None,None,None,,None,None,365.6286253860162,None,3,1,2.7698665450152475,365.6286253860162,None,368.39335361061677,None,None,None,None,,09,001,2023_Jan_19_1052,searchDisc5,2021.2.3,59.95381434260505,
images/exp2b_trial_168_colour2_distractors19_r.png,r,3,2,19,0,,,,,0,115,115,115,,,,,,,,,,,,,,,,,,,,,,,,,,,,,,,,,,,,,,,,,,,368.41187197002,None,2,0.3710738040099386,368.41187197002,None,,,,,,,,,,,,,,,,None,None,None,,None,None,368.82808081101393,None,3,1,0.5346158370084595,368.82808081101393,None,369.3594977185974,None,None,None,None,,09,001,2023_Jan_19_1052,searchDisc5,2021.2.3,59.95381434260505,
images/exp2a_trial_297_colour2_distractors31_r.png,r,3,2,31,0,,,,,0,116,116,116,,,,,,,,,,,,,,,,,,,,,,,,,,,,,,,,,,,,,,,,,,,369.37629031500546,None,2,0.8066849599999841,369.37629031500546,None,,,,,,,,,,,,,,,,None,None,None,,None,None,370.23407982001663,None,3,1,0.6592005379789043,370.23407982001663,None,370.89333944461833,None,None,None,None,,09,001,2023_Jan_19_1052,searchDisc5,2021.2.3,59.95381434260505,
images/exp2c_trial_127_colour0_distractors0_l.png,l,1,0,0,0,,,,,0,117,117,117,,,,,,,,,,,,,,,,,,,,,,,,,,,,,,,,,,,,,,,,,,,370.9096577409946,None,2,0.40632131398888305,370.9096577409946,None,,,,,,,,,,,,,,,,None,None,None,,None,None,371.36217965499964,None,1,1,0.5706757190055214,371.36217965499964,None,371.9268187225942,None,None,None,None,,09,001,2023_Jan_19_1052,searchDisc5,2021.2.3,59.95381434260505,
images/exp2c_trial_236_colour3_distractors9_r.png,r,3,3,9,0,,,,,0,118,118,118,,,,,,,,,,,,,,,,,,,,,,,,,,,,,,,,,,,,,,,,,,,371.94317815999966,None,2,0.42219348999788053,371.94317815999966,None,,,,,,,,,,,,,,,,None,None,None,,None,None,372.41156652302016,None,3,1,0.7511543380096555,372.41156652302016,None,373.1603025775956,None,None,None,None,,09,001,2023_Jan_19_1052,searchDisc5,2021.2.3,59.95381434260505,
images/exp2b_trial_293_colour2_distractors1_r.png,r,3,2,1,0,,,,,0,119,119,119,,,,,,,,,,,,,,,,,,,,,,,,,,,,,,,,,,,,,,,,,,,373.17661427601706,None,2,0.406024930998683,373.17661427601706,None,,,,,,,,,,,,,,,,None,None,None,,None,None,373.6287350820203,None,3,1,0.5698892780055758,373.6287350820203,None,374.1935231265932,None,None,None,None,,09,001,2023_Jan_19_1052,searchDisc5,2021.2.3,59.95381434260505,
images/exp2a_trial_177_colour1_distractors9_l.png,l,1,1,9,0,,,,,0,120,120,120,,,,,,,,,,,,,,,,,,,,,,,,,,,,,,,,,,,,,,,,,,,374.2093786520127,None,2,0.5040306750161108,374.2093786520127,None,,,,,,,,,,,,,,,,None,None,None,,None,None,374.7603686620132,None,1,1,0.5210775110172108,374.7603686620132,None,375.2768408555974,None,None,None,None,,09,001,2023_Jan_19_1052,searchDisc5,2021.2.3,59.95381434260505,
images/exp2c_trial_276_colour2_distractors1_l.png,l,1,2,1,0,,,,,0,121,121,121,,,,,,,,,,,,,,,,,,,,,,,,,,,,,,,,,,,,,,,,,,,375.2932386310131,None,2,0.42065396497491747,375.2932386310131,None,,,,,,,,,,,,,,,,None,None,None,,None,None,375.76176396899973,None,1,1,0.9721548820089083,375.76176396899973,None,376.7269223136216,None,None,None,None,,09,001,2023_Jan_19_1052,searchDisc5,2021.2.3,59.95381434260505,
images/exp2b_trial_24_colour2_distractors31_l.png,l,1,2,31,0,,,,,0,122,122,122,,,,,,,,,,,,,,,,,,,,,,,,,,,,,,,,,,,,,,,,,,,376.7433693979983,None,2,0.33792428800370544,376.7433693979983,None,,,,,,,,,,,,,,,,None,None,None,,None,None,377.12682293201215,None,1,1,0.5851291180006228,377.12682293201215,None,377.7103094186139,None,None,None,None,,09,001,2023_Jan_19_1052,searchDisc5,2021.2.3,59.95381434260505,
images/exp2c_trial_220_colour3_distractors19_l.png,l,1,3,19,0,,,,,0,123,123,123,,,,,,,,,,,,,,,,,,,,,,,,,,,,,,,,,,,,,,,,,,,377.72656832201756,None,2,0.30419137299759313,377.72656832201756,None,,,,,,,,,,,,,,,,None,None,None,,None,None,378.0767720960139,None,1,1,0.8358497740118764,378.0767720960139,None,378.9099525226018,None,None,None,None,,09,001,2023_Jan_19_1052,searchDisc5,2021.2.3,59.95381434260505,
images/exp1a_trial_308_colour2_distractors1_l.png,l,1,2,1,0,,,,,0,124,124,124,,,,,,,,,,,,,,,,,,,,,,,,,,,,,,,,,,,,,,,,,,,378.92708221200155,None,2,0.2572994290094357,378.92708221200155,None,,,,,,,,,,,,,,,,None,None,None,,None,None,379.22714022701257,None,1,1,0.5029768839885946,379.22714022701257,None,379.7270965516189,None,None,None,None,,09,001,2023_Jan_19_1052,searchDisc5,2021.2.3,59.95381434260505,
images/exp2c_trial_115_colour1_distractors31_l.png,l,1,1,31,0,,,,,0,125,125,125,,,,,,,,,,,,,,,,,,,,,,,,,,,,,,,,,,,,,,,,,,,379.7428989490145,None,2,0.4211644759925548,379.7428989490145,None,,,,,,,,,,,,,,,,None,None,None,,None,None,380.2123453730019,None,1,1,0.4346061259857379,380.2123453730019,None,380.6436875046027,None,None,None,None,,09,001,2023_Jan_19_1052,searchDisc5,2021.2.3,59.95381434260505,
images/exp2c_trial_184_colour2_distractors31_l.png,l,1,2,31,0,,,,,0,126,126,126,,,,,,,,,,,,,,,,,,,,,,,,,,,,,,,,,,,,,,,,,,,380.66175139902043,None,2,0.37118875500163995,380.66175139902043,None,,,,,,,,,,,,,,,,None,None,None,,None,None,381.0789381340146,None,1,1,0.4016142199980095,381.0789381340146,None,381.4771419406141,None,None,None,None,,09,001,2023_Jan_19_1052,searchDisc5,2021.2.3,59.95381434260505,
images/exp2c_trial_52_colour2_distractors1_l.png,l,1,2,1,0,,,,,0,127,127,127,,,,,,,,,,,,,,,,,,,,,,,,,,,,,,,,,,,,,,,,,,,381.49306526299915,None,2,0.37106848901021294,381.49306526299915,None,,,,,,,,,,,,,,,,None,None,None,,None,None,381.91207220600336,None,1,1,0.5217537950084079,381.91207220600336,None,382.4269235296204,None,None,None,None,,09,001,2023_Jan_19_1052,searchDisc5,2021.2.3,59.95381434260505,
images/exp2c_trial_178_colour1_distractors19_l.png,l,1,1,19,0,,,,,0,128,128,128,,,,,,,,,,,,,,,,,,,,,,,,,,,,,,,,,,,,,,,,,,,382.44334078699467,None,2,0.28746654800488614,382.44334078699467,None,,,,,,,,,,,,,,,,None,None,None,,None,None,382.7763021879946,None,1,1,0.6523508380050771,382.7763021879946,None,383.4268468726048,None,None,None,None,,09,001,2023_Jan_19_1052,searchDisc5,2021.2.3,59.95381434260505,
images/exp1a_trial_188_colour3_distractors19_l.png,l,1,3,19,0,,,,,0,129,129,129,,,,,,,,,,,,,,,,,,,,,,,,,,,,,,,,,,,,,,,,,,,383.44497833700734,None,2,0.25468516297405586,383.44497833700734,None,,,,,,,,,,,,,,,,None,None,None,,None,None,383.7437099860108,None,1,1,0.4672884200117551,383.7437099860108,None,384.2104707705992,None,None,None,None,,09,001,2023_Jan_19_1052,searchDisc5,2021.2.3,59.95381434260505,
images/exp2c_trial_264_colour2_distractors19_r.png,r,3,2,19,0,,,,,0,130,130,130,,,,,,,,,,,,,,,,,,,,,,,,,,,,,,,,,,,,,,,,,,,384.22646448700107,None,2,0.2545790630101692,384.22646448700107,None,,,,,,,,,,,,,,,,None,None,None,,None,None,384.52719523300766,None,1,0,0.5527506379876286,384.52719523300766,None,385.0774933336041,None,None,None,None,,09,001,2023_Jan_19_1052,searchDisc5,2021.2.3,59.95381434260505,
images/exp2a_trial_75_colour3_distractors4_r.png,r,3,3,4,0,,,,,0,131,131,131,,,,,,,,,,,,,,,,,,,,,,,,,,,,,,,,,,,,,,,,,,,385.0934389780159,None,2,0.8403975780238397,385.0934389780159,None,,,,,,,,,,,,,,,,None,None,None,,None,None,385.9782328250003,None,3,1,0.7012566719786264,385.9782328250003,None,386.6773446825944,None,None,None,None,,09,001,2023_Jan_19_1052,searchDisc5,2021.2.3,59.95381434260505,
images/exp1a_trial_101_colour2_distractors1_r.png,r,3,2,1,0,,,,,0,132,132,132,,,,,,,,,,,,,,,,,,,,,,,,,,,,,,,,,,,,,,,,,,,386.6946550370194,None,2,0.2877319460094441,386.6946550370194,None,,,,,,,,,,,,,,,,None,None,None,,None,None,387.0273070000112,None,3,1,0.7044579170178622,387.0273070000112,None,387.72713025362174,None,None,None,None,,09,001,2023_Jan_19_1052,searchDisc5,2021.2.3,59.95381434260505,
images/exp2a_trial_233_colour2_distractors31_r.png,r,3,2,31,0,,,,,0,133,133,133,,,,,,,,,,,,,,,,,,,,,,,,,,,,,,,,,,,,,,,,,,,387.74660406800103,None,2,0.27195623601437546,387.74660406800103,None,,,,,,,,,,,,,,,,None,None,None,,None,None,388.0599913060141,None,3,1,0.6427826389844995,388.0599913060141,None,388.71074137760735,None,None,None,None,,09,001,2023_Jan_19_1052,searchDisc5,2021.2.3,59.95381434260505,
images/exp1a_trial_11_colour3_distractors4_r.png,r,3,3,4,0,,,,,0,134,134,134,,,,,,,,,,,,,,,,,,,,,,,,,,,,,,,,,,,,,,,,,,,388.7275763110083,None,2,0.27341155798058026,388.7275763110083,None,,,,,,,,,,,,,,,,None,None,None,,None,None,389.04510690202005,None,3,1,0.634587112988811,389.04510690202005,None,389.676780176608,None,None,None,None,,09,001,2023_Jan_19_1052,searchDisc5,2021.2.3,59.95381434260505,
images/exp1a_trial_133_colour2_distractors1_r.png,r,3,2,1,0,,,,,0,135,135,135,,,,,,,,,,,,,,,,,,,,,,,,,,,,,,,,,,,,,,,,,,,389.6948279310018,None,2,0.24055465799756348,389.6948279310018,None,,,,,,,,,,,,,,,,None,None,None,,None,None,389.9797803499969,None,3,1,0.5364302709931508,389.9797803499969,None,390.51036327759795,None,None,None,None,,09,001,2023_Jan_19_1052,searchDisc5,2021.2.3,59.95381434260505,
images/exp2a_trial_115_colour1_distractors31_l.png,l,1,1,31,0,,,,,0,136,136,136,,,,,,,,,,,,,,,,,,,,,,,,,,,,,,,,,,,,,,,,,,,390.52780608000467,None,2,0.23860809800680727,390.52780608000467,None,,,,,,,,,,,,,,,,None,None,None,,None,None,390.81174275500234,None,1,1,0.6344073970103636,390.81174275500234,None,391.44407827360266,None,None,None,None,,09,001,2023_Jan_19_1052,searchDisc5,2021.2.3,59.95381434260505,
images/exp1a_trial_240_colour1_distractors4_l.png,l,1,1,4,0,,,,,0,137,137,137,,,,,,,,,,,,,,,,,,,,,,,,,,,,,,,,,,,,,,,,,,,391.4611214750039,None,2,0.2570964040060062,391.4611214750039,None,,,,,,,,,,,,,,,,None,None,None,,None,None,391.7610795230139,None,1,1,0.8673682780063245,391.7610795230139,None,392.6274211856042,None,None,None,None,,09,001,2023_Jan_19_1052,searchDisc5,2021.2.3,59.95381434260505,
images/exp2a_trial_72_colour2_distractors19_r.png,r,3,2,19,0,,,,,0,138,138,138,,,,,,,,,,,,,,,,,,,,,,,,,,,,,,,,,,,,,,,,,,,392.64656905300217,None,2,0.257293868024135,392.64656905300217,None,,,,,,,,,,,,,,,,None,None,None,,None,None,392.9442320340022,None,3,1,0.7459336059982888,392.9442320340022,None,393.6946089875972,None,None,None,None,,09,001,2023_Jan_19_1052,searchDisc5,2021.2.3,59.95381434260505,
images/exp2a_trial_173_colour3_distractors19_r.png,r,3,3,19,0,,,,,0,139,139,139,,,,,,,,,,,,,,,,,,,,,,,,,,,,,,,,,,,,,,,,,,,393.71138734801207,None,2,0.24036698500276543,393.71138734801207,None,,,,,,,,,,,,,,,,None,None,None,,None,None,393.99418057501316,None,3,1,0.5820520730048884,393.99418057501316,None,394.57745948660596,None,None,None,None,,09,001,2023_Jan_19_1052,searchDisc5,2021.2.3,59.95381434260505,
images/exp2b_trial_34_colour1_distractors9_r.png,r,3,1,9,0,,,,,0,140,140,140,,,,,,,,,,,,,,,,,,,,,,,,,,,,,,,,,,,,,,,,,,,394.5944754469965,None,2,0.2238543939893134,394.5944754469965,None,,,,,,,,,,,,,,,,None,None,None,,None,None,394.86160846601706,None,3,1,0.5033997639839072,394.86160846601706,None,395.3619180445938,None,None,None,None,,09,001,2023_Jan_19_1052,searchDisc5,2021.2.3,59.95381434260505,
images/exp1a_trial_130_colour1_distractors9_r.png,r,3,1,9,0,,,,,0,141,141,141,,,,,,,,,,,,,,,,,,,,,,,,,,,,,,,,,,,,,,,,,,,395.37750222100294,None,2,0.2378265050065238,395.37750222100294,None,,,,,,,,,,,,,,,,None,None,None,,None,None,395.66170366099686,None,3,1,0.48346793197561055,395.66170366099686,None,396.14431043259975,None,None,None,None,,09,001,2023_Jan_19_1052,searchDisc5,2021.2.3,59.95381434260505,
images/exp2b_trial_151_colour2_distractors19_l.png,l,1,2,19,0,,,,,0,142,142,142,,,,,,,,,,,,,,,,,,,,,,,,,,,,,,,,,,,,,,,,,,,396.16167229702114,None,2,0.25502684799721465,396.16167229702114,None,,,,,,,,,,,,,,,,None,None,None,,None,None,396.4618556720088,None,3,0,0.6339974340226036,396.4618556720088,None,397.0940602806193,None,None,None,None,,09,001,2023_Jan_19_1052,searchDisc5,2021.2.3,59.95381434260505,
images/exp2c_trial_303_colour1_distractors1_l.png,l,1,1,1,0,,,,,0,143,143,143,,,,,,,,,,,,,,,,,,,,,,,,,,,,,,,,,,,,,,,,,,,397.1113391490071,None,2,0.406521306023933,397.1113391490071,None,,,,,,,,,,,,,,,,None,None,None,,None,None,397.5638176530192,None,1,1,0.8025086279958487,397.5638176530192,None,398.3610459896125,None,None,None,None,,09,001,2023_Jan_19_1052,searchDisc5,2021.2.3,59.95381434260505,
images/exp2b_trial_30_colour0_distractors0_r.png,r,3,0,0,0,,,,,0,144,144,144,,,,,,,,,,,,,,,,,,,,,,,,,,,,,,,,,,,,,,,,,,,398.37687393001397,None,2,0.2706585779960733,398.37687393001397,None,,,,,,,,,,,,,,,,None,None,None,,None,None,398.69462316899444,None,3,1,0.6236907549900934,398.69462316899444,None,399.31094546761307,None,None,None,None,,09,001,2023_Jan_19_1052,searchDisc5,2021.2.3,59.95381434260505,
images/exp2a_trial_134_colour2_distractors4_r.png,r,3,2,4,0,,,,,0,145,145,145,,,,,,,,,,,,,,,,,,,,,,,,,,,,,,,,,,,,,,,,,,,399.32990917601273,None,2,0.2578574969957117,399.32990917601273,None,,,,,,,,,,,,,,,,None,None,None,,None,None,399.6267597489932,None,3,1,0.8319586629804689,399.6267597489932,None,400.4610765746009,None,None,None,None,,09,001,2023_Jan_19_1052,searchDisc5,2021.2.3,59.95381434260505,
images/exp2a_trial_204_colour3_distractors9_r.png,r,3,3,9,0,,,,,0,146,146,146,,,,,,,,,,,,,,,,,,,,,,,,,,,,,,,,,,,,,,,,,,,400.4797387320141,None,2,0.18898156701470725,400.4797387320141,None,,,,,,,,,,,,,,,,None,None,None,,None,None,400.7114643380046,None,3,1,0.5693630860187113,400.7114643380046,None,401.2778740216134,None,None,None,None,,09,001,2023_Jan_19_1052,searchDisc5,2021.2.3,59.95381434260505,
images/exp1a_trial_256_colour1_distractors1_r.png,r,3,1,1,0,,,,,0,147,147,147,,,,,,,,,,,,,,,,,,,,,,,,,,,,,,,,,,,,,,,,,,,401.29515647000517,None,2,0.18949264599359594,401.29515647000517,None,,,,,,,,,,,,,,,,None,None,None,,None,None,401.5297649250133,None,1,0,0.48630725100520067,401.5297649250133,None,402.0119096136157,None,None,None,None,,09,001,2023_Jan_19_1052,searchDisc5,2021.2.3,59.95381434260505,
images/exp2a_trial_61_colour3_distractors31_l.png,l,1,3,31,0,,,,,0,148,148,148,,,,,,,,,,,,,,,,,,,,,,,,,,,,,,,,,,,,,,,,,,,402.02929611701984,None,2,1.0392342839913908,402.02929611701984,None,,,,,,,,,,,,,,,,None,None,None,,None,None,403.111856411997,None,1,1,0.7169533769774716,403.111856411997,None,403.82883462661704,None,None,None,None,,09,001,2023_Jan_19_1052,searchDisc5,2021.2.3,59.95381434260505,
images/exp2a_trial_209_colour1_distractors9_l.png,l,1,1,9,0,,,,,0,149,149,149,,,,,,,,,,,,,,,,,,,,,,,,,,,,,,,,,,,,,,,,,,,403.84476097201696,None,2,0.22224005000316538,403.84476097201696,None,,,,,,,,,,,,,,,,None,None,None,,None,None,404.11318536501494,None,1,1,0.6184576459927484,404.11318536501494,None,404.72794887560013,None,None,None,None,,09,001,2023_Jan_19_1052,searchDisc5,2021.2.3,59.95381434260505,
images/exp2a_trial_286_colour0_distractors0_r.png,r,3,0,0,0,,,,,0,150,150,150,,,,,,,,,,,,,,,,,,,,,,,,,,,,,,,,,,,,,,,,,,,404.7462087380118,None,2,0.20541282300837338,404.7462087380118,None,,,,,,,,,,,,,,,,None,None,None,,None,None,404.9973704020085,None,3,1,1.0205903949972708,404.9973704020085,None,406.011056381595,None,None,None,None,,09,001,2023_Jan_19_1052,searchDisc5,2021.2.3,59.95381434260505,
images/exp1a_trial_277_colour2_distractors4_l.png,l,1,2,4,0,,,,,0,151,151,151,,,,,,,,,,,,,,,,,,,,,,,,,,,,,,,,,,,,,,,,,,,406.02841074200114,None,2,0.2065483260084875,406.02841074200114,None,,,,,,,,,,,,,,,,None,None,None,,None,None,406.28061635099584,None,1,1,0.7349477859970648,406.28061635099584,None,407.0111405306059,None,None,None,None,,09,001,2023_Jan_19_1052,searchDisc5,2021.2.3,59.95381434260505,
images/exp2c_trial_118_colour2_distractors9_l.png,l,1,2,9,0,,,,,0,152,152,152,,,,,,,,,,,,,,,,,,,,,,,,,,,,,,,,,,,,,,,,,,,407.0296407910064,None,2,0.12122190400259569,407.0296407910064,None,,,,,,,,,,,,,,,,None,None,None,,None,None,407.1972786550177,None,1,1,0.6198950379912276,407.1972786550177,None,407.8113956096029,None,None,None,None,,09,001,2023_Jan_19_1052,searchDisc5,2021.2.3,59.95381434260505,
images/exp1a_trial_40_colour2_distractors19_r.png,r,3,2,19,0,,,,,0,153,153,153,,,,,,,,,,,,,,,,,,,,,,,,,,,,,,,,,,,,,,,,,,,407.8275699749938,None,2,0.17170727701159194,407.8275699749938,None,,,,,,,,,,,,,,,,None,None,None,,None,None,408.0470201440039,None,3,1,0.6495793930080254,408.0470201440039,None,408.6946131946141,None,None,None,None,,09,001,2023_Jan_19_1052,searchDisc5,2021.2.3,59.95381434260505,
images/exp2a_trial_268_colour3_distractors9_r.png,r,3,3,9,0,,,,,0,154,154,154,,,,,,,,,,,,,,,,,,,,,,,,,,,,,,,,,,,,,,,,,,,408.71150782401673,None,2,0.20692696899641305,408.71150782401673,None,,,,,,,,,,,,,,,,None,None,None,,None,None,408.96124730899464,None,3,1,0.4841054919816088,408.96124730899464,None,409.44461549960835,None,None,None,None,,09,001,2023_Jan_19_1052,searchDisc5,2021.2.3,59.95381434260505,
images/exp1a_trial_41_colour2_distractors31_r.png,r,3,2,31,0,,,,,0,155,155,155,,,,,,,,,,,,,,,,,,,,,,,,,,,,,,,,,,,,,,,,,,,409.4610402469989,None,2,0.20471381899551488,409.4610402469989,None,,,,,,,,,,,,,,,,None,None,None,,None,None,409.71322922300897,None,3,1,0.49869306600885466,409.71322922300897,None,410.211256846608,None,None,None,None,,09,001,2023_Jan_19_1052,searchDisc5,2021.2.3,59.95381434260505,
images/exp1a_trial_88_colour2_distractors31_l.png,l,1,2,31,0,,,,,0,156,156,156,,,,,,,,,,,,,,,,,,,,,,,,,,,,,,,,,,,,,,,,,,,410.2276224970119,None,2,0.272222537023481,410.2276224970119,None,,,,,,,,,,,,,,,,None,None,None,,None,None,410.5439810859971,None,3,0,0.7653035609982908,410.5439810859971,None,411.3113773096091,None,None,None,None,,09,001,2023_Jan_19_1052,searchDisc5,2021.2.3,59.95381434260505,
images/exp1a_trial_124_colour3_distractors19_l.png,l,1,3,19,0,,,,,0,157,157,157,,,,,,,,,,,,,,,,,,,,,,,,,,,,,,,,,,,,,,,,,,,411.32866406301036,None,2,0.43715850700391456,411.32866406301036,None,,,,,,,,,,,,,,,,None,None,None,,None,None,411.8144561049994,None,1,1,0.616756281000562,411.8144561049994,None,412.42803416060343,None,None,None,None,,09,001,2023_Jan_19_1052,searchDisc5,2021.2.3,59.95381434260505,
images/exp2a_trial_265_colour2_distractors31_r.png,r,3,2,31,0,,,,,0,158,158,158,,,,,,,,,,,,,,,,,,,,,,,,,,,,,,,,,,,,,,,,,,,412.4459585410077,None,2,0.19084945699432865,412.4459585410077,None,,,,,,,,,,,,,,,,None,None,None,,None,None,412.68645208800444,None,3,1,0.9413086909917183,412.68645208800444,None,413.6279993315955,None,None,None,None,,09,001,2023_Jan_19_1052,searchDisc5,2021.2.3,59.95381434260505,
images/exp2b_trial_182_colour2_distractors9_l.png,l,1,2,9,0,,,,,0,159,159,159,,,,,,,,,,,,,,,,,,,,,,,,,,,,,,,,,,,,,,,,,,,413.643677295011,None,2,0.20672411200939678,413.643677295011,None,,,,,,,,,,,,,,,,None,None,None,,None,None,413.8964901420113,None,1,1,0.6866944759967737,413.8964901420113,None,414.5790168226202,None,None,None,None,,09,001,2023_Jan_19_1052,searchDisc5,2021.2.3,59.95381434260505,
images/exp1a_trial_21_colour2_distractors4_l.png,l,1,2,4,0,,,,,0,160,160,160,,,,,,,,,,,,,,,,,,,,,,,,,,,,,,,,,,,,,,,,,,,414.5944275690126,None,2,0.18811734800692648,414.5944275690126,None,,,,,,,,,,,,,,,,None,None,None,,None,None,414.8299233300204,None,1,1,0.8008601600013208,414.8299233300204,None,415.63025531259774,None,None,None,None,,09,001,2023_Jan_19_1052,searchDisc5,2021.2.3,59.95381434260505,
images/exp2c_trial_173_colour3_distractors19_r.png,r,3,3,19,0,,,,,0,161,161,161,,,,,,,,,,,,,,,,,,,,,,,,,,,,,,,,,,,,,,,,,,,415.6445381719968,None,2,0.12001294799847528,415.6445381719968,None,,,,,,,,,,,,,,,,None,None,None,,None,None,415.8136607930064,None,3,1,0.9005059960181825,415.8136607930064,None,416.71118478060527,None,None,None,None,,09,001,2023_Jan_19_1052,searchDisc5,2021.2.3,59.95381434260505,
images/exp2b_trial_274_colour1_distractors19_l.png,l,1,1,19,0,,,,,0,162,162,162,,,,,,,,,,,,,,,,,,,,,,,,,,,,,,,,,,,,,,,,,,,416.72855400899425,None,2,0.2372583200049121,416.72855400899425,None,,,,,,,,,,,,,,,,None,None,None,,None,None,417.0143815880001,None,1,1,0.7364038320083637,417.0143815880001,None,417.7448360446113,None,None,None,None,,09,001,2023_Jan_19_1052,searchDisc5,2021.2.3,59.95381434260505,
images/exp2c_trial_7_colour2_distractors9_r.png,r,3,2,9,0,,,,,0,163,163,163,,,,,,,,,,,,,,,,,,,,,,,,,,,,,,,,,,,,,,,,,,,417.7612127090106,None,2,0.22334385800058953,417.7612127090106,None,,,,,,,,,,,,,,,,None,None,None,,None,None,418.03091622301145,None,3,1,1.0042611539829522,418.03091622301145,None,419.0292992645962,None,None,None,None,,09,001,2023_Jan_19_1052,searchDisc5,2021.2.3,59.95381434260505,
images/exp2a_trial_153_colour3_distractors1_l.png,l,1,3,1,0,,,,,0,164,164,164,,,,,,,,,,,,,,,,,,,,,,,,,,,,,,,,,,,,,,,,,,,419.04391730600037,None,2,0.2046781929966528,419.04391730600037,None,,,,,,,,,,,,,,,,None,None,None,,None,None,419.29548018300557,None,1,1,0.6187713299877942,419.29548018300557,None,419.91144710659574,None,None,None,None,,09,001,2023_Jan_19_1052,searchDisc5,2021.2.3,59.95381434260505,
images/exp2a_trial_192_colour1_distractors1_r.png,r,3,1,1,0,,,,,0,165,165,165,,,,,,,,,,,,,,,,,,,,,,,,,,,,,,,,,,,,,,,,,,,419.9304498679994,None,2,0.25458597601391375,419.9304498679994,None,,,,,,,,,,,,,,,,None,None,None,,None,None,420.2285162570188,None,3,1,0.5223971939994954,420.2285162570188,None,420.74495440360334,None,None,None,None,,09,001,2023_Jan_19_1052,searchDisc5,2021.2.3,59.95381434260505,
images/exp2b_trial_134_colour2_distractors4_r.png,r,3,2,4,0,,,,,0,166,166,166,,,,,,,,,,,,,,,,,,,,,,,,,,,,,,,,,,,,,,,,,,,420.7612065699941,None,2,0.2555531630059704,420.7612065699941,None,,,,,,,,,,,,,,,,None,None,None,,None,None,421.06244233000325,None,3,1,0.6529278389934916,421.06244233000325,None,421.7116367976094,None,None,None,None,,09,001,2023_Jan_19_1052,searchDisc5,2021.2.3,59.95381434260505,
images/exp2c_trial_292_colour1_distractors31_r.png,r,3,1,31,0,,,,,0,167,167,167,,,,,,,,,,,,,,,,,,,,,,,,,,,,,,,,,,,,,,,,,,,421.72905841399916,None,2,0.24024475199985318,421.72905841399916,None,,,,,,,,,,,,,,,,None,None,None,,None,None,422.01167231201543,None,3,1,0.632250839000335,422.01167231201543,None,422.6450232856121,None,None,None,None,,09,001,2023_Jan_19_1052,searchDisc5,2021.2.3,59.95381434260505,
images/exp1a_trial_267_colour3_distractors4_r.png,r,3,3,4,0,,,,,0,168,168,168,,,,,,,,,,,,,,,,,,,,,,,,,,,,,,,,,,,,,,,,,,,422.66209234300186,None,2,0.27118019602494314,422.66209234300186,None,,,,,,,,,,,,,,,,None,None,None,,None,None,422.9784529580211,None,3,1,0.503933419007808,422.9784529580211,None,423.4784689875931,None,None,None,None,,09,001,2023_Jan_19_1052,searchDisc5,2021.2.3,59.95381434260505,
images/exp1a_trial_177_colour1_distractors9_l.png,l,1,1,9,0,,,,,0,169,169,169,,,,,,,,,,,,,,,,,,,,,,,,,,,,,,,,,,,,,,,,,,,423.49542640100117,None,2,0.30453777700313367,423.49542640100117,None,,,,,,,,,,,,,,,,None,None,None,,None,None,423.84565461301827,None,1,1,0.7357625089935027,423.84565461301827,None,424.5785000126023,None,None,None,None,,09,001,2023_Jan_19_1052,searchDisc5,2021.2.3,59.95381434260505,
images/exp2a_trial_205_colour3_distractors19_r.png,r,3,3,19,0,,,,,0,170,170,170,,,,,,,,,,,,,,,,,,,,,,,,,,,,,,,,,,,,,,,,,,,424.5947443259938,None,2,0.2712305900058709,424.5947443259938,None,,,,,,,,,,,,,,,,None,None,None,,None,None,424.91188732101,None,3,1,0.7183493259944953,424.91188732101,None,425.6282226766023,None,None,None,None,,09,001,2023_Jan_19_1052,searchDisc5,2021.2.3,59.95381434260505,
images/exp2b_trial_83_colour1_distractors31_l.png,l,1,1,31,0,,,,,0,171,171,171,,,,,,,,,,,,,,,,,,,,,,,,,,,,,,,,,,,,,,,,,,,425.6452166720119,None,2,0.2567814049834851,425.6452166720119,None,,,,,,,,,,,,,,,,None,None,None,,None,None,425.94744400901254,None,1,1,0.7846950310049579,425.94744400901254,None,426.73018133060833,None,None,None,None,,09,001,2023_Jan_19_1052,searchDisc5,2021.2.3,59.95381434260505,
images/exp2a_trial_307_colour1_distractors31_l.png,l,1,1,31,0,,,,,0,172,172,172,,,,,,,,,,,,,,,,,,,,,,,,,,,,,,,,,,,,,,,,,,,426.7476502850186,None,2,0.2372205190185923,426.7476502850186,None,,,,,,,,,,,,,,,,None,None,None,,None,None,427.0303746740101,None,1,1,0.5995160530146677,427.0303746740101,None,427.6284036335972,None,None,None,None,,09,001,2023_Jan_19_1052,searchDisc5,2021.2.3,59.95381434260505,
images/exp2a_trial_90_colour3_distractors4_l.png,l,1,3,4,0,,,,,0,173,173,173,,,,,,,,,,,,,,,,,,,,,,,,,,,,,,,,,,,,,,,,,,,427.6448422620015,None,2,0.22134452700265683,427.6448422620015,None,,,,,,,,,,,,,,,,None,None,None,,None,None,427.9109519300109,None,1,1,1.4382660449773539,427.9109519300109,None,429.34512166460337,None,None,None,None,,09,001,2023_Jan_19_1052,searchDisc5,2021.2.3,59.95381434260505,
images/exp1a_trial_160_colour1_distractors1_r.png,r,3,1,1,0,,,,,0,174,174,174,,,,,,,,,,,,,,,,,,,,,,,,,,,,,,,,,,,,,,,,,,,429.36146677899524,None,2,0.3539440369931981,429.36146677899524,None,,,,,,,,,,,,,,,,None,None,None,,None,None,429.7618551150081,None,3,1,1.3399479250074364,429.7618551150081,None,431.0959895666136,None,None,None,None,,09,001,2023_Jan_19_1052,searchDisc5,2021.2.3,59.95381434260505,
images/exp2b_trial_282_colour3_distractors4_l.png,l,1,3,4,0,,,,,0,175,175,175,,,,,,,,,,,,,,,,,,,,,,,,,,,,,,,,,,,,,,,,,,,431.1135585620068,None,2,0.63799433701206,431.1135585620068,None,,,,,,,,,,,,,,,,None,None,None,,None,None,431.7960514790029,None,1,1,0.4537396300002001,431.7960514790029,None,432.24520641661076,None,None,None,None,,09,001,2023_Jan_19_1052,searchDisc5,2021.2.3,59.95381434260505,
images/exp2b_trial_11_colour3_distractors4_r.png,r,3,3,4,0,,,,,0,176,176,176,,,,,,,,,,,,,,,,,,,,,,,,,,,,,,,,,,,,,,,,,,,432.2646735589951,None,2,0.25476863799849525,432.2646735589951,None,,,,,,,,,,,,,,,,None,None,None,,None,None,432.56146510201506,None,3,1,0.8371865280205384,432.56146510201506,None,433.39632309859445,None,None,None,None,,09,001,2023_Jan_19_1052,searchDisc5,2021.2.3,59.95381434260505,
images/exp2c_trial_103_colour2_distractors9_r.png,r,3,2,9,0,,,,,0,177,177,177,,,,,,,,,,,,,,,,,,,,,,,,,,,,,,,,,,,,,,,,,,,433.41156628201134,None,2,0.2069648809847422,433.41156628201134,None,,,,,,,,,,,,,,,,None,None,None,,None,None,433.66388976800954,None,3,1,0.567372901015915,433.66388976800954,None,434.2287423676142,None,None,None,None,,09,001,2023_Jan_19_1052,searchDisc5,2021.2.3,59.95381434260505,
images/exp2c_trial_119_colour2_distractors19_l.png,l,1,2,19,0,,,,,0,178,178,178,,,,,,,,,,,,,,,,,,,,,,,,,,,,,,,,,,,,,,,,,,,434.24575962900417,None,2,0.2232130590127781,434.24575962900417,None,,,,,,,,,,,,,,,,None,None,None,,None,None,434.513814438018,None,1,1,0.6836955409962684,434.513814438018,None,435.19527566162,None,None,None,None,,09,001,2023_Jan_19_1052,searchDisc5,2021.2.3,59.95381434260505,
images/exp2a_trial_235_colour3_distractors4_r.png,r,3,3,4,0,,,,,0,179,179,179,,,,,,,,,,,,,,,,,,,,,,,,,,,,,,,,,,,,,,,,,,,435.21159236400854,None,2,0.25672895499155857,435.21159236400854,None,,,,,,,,,,,,,,,,None,None,None,,None,None,435.5138756590022,None,3,1,0.5689776000217535,435.5138756590022,None,436.07864827659506,None,None,None,None,,09,001,2023_Jan_19_1052,searchDisc5,2021.2.3,59.95381434260505,
images/exp2b_trial_185_colour3_distractors1_l.png,l,1,3,1,0,,,,,0,180,180,180,,,,,,,,,,,,,,,,,,,,,,,,,,,,,,,,,,,,,,,,,,,436.095639940002,None,2,0.254037034988869,436.095639940002,None,,,,,,,,,,,,,,,,None,None,None,,None,None,436.395447197021,None,1,1,0.5554325609991793,436.395447197021,None,436.94535556962074,None,None,None,None,,09,001,2023_Jan_19_1052,searchDisc5,2021.2.3,59.95381434260505,
images/exp2b_trial_20_colour2_distractors1_l.png,l,1,2,1,0,,,,,0,181,181,181,,,,,,,,,,,,,,,,,,,,,,,,,,,,,,,,,,,,,,,,,,,436.96243954999954,None,2,0.223228635994019,436.96243954999954,None,,,,,,,,,,,,,,,,None,None,None,,None,None,437.22947271101293,None,1,1,0.6198865920014214,437.22947271101293,None,437.84530092359347,None,None,None,None,,09,001,2023_Jan_19_1052,searchDisc5,2021.2.3,59.95381434260505,
images/exp2a_trial_155_colour3_distractors9_l.png,l,1,3,9,0,,,,,0,182,182,182,,,,,,,,,,,,,,,,,,,,,,,,,,,,,,,,,,,,,,,,,,,437.86375987000065,None,2,0.2379544980067294,437.86375987000065,None,,,,,,,,,,,,,,,,None,None,None,,None,None,438.14624680401175,None,1,1,0.5866295330051798,438.14624680401175,None,438.72871684259445,None,None,None,None,,09,001,2023_Jan_19_1052,searchDisc5,2021.2.3,59.95381434260505,
images/exp2a_trial_113_colour1_distractors9_l.png,l,1,1,9,0,,,,,0,183,183,183,,,,,,,,,,,,,,,,,,,,,,,,,,,,,,,,,,,,,,,,,,,438.7472281859955,None,2,0.19081315700896084,438.7472281859955,None,,,,,,,,,,,,,,,,None,None,None,,None,None,438.98094269802095,None,1,1,0.5360260710003786,438.98094269802095,None,439.51304388660066,None,None,None,None,,09,001,2023_Jan_19_1052,searchDisc5,2021.2.3,59.95381434260505,
images/exp2a_trial_202_colour3_distractors1_r.png,r,3,3,1,0,,,,,0,184,184,184,,,,,,,,,,,,,,,,,,,,,,,,,,,,,,,,,,,,,,,,,,,439.52842072802014,None,2,0.28893765099928714,439.52842072802014,None,,,,,,,,,,,,,,,,None,None,None,,None,None,439.86236148900934,None,3,1,0.8184695380041376,439.86236148900934,None,440.67895282260434,None,None,None,None,,09,001,2023_Jan_19_1052,searchDisc5,2021.2.3,59.95381434260505,
images/exp2c_trial_161_colour1_distractors4_r.png,r,3,1,4,0,,,,,0,185,185,185,,,,,,,,,,,,,,,,,,,,,,,,,,,,,,,,,,,,,,,,,,,440.69611308100866,None,2,0.22281732299597934,440.69611308100866,None,,,,,,,,,,,,,,,,None,None,None,,None,None,440.96503546700114,None,3,1,0.6521795880107675,440.96503546700114,None,441.6121256266168,None,None,None,None,,09,001,2023_Jan_19_1052,searchDisc5,2021.2.3,59.95381434260505,
images/exp1a_trial_284_colour3_distractors19_l.png,l,1,3,19,0,,,,,0,186,186,186,,,,,,,,,,,,,,,,,,,,,,,,,,,,,,,,,,,,,,,,,,,441.6280558000144,None,2,0.2722318439919036,441.6280558000144,None,,,,,,,,,,,,,,,,None,None,None,,None,None,441.94621972201276,None,3,0,0.6671520649979357,441.94621972201276,None,442.6121498125984,None,None,None,None,,09,001,2023_Jan_19_1052,searchDisc5,2021.2.3,59.95381434260505,
images/exp2c_trial_306_colour1_distractors19_l.png,l,1,1,19,0,,,,,0,187,187,187,,,,,,,,,,,,,,,,,,,,,,,,,,,,,,,,,,,,,,,,,,,442.6286351100134,None,2,0.38768486300250515,442.6286351100134,None,,,,,,,,,,,,,,,,None,None,None,,None,None,443.0647420650057,None,1,1,0.7683051720086951,443.0647420650057,None,443.830017436613,None,None,None,None,,09,001,2023_Jan_19_1052,searchDisc5,2021.2.3,59.95381434260505,
images/exp2a_trial_95_colour0_distractors0_l.png,l,1,0,0,0,,,,,0,188,188,188,,,,,,,,,,,,,,,,,,,,,,,,,,,,,,,,,,,,,,,,,,,443.8480224170198,None,2,0.17279024800518528,443.8480224170198,None,,,,,,,,,,,,,,,,None,None,None,,None,None,444.06275407600333,None,1,1,0.5690811309905257,444.06275407600333,None,444.628926308619,None,None,None,None,,09,001,2023_Jan_19_1052,searchDisc5,2021.2.3,59.95381434260505,
images/exp2c_trial_252_colour3_distractors19_l.png,l,1,3,19,0,,,,,0,189,189,189,,,,,,,,,,,,,,,,,,,,,,,,,,,,,,,,,,,,,,,,,,,444.64572967399727,None,2,0.2057247799821198,444.64572967399727,None,,,,,,,,,,,,,,,,None,None,None,,None,None,444.8977682029945,None,1,1,0.6350264350185171,444.8977682029945,None,445.5299267916096,None,None,None,None,,09,001,2023_Jan_19_1052,searchDisc5,2021.2.3,59.95381434260505,
images/exp2a_trial_221_colour3_distractors31_l.png,l,1,3,31,0,,,,,0,190,190,190,,,,,,,,,,,,,,,,,,,,,,,,,,,,,,,,,,,,,,,,,,,445.5453212580178,None,2,0.2549633839807939,445.5453212580178,None,,,,,,,,,,,,,,,,None,None,None,,None,None,445.8462794109946,None,1,1,0.5834524889942259,445.8462794109946,None,446.4289105696051,None,None,None,None,,09,001,2023_Jan_19_1052,searchDisc5,2021.2.3,59.95381434260505,
images/exp1a_trial_286_colour0_distractors0_r.png,r,3,0,0,0,,,,,0,191,191,191,,,,,,,,,,,,,,,,,,,,,,,,,,,,,,,,,,,,,,,,,,,446.446455790021,None,2,0.24121059299795888,446.446455790021,None,,,,,,,,,,,,,,,,None,None,None,,None,None,446.7297008210153,None,3,1,0.9532323199964594,446.7297008210153,None,447.679076767611,None,None,None,None,,09,001,2023_Jan_19_1052,searchDisc5,2021.2.3,59.95381434260505,
images/exp2b_trial_144_colour1_distractors4_l.png,l,1,1,4,0,,,,,0,192,192,192,,,,,,,,,,,,,,,,,,,,,,,,,,,,,,,,,,,,,,,,,,,447.69809728799737,None,2,0.21924848499475047,447.69809728799737,None,,,,,,,,,,,,,,,,None,None,None,,None,None,447.9632151800033,None,1,1,0.9042268589837477,447.9632151800033,None,448.8623188796017,None,None,None,None,,09,001,2023_Jan_19_1052,searchDisc5,2021.2.3,59.95381434260505,
images/exp1a_trial_55_colour2_distractors19_l.png,l,1,2,19,0,,,,,0,193,193,193,,,,,,,,,,,,,,,,,,,,,,,,,,,,,,,,,,,,,,,,,,,448.879173541005,None,2,0.22406777300057001,448.879173541005,None,,,,,,,,,,,,,,,,None,None,None,,None,None,449.1487454700109,None,1,1,0.6133837969973683,449.1487454700109,None,449.7623792226048,None,None,None,None,,09,001,2023_Jan_19_1052,searchDisc5,2021.2.3,59.95381434260505,
images/exp2c_trial_142_colour3_distractors31_r.png,r,3,3,31,0,,,,,0,194,194,194,,,,,,,,,,,,,,,,,,,,,,,,,,,,,,,,,,,,,,,,,,,449.7787635560089,None,2,0.27392280398635194,449.7787635560089,None,,,,,,,,,,,,,,,,None,None,None,,None,None,450.0964876630169,None,3,1,1.3992212940065656,450.0964876630169,None,451.49575177559456,None,None,None,None,,09,001,2023_Jan_19_1052,searchDisc5,2021.2.3,59.95381434260505,
images/exp2b_trial_305_colour1_distractors9_l.png,l,1,1,9,0,,,,,0,195,195,195,,,,,,,,,,,,,,,,,,,,,,,,,,,,,,,,,,,,,,,,,,,451.51270379600464,None,2,0.23900646599940956,451.51270379600464,None,,,,,,,,,,,,,,,,None,None,None,,None,None,451.79613076901296,None,1,1,0.7032172869949136,451.79613076901296,None,452.49579576559773,None,None,None,None,,09,001,2023_Jan_19_1052,searchDisc5,2021.2.3,59.95381434260505,
images/exp2b_trial_162_colour1_distractors9_r.png,r,3,1,9,0,,,,,0,196,196,196,,,,,,,,,,,,,,,,,,,,,,,,,,,,,,,,,,,,,,,,,,,452.5130331440014,None,2,0.25432608200935647,452.5130331440014,None,,,,,,,,,,,,,,,,None,None,None,,None,None,452.812936819013,None,3,1,0.586910024023382,452.812936819013,None,453.3960067265987,None,None,None,None,,09,001,2023_Jan_19_1052,searchDisc5,2021.2.3,59.95381434260505,
images/exp2c_trial_105_colour2_distractors31_r.png,r,3,2,31,0,,,,,0,197,197,197,,,,,,,,,,,,,,,,,,,,,,,,,,,,,,,,,,,,,,,,,,,453.4129606890201,None,2,0.28767366299871355,453.4129606890201,None,,,,,,,,,,,,,,,,None,None,None,,None,None,453.74576957299723,None,3,1,0.6844989969977178,453.74576957299723,None,454.4291320616001,None,None,None,None,,09,001,2023_Jan_19_1052,searchDisc5,2021.2.3,59.95381434260505,
images/exp2a_trial_185_colour3_distractors1_l.png,l,1,3,1,0,,,,,0,198,198,198,,,,,,,,,,,,,,,,,,,,,,,,,,,,,,,,,,,,,,,,,,,454.44513236702187,None,2,0.2400461910001468,454.44513236702187,None,,,,,,,,,,,,,,,,None,None,None,,None,None,454.73143591501866,None,1,1,0.8195714000030421,454.73143591501866,None,455.54592480361754,None,None,None,None,,09,001,2023_Jan_19_1052,searchDisc5,2021.2.3,59.95381434260505,
images/exp1a_trial_242_colour1_distractors19_l.png,l,1,1,19,0,,,,,0,199,199,199,,,,,,,,,,,,,,,,,,,,,,,,,,,,,,,,,,,,,,,,,,,455.5629626070149,None,2,0.24280105202342384,455.5629626070149,None,,,,,,,,,,,,,,,,None,None,None,,None,None,455.84529066301184,None,1,1,0.8618031190126203,455.84529066301184,None,456.7125977165968,None,None,None,None,,09,001,2023_Jan_19_1052,searchDisc5,2021.2.3,59.95381434260505,
images/exp2b_trial_316_colour3_distractors19_l.png,l,1,3,19,0,,,,,0,200,200,200,,,,,,,,,,,,,,,,,,,,,,,,,,,,,,,,,,,,,,,,,,,456.72897574299714,None,2,0.18697909300681204,456.72897574299714,None,,,,,,,,,,,,,,,,None,None,None,,None,None,456.96527667401824,None,1,1,0.5388421699753962,456.96527667401824,None,457.49608201061784,None,None,None,None,,09,001,2023_Jan_19_1052,searchDisc5,2021.2.3,59.95381434260505,
images/exp1a_trial_39_colour2_distractors9_r.png,r,3,2,9,0,,,,,0,201,201,201,,,,,,,,,,,,,,,,,,,,,,,,,,,,,,,,,,,,,,,,,,,457.5125860639964,None,2,0.2686041679990012,457.5125860639964,None,,,,,,,,,,,,,,,,None,None,None,,None,None,457.8293008080218,None,3,1,0.585604535008315,457.8293008080218,None,458.4125343215972,None,None,None,None,,09,001,2023_Jan_19_1052,searchDisc5,2021.2.3,59.95381434260505,
images/exp2c_trial_18_colour1_distractors19_l.png,l,1,1,19,0,,,,,0,202,202,202,,,,,,,,,,,,,,,,,,,,,,,,,,,,,,,,,,,,,,,,,,,458.4290190449974,None,2,0.25555435399292037,458.4290190449974,None,,,,,,,,,,,,,,,,None,None,None,,None,None,458.7284948150045,None,1,1,0.6522887879982591,458.7284948150045,None,459.37943906060246,None,None,None,None,,09,001,2023_Jan_19_1052,searchDisc5,2021.2.3,59.95381434260505,
images/exp1a_trial_295_colour2_distractors9_r.png,r,3,2,9,0,,,,,0,203,203,203,,,,,,,,,,,,,,,,,,,,,,,,,,,,,,,,,,,,,,,,,,,459.3957562580181,None,2,0.22402679399237968,459.3957562580181,None,,,,,,,,,,,,,,,,None,None,None,,None,None,459.66458159300964,None,3,1,0.6659208269848023,459.66458159300964,None,460.32927370161343,None,None,None,None,,09,001,2023_Jan_19_1052,searchDisc5,2021.2.3,59.95381434260505,
images/exp1a_trial_144_colour1_distractors4_l.png,l,1,1,4,0,,,,,0,204,204,204,,,,,,,,,,,,,,,,,,,,,,,,,,,,,,,,,,,,,,,,,,,460.3468188930128,None,2,0.23790178500348702,460.3468188930128,None,,,,,,,,,,,,,,,,None,None,None,,None,None,460.63045331000467,None,1,1,0.6195494169951417,460.63045331000467,None,461.24605574659364,None,None,None,None,,09,001,2023_Jan_19_1052,searchDisc5,2021.2.3,59.95381434260505,
images/exp1a_trial_117_colour2_distractors4_l.png,l,1,2,4,0,,,,,0,205,205,205,,,,,,,,,,,,,,,,,,,,,,,,,,,,,,,,,,,,,,,,,,,461.262920587993,None,2,0.25519457599148154,461.262920587993,None,,,,,,,,,,,,,,,,None,None,None,,None,None,461.56175525899744,None,1,1,0.7874964470101986,461.56175525899744,None,462.34706339161204,None,None,None,None,,09,001,2023_Jan_19_1052,searchDisc5,2021.2.3,59.95381434260505,
images/exp1a_trial_7_colour2_distractors9_r.png,r,3,2,9,0,,,,,0,206,206,206,,,,,,,,,,,,,,,,,,,,,,,,,,,,,,,,,,,,,,,,,,,462.3632890750014,None,2,0.15334824100136757,462.3632890750014,None,,,,,,,,,,,,,,,,None,None,None,,None,None,462.5651692599931,None,3,1,0.669368969014613,462.5651692599931,None,463.2294124056032,None,None,None,None,,09,001,2023_Jan_19_1052,searchDisc5,2021.2.3,59.95381434260505,
images/exp2c_trial_199_colour2_distractors9_r.png,r,3,2,9,0,,,,,0,207,207,207,,,,,,,,,,,,,,,,,,,,,,,,,,,,,,,,,,,,,,,,,,,463.24579587299377,None,2,0.22320757000125013,463.24579587299377,None,,,,,,,,,,,,,,,,None,None,None,,None,None,463.513378949021,None,3,1,0.6034004270040896,463.513378949021,None,464.11489239360964,None,None,None,None,,09,001,2023_Jan_19_1052,searchDisc5,2021.2.3,59.95381434260505,
images/exp1a_trial_300_colour3_distractors9_r.png,r,3,3,9,0,,,,,0,208,208,208,,,,,,,,,,,,,,,,,,,,,,,,,,,,,,,,,,,,,,,,,,,464.1300064520037,None,2,0.23638902499806136,464.1300064520037,None,,,,,,,,,,,,,,,,None,None,None,,None,None,464.4131473120069,None,3,1,0.8203906959970482,464.4131473120069,None,465.2316036586097,None,None,None,None,,09,001,2023_Jan_19_1052,searchDisc5,2021.2.3,59.95381434260505,
images/exp2b_trial_156_colour3_distractors19_l.png,l,1,3,19,0,,,,,0,209,209,209,,,,,,,,,,,,,,,,,,,,,,,,,,,,,,,,,,,,,,,,,,,465.2466085900087,None,2,0.23559724498772994,465.2466085900087,None,,,,,,,,,,,,,,,,None,None,None,,None,None,465.53151210199576,None,1,1,0.654855635977583,465.53151210199576,None,466.17955341160706,None,None,None,None,,09,001,2023_Jan_19_1052,searchDisc5,2021.2.3,59.95381434260505,
images/exp2a_trial_220_colour3_distractors19_l.png,l,1,3,19,0,,,,,0,210,210,210,,,,,,,,,,,,,,,,,,,,,,,,,,,,,,,,,,,,,,,,,,,466.1965855680173,None,2,0.2049645689839963,466.1965855680173,None,,,,,,,,,,,,,,,,None,None,None,,None,None,466.4483155350026,None,1,1,0.6497818670177367,466.4483155350026,None,467.09618036760077,None,None,None,None,,09,001,2023_Jan_19_1052,searchDisc5,2021.2.3,59.95381434260505,
images/exp1a_trial_172_colour3_distractors9_r.png,r,3,3,9,0,,,,,0,211,211,211,,,,,,,,,,,,,,,,,,,,,,,,,,,,,,,,,,,,,,,,,,,467.1129441189987,None,2,0.23786585000925697,467.1129441189987,None,,,,,,,,,,,,,,,,None,None,None,,None,None,467.3962234730134,None,3,1,0.6359670450037811,467.3962234730134,None,468.0295769186021,None,None,None,None,,09,001,2023_Jan_19_1052,searchDisc5,2021.2.3,59.95381434260505,
images/exp2b_trial_270_colour3_distractors31_r.png,r,3,3,31,0,,,,,0,212,212,212,,,,,,,,,,,,,,,,,,,,,,,,,,,,,,,,,,,,,,,,,,,468.04693833499914,None,2,0.254292534023989,468.04693833499914,None,,,,,,,,,,,,,,,,None,None,None,,None,None,468.3466128190048,None,3,1,0.7026850150141399,468.3466128190048,None,469.0462866506103,None,None,None,None,,09,001,2023_Jan_19_1052,searchDisc5,2021.2.3,59.95381434260505,
images/exp2a_trial_206_colour3_distractors31_r.png,r,3,3,31,0,,,,,0,213,213,213,,,,,,,,,,,,,,,,,,,,,,,,,,,,,,,,,,,,,,,,,,,469.06233225300093,None,2,0.23968431999674067,469.06233225300093,None,,,,,,,,,,,,,,,,None,None,None,,None,None,469.34734072501305,None,3,1,0.6499466619861778,469.34734072501305,None,469.9963616026187,None,None,None,None,,09,001,2023_Jan_19_1052,searchDisc5,2021.2.3,59.95381434260505,
images/exp2c_trial_57_colour3_distractors1_l.png,l,1,3,1,0,,,,,0,214,214,214,,,,,,,,,,,,,,,,,,,,,,,,,,,,,,,,,,,,,,,,,,,470.01468099301565,None,2,0.25519198400434107,470.01468099301565,None,,,,,,,,,,,,,,,,None,None,None,,None,None,470.3125251349993,None,1,1,0.6706472460064106,470.3125251349993,None,470.97972213860777,None,None,None,None,,09,001,2023_Jan_19_1052,searchDisc5,2021.2.3,59.95381434260505,
images/exp2a_trial_99_colour1_distractors19_r.png,r,3,1,19,0,,,,,0,215,215,215,,,,,,,,,,,,,,,,,,,,,,,,,,,,,,,,,,,,,,,,,,,470.9966267599957,None,2,0.22597470300388522,470.9966267599957,None,,,,,,,,,,,,,,,,None,None,None,,None,None,471.2623007610091,None,3,1,0.7803074349940289,471.2623007610091,None,472.04636057960744,None,None,None,None,,09,001,2023_Jan_19_1052,searchDisc5,2021.2.3,59.95381434260505,
images/exp2c_trial_277_colour2_distractors4_l.png,l,1,2,4,0,,,,,0,216,216,216,,,,,,,,,,,,,,,,,,,,,,,,,,,,,,,,,,,,,,,,,,,472.0624369580182,None,2,0.20661986101185903,472.0624369580182,None,,,,,,,,,,,,,,,,None,None,None,,None,None,472.31493844499346,None,1,1,0.5864831999933813,472.31493844499346,None,472.89629760561803,None,None,None,None,,09,001,2023_Jan_19_1052,searchDisc5,2021.2.3,59.95381434260505,
images/exp2a_trial_210_colour1_distractors19_l.png,l,1,1,19,0,,,,,0,217,217,217,,,,,,,,,,,,,,,,,,,,,,,,,,,,,,,,,,,,,,,,,,,472.91295751399593,None,2,0.2399834769894369,472.91295751399593,None,,,,,,,,,,,,,,,,None,None,None,,None,None,473.196342655021,None,1,1,0.6328909670119174,473.196342655021,None,473.8297285216075,None,None,None,None,,09,001,2023_Jan_19_1052,searchDisc5,2021.2.3,59.95381434260505,
images/exp1a_trial_93_colour3_distractors31_l.png,l,1,3,31,0,,,,,0,218,218,218,,,,,,,,,,,,,,,,,,,,,,,,,,,,,,,,,,,,,,,,,,,473.846987507015,None,2,0.2554224639898166,473.846987507015,None,,,,,,,,,,,,,,,,None,None,None,,None,None,474.14641109202057,None,1,1,1.1987308539974038,474.14641109202057,None,475.34635664059607,None,None,None,None,,09,001,2023_Jan_19_1052,searchDisc5,2021.2.3,59.95381434260505,
images/exp2a_trial_266_colour3_distractors1_r.png,r,3,3,1,0,,,,,0,219,219,219,,,,,,,,,,,,,,,,,,,,,,,,,,,,,,,,,,,,,,,,,,,475.3635856320034,None,2,0.23924098099814728,475.3635856320034,None,,,,,,,,,,,,,,,,None,None,None,,None,None,475.64953897500527,None,3,1,0.5699475100263953,475.64953897500527,None,476.2132361775992,None,None,None,None,,09,001,2023_Jan_19_1052,searchDisc5,2021.2.3,59.95381434260505,
images/exp2c_trial_9_colour2_distractors31_r.png,r,3,2,31,0,,,,,0,220,220,220,,,,,,,,,,,,,,,,,,,,,,,,,,,,,,,,,,,,,,,,,,,476.2301147209946,None,2,0.25541881599929184,476.2301147209946,None,,,,,,,,,,,,,,,,None,None,None,,None,None,476.5302410770091,None,3,1,0.550429332011845,476.5302410770091,None,477.07979207960017,None,None,None,None,,09,001,2023_Jan_19_1052,searchDisc5,2021.2.3,59.95381434260505,
images/exp2c_trial_238_colour3_distractors31_r.png,r,3,3,31,0,,,,,0,221,221,221,,,,,,,,,,,,,,,,,,,,,,,,,,,,,,,,,,,,,,,,,,,477.09669487099745,None,2,0.2373712609987706,477.09669487099745,None,,,,,,,,,,,,,,,,None,None,None,,None,None,477.37969999801135,None,3,1,0.6012641809938941,477.37969999801135,None,477.9797708466038,None,None,None,None,,09,001,2023_Jan_19_1052,searchDisc5,2021.2.3,59.95381434260505,
images/exp2a_trial_224_colour1_distractors1_r.png,r,3,1,1,0,,,,,0,222,222,222,,,,,,,,,,,,,,,,,,,,,,,,,,,,,,,,,,,,,,,,,,,477.996975424001,None,2,0.23977489399840124,477.996975424001,None,,,,,,,,,,,,,,,,None,None,None,,None,None,478.2820000820211,None,3,1,0.7701322530047037,478.2820000820211,None,479.04654640861264,None,None,None,None,,09,001,2023_Jan_19_1052,searchDisc5,2021.2.3,59.95381434260505,
images/exp2b_trial_120_colour2_distractors31_l.png,l,1,2,31,0,,,,,0,223,223,223,,,,,,,,,,,,,,,,,,,,,,,,,,,,,,,,,,,,,,,,,,,479.062810798001,None,2,0.2053327769972384,479.062810798001,None,,,,,,,,,,,,,,,,None,None,None,,None,None,479.3154649750213,None,1,1,0.8176153860113118,479.3154649750213,None,480.1298613996158,None,None,None,None,,09,001,2023_Jan_19_1052,searchDisc5,2021.2.3,59.95381434260505,
images/exp2a_trial_267_colour3_distractors4_r.png,r,3,3,4,0,,,,,0,224,224,224,,,,,,,,,,,,,,,,,,,,,,,,,,,,,,,,,,,,,,,,,,,480.14882234699326,None,2,0.2213302189775277,480.14882234699326,None,,,,,,,,,,,,,,,,None,None,None,,None,None,480.4132560839935,None,3,1,0.954258954996476,480.4132560839935,None,481.36315095360334,None,None,None,None,,09,001,2023_Jan_19_1052,searchDisc5,2021.2.3,59.95381434260505,
