ImageFile,targ_side,correctAnswer,colour,distNo,targetType,trials_2.thisRepN,trials_2.thisTrialN,trials_2.thisN,trials_2.thisIndex,trials.thisRepN,trials.thisTrialN,trials.thisN,trials.thisIndex,text_6.started,text_6.stopped,buttonBox.keys,buttonBox.rt,buttonBox.started,buttonBox.stopped,text_7.started,text_7.stopped,buttonBox_3.keys,buttonBox_3.rt,buttonBox_3.started,buttonBox_3.stopped,text_8.started,text_8.stopped,buttonBox_4.keys,buttonBox_4.rt,buttonBox_4.started,buttonBox_4.stopped,text_9.started,text_9.stopped,buttonBox_5.keys,buttonBox_5.rt,buttonBox_5.started,buttonBox_5.stopped,text_2.started,text_2.stopped,buttonBox_6.keys,buttonBox_6.rt,buttonBox_6.started,buttonBox_6.stopped,text_5.started,text_5.stopped,buttonBox_7.keys,buttonBox_7.rt,image_2.started,image_2.stopped,image_3.started,image_3.stopped,buttonBox_8.keys,buttonBox_8.rt,buttonBox_8.started,buttonBox_8.stopped,polygon.started,polygon.stopped,buttonBox_9.keys,buttonBox_9.rt,buttonBox_9.started,buttonBox_9.stopped,image.started,image.stopped,buttonBox_10.keys,buttonBox_10.corr,buttonBox_10.rt,buttonBox_10.started,buttonBox_10.stopped,text_4.started,text_4.stopped,text.started,text.stopped,buttonBox_11.keys,buttonBox_11.rt,buttonBox_11.started,buttonBox_11.stopped,targetTypeInstruction.started,targetTypeInstruction.stopped,buttonBox_2.keys,buttonBox_2.rt,buttonBox_2.started,buttonBox_2.stopped,dispStimuli.started,dispStimuli.stopped,buttonBox_12.keys,buttonBox_12.corr,buttonBox_12.rt,buttonBox_12.started,buttonBox_12.stopped,breakMessage.started,breakMessage.stopped,buttonBox_13.keys,buttonBox_13.started,buttonBox_13.stopped,buttonBox_13.rt,participant,session,date,expName,psychopyVersion,frameRate,
,,,,,,,,,,,,,,33.5966232069768,None,2,146.81064315797994,33.5966232069768,None,,,,,,,,,,,,,,,,,,,,,,,,,,,,,,,,,,,,,,,,,,,,,,,,,,,,,,,,,,,,,,,,,,,,,,,,,,,,,11,001,2023_Jan_19_1346,searchDisc5,2021.2.3,60.04611205685769,
,,,,,,,,,,,,,,,,,,,,180.39857449699775,None,2,26.148093291005353,180.39857449699775,None,,,,,,,,,,,,,,,,,,,,,,,,,,,,,,,,,,,,,,,,,,,,,,,,,,,,,,,,,,,,,,,,,,,,,,,11,001,2023_Jan_19_1346,searchDisc5,2021.2.3,60.04611205685769,
,,,,,,,,,,,,,,,,,,,,,,,,,,206.54939771798672,None,2,0.16454935900401324,206.54939771798672,None,,,,,,,,,,,,,,,,,,,,,,,,,,,,,,,,,,,,,,,,,,,,,,,,,,,,,,,,,,,,,,,,,11,001,2023_Jan_19_1346,searchDisc5,2021.2.3,60.04611205685769,
,,,,,,,,,,,,,,,,,,,,,,,,,,,,,,,,206.7158636339882,None,2,6.264614429004723,206.7158636339882,None,,,,,,,,,,,,,,,,,,,,,,,,,,,,,,,,,,,,,,,,,,,,,,,,,,,,,,,,,,,11,001,2023_Jan_19_1346,searchDisc5,2021.2.3,60.04611205685769,
,,,,,,,,,,,,,,,,,,,,,,,,,,,,,,,,,,,,,,212.98268527598702,None,2,7.814860325015616,213.96819106198382,None,,,,,,,,,,,,,,,,,,,,,,,,,,,,,,,,,,,,,,,,,,,,,,,,,,,,,11,001,2023_Jan_19_1346,searchDisc5,2021.2.3,60.04611205685769,
,,,,,,,,,,,,,,,,,,,,,,,,,,,,,,,,,,,,,,,,,,,,221.78517460398143,None,2,7.264953542005969,,,,,,,,,,,,,,,,,,,,,,,,,,,,,,,,,,,,,,,,,,,,,,,,,11,001,2023_Jan_19_1346,searchDisc5,2021.2.3,60.04611205685769,
,,,,,,,,,,,,,,,,,,,,,,,,,,,,,,,,,,,,,,,,,,,,,,,,232.04989298898727,None,232.04989298898727,None,2,6.365741848014295,232.04989298898727,None,,,,,,,,,,,,,,,,,,,,,,,,,,,,,,,,,,,,,,,,,11,001,2023_Jan_19_1346,searchDisc5,2021.2.3,60.04611205685769,
Practice arrays/exp1a_trial_23_colour2_distractors19_l.png,l,1,,,,0,0,0,10,,,,,,,,,,,,,,,,,,,,,,,,,,,,,,,,,,,,,,,,,,,,,,,238.4522017609852,None,2,2.0353931080026086,238.4522017609852,None,240.5358911769872,None,1,1,1.3201943500025664,240.5358911769872,None,241.85014570798376,None,,,,,,,,,,,,,,,,,,,,,,,,,,11,001,2023_Jan_19_1346,searchDisc5,2021.2.3,60.04611205685769,
Practice arrays/exp1a_trial_18_colour1_distractors19_l.png,l,1,,,,0,1,1,8,,,,,,,,,,,,,,,,,,,,,,,,,,,,,,,,,,,,,,,,,,,,,,,243.85204303398496,None,2,1.4972346489958,243.85204303398496,None,245.40029639497516,None,1,1,0.8019771219987888,245.40029639497516,None,246.200391226972,None,,,,,,,,,,,,,,,,,,,,,,,,,,11,001,2023_Jan_19_1346,searchDisc5,2021.2.3,60.04611205685769,
Practice arrays/exp1a_trial_0_colour1_distractors1_r.png,r,3,,,,0,2,2,0,,,,,,,,,,,,,,,,,,,,,,,,,,,,,,,,,,,,,,,,,,,,,,,248.20246145999408,None,2,0.39727537901489995,248.20246145999408,None,248.65000110198162,None,3,1,1.2399800179991871,248.65000110198162,None,249.8836393620004,None,,,,,,,,,,,,,,,,,,,,,,,,,,11,001,2023_Jan_19_1346,searchDisc5,2021.2.3,60.04611205685769,
Practice arrays/exp1a_trial_30_colour0_distractors0_r.png,r,3,,,,0,3,3,14,,,,,,,,,,,,,,,,,,,,,,,,,,,,,,,,,,,,,,,,,,,,,,,251.88590644099168,None,2,0.38253475801320747,251.88590644099168,None,252.31731962398044,None,3,1,0.5380336730158888,252.31731962398044,None,252.85045081897988,None,,,,,,,,,,,,,,,,,,,,,,,,,,11,001,2023_Jan_19_1346,searchDisc5,2021.2.3,60.04611205685769,
Practice arrays/exp1a_trial_14_colour3_distractors31_r.png,r,3,,,,0,4,4,6,,,,,,,,,,,,,,,,,,,,,,,,,,,,,,,,,,,,,,,,,,,,,,,254.85264578697388,None,2,0.463399528991431,254.85264578697388,None,255.3674350749934,None,3,1,0.48570638298406266,255.3674350749934,None,255.85007516597398,None,,,,,,,,,,,,,,,,,,,,,,,,,,11,001,2023_Jan_19_1346,searchDisc5,2021.2.3,60.04611205685769,
Practice arrays/exp1a_trial_16_colour1_distractors4_l.png,l,1,,,,0,5,5,13,,,,,,,,,,,,,,,,,,,,,,,,,,,,,,,,,,,,,,,,,,,,,,,257.8527024219802,None,2,0.41389462898951024,257.8527024219802,None,258.3176471499901,None,1,1,1.6392442529904656,258.3176471499901,None,259.950779804989,None,,,,,,,,,,,,,,,,,,,,,,,,,,11,001,2023_Jan_19_1346,searchDisc5,2021.2.3,60.04611205685769,
Practice arrays/exp1a_trial_7_colour2_distractors9_r.png,r,3,,,,0,6,6,2,,,,,,,,,,,,,,,,,,,,,,,,,,,,,,,,,,,,,,,,,,,,,,,261.9524067469756,None,2,0.34946552402107045,261.9524067469756,None,262.3531668749929,None,3,1,0.7155075680057053,262.3531668749929,None,263.067398981977,None,,,,,,,,,,,,,,,,,,,,,,,,,,11,001,2023_Jan_19_1346,searchDisc5,2021.2.3,60.04611205685769,
Practice arrays/exp1a_trial_21_colour2_distractors4_l.png,l,1,,,,0,7,7,9,,,,,,,,,,,,,,,,,,,,,,,,,,,,,,,,,,,,,,,,,,,,,,,265.0691169919737,None,2,0.4320686240098439,265.0691169919737,None,265.5532691979897,None,1,1,0.6831467499723658,265.5532691979897,None,266.23438033199636,None,,,,,,,,,,,,,,,,,,,,,,,,,,11,001,2023_Jan_19_1346,searchDisc5,2021.2.3,60.04611205685769,
Practice arrays/exp1a_trial_10_colour3_distractors1_r.png,r,3,,,,0,8,8,4,,,,,,,,,,,,,,,,,,,,,,,,,,,,,,,,,,,,,,,,,,,,,,,268.23583951199544,None,2,0.4639150889997836,268.23583951199544,None,268.75120368698845,None,3,1,0.8049438069865573,268.75120368698845,None,269.5510228689818,None,,,,,,,,,,,,,,,,,,,,,,,,,,11,001,2023_Jan_19_1346,searchDisc5,2021.2.3,60.04611205685769,
Practice arrays/exp1a_trial_1_colour1_distractors4_r.png,r,3,,,,0,9,9,1,,,,,,,,,,,,,,,,,,,,,,,,,,,,,,,,,,,,,,,,,,,,,,,271.552738104976,None,2,0.4990972880041227,271.552738104976,None,272.10295562897227,None,3,1,0.7366791150125209,272.10295562897227,None,272.8346336129762,None,,,,,,,,,,,,,,,,,,,,,,,,,,11,001,2023_Jan_19_1346,searchDisc5,2021.2.3,60.04611205685769,
Practice arrays/exp1a_trial_12_colour3_distractors9_r.png,r,3,,,,0,10,10,5,,,,,,,,,,,,,,,,,,,,,,,,,,,,,,,,,,,,,,,,,,,,,,,274.8362990519963,None,2,0.4470499849994667,274.8362990519963,None,275.3361809869821,None,3,1,0.7898644910019357,275.3361809869821,None,276.1176685859973,None,,,,,,,,,,,,,,,,,,,,,,,,,,11,001,2023_Jan_19_1346,searchDisc5,2021.2.3,60.04611205685769,
Practice arrays/exp1a_trial_17_colour1_distractors9_l.png,l,1,,,,0,11,11,7,,,,,,,,,,,,,,,,,,,,,,,,,,,,,,,,,,,,,,,,,,,,,,,278.1200184979825,None,2,0.4490758100000676,278.1200184979825,None,278.61992045497755,None,1,1,0.6501447990012821,278.61992045497755,None,279.26802463797503,None,,,,,,,,,,,,,,,,,,,,,,,,,,11,001,2023_Jan_19_1346,searchDisc5,2021.2.3,60.04611205685769,
Practice arrays/exp1a_trial_8_colour2_distractors19_r.png,r,3,,,,0,12,12,3,,,,,,,,,,,,,,,,,,,,,,,,,,,,,,,,,,,,,,,,,,,,,,,281.2700283449958,None,2,0.3827256599906832,281.2700283449958,None,281.70144918499864,None,3,1,0.7676909060101025,281.70144918499864,None,282.4681417119864,None,,,,,,,,,,,,,,,,,,,,,,,,,,11,001,2023_Jan_19_1346,searchDisc5,2021.2.3,60.04611205685769,
Practice arrays/exp1a_trial_31_colour0_distractors0_l.png,l,1,,,,0,13,13,15,,,,,,,,,,,,,,,,,,,,,,,,,,,,,,,,,,,,,,,,,,,,,,,284.4700967739918,None,2,0.4972730840090662,284.4700967739918,None,285.017938865989,None,1,1,0.6056748359987978,285.017938865989,None,285.6181909539737,None,,,,,,,,,,,,,,,,,,,,,,,,,,11,001,2023_Jan_19_1346,searchDisc5,2021.2.3,60.04611205685769,
Practice arrays/exp1a_trial_25_colour3_distractors1_l.png,l,1,,,,0,14,14,11,,,,,,,,,,,,,,,,,,,,,,,,,,,,,,,,,,,,,,,,,,,,,,,287.6199815879809,None,2,0.5155853810138069,287.6199815879809,None,288.187266273977,None,1,1,0.835122805001447,288.187266273977,None,289.0182932949974,None,,,,,,,,,,,,,,,,,,,,,,,,,,11,001,2023_Jan_19_1346,searchDisc5,2021.2.3,60.04611205685769,
Practice arrays/exp1a_trial_27_colour3_distractors9_l.png,l,1,,,,0,15,15,12,,,,,,,,,,,,,,,,,,,,,,,,,,,,,,,,,,,,,,,,,,,,,,,291.01805223798146,None,2,0.45144436400732957,291.01805223798146,None,291.520369321981,None,1,1,0.6720434000017121,291.520369321981,None,292.18505950499093,None,,,,,,,,,,,,,,,,,,,,,,,,,,11,001,2023_Jan_19_1346,searchDisc5,2021.2.3,60.04611205685769,
,,,,,,,,,,,,,,,,,,,,,,,,,,,,,,,,,,,,,,,,,,,,,,,,,,,,,,,,,,,,,,,,,,,,,,,294.2702775839716,None,2,5.697867762006354,295.25384736197884,None,,,,,,,,,,,,,,,,,,,,11,001,2023_Jan_19_1346,searchDisc5,2021.2.3,60.04611205685769,
images/exp1b_trial_136_colour2_distractors19_r.png,r,3,2,19,1,,,,,0,0,0,0,,,,,,,,,,,,,,,,,,,,,,,,,,,,,,,,,,,,,,,,,,,307.5348074789799,None,2,1.2294307819975074,307.5348074789799,None,,,,,,,,,,,,,,,,301.53739137999946,None,2,4.014495534996968,303.52058661999763,None,308.8185906679719,None,3,1,0.865118429006543,308.8185906679719,None,309.7016167585796,None,None,None,None,,11,001,2023_Jan_19_1346,searchDisc5,2021.2.3,60.04611205685769,
images/exp1b_trial_307_colour1_distractors31_l.png,l,1,1,31,1,,,,,0,1,1,1,,,,,,,,,,,,,,,,,,,,,,,,,,,,,,,,,,,,,,,,,,,309.71811158099445,None,2,1.5233147380058654,309.71811158099445,None,,,,,,,,,,,,,,,,None,None,None,,None,None,311.2876403989794,None,1,1,0.7685354190180078,311.2876403989794,None,312.05226070179776,None,None,None,None,,11,001,2023_Jan_19_1346,searchDisc5,2021.2.3,60.04611205685769,
images/exp1b_trial_59_colour3_distractors9_l.png,l,1,3,9,1,,,,,0,2,2,2,,,,,,,,,,,,,,,,,,,,,,,,,,,,,,,,,,,,,,,,,,,312.0710160279996,None,2,1.488029350002762,312.0710160279996,None,,,,,,,,,,,,,,,,None,None,None,,None,None,313.60437449699384,None,1,1,1.3363675129949115,313.60437449699384,None,314.935855897775,None,None,None,None,,11,001,2023_Jan_19_1346,searchDisc5,2021.2.3,60.04611205685769,
images/exp1b_trial_264_colour2_distractors19_r.png,r,3,2,19,1,,,,,0,3,3,3,,,,,,,,,,,,,,,,,,,,,,,,,,,,,,,,,,,,,,,,,,,314.9523005509982,None,2,1.4862918699800503,314.9523005509982,None,,,,,,,,,,,,,,,,None,None,None,,None,None,316.4876203619933,None,3,1,0.6545303050079383,316.4876203619933,None,317.1357376657746,None,None,None,None,,11,001,2023_Jan_19_1346,searchDisc5,2021.2.3,60.04611205685769,
images/exp1b_trial_13_colour3_distractors19_r.png,r,3,3,19,1,,,,,0,4,4,4,,,,,,,,,,,,,,,,,,,,,,,,,,,,,,,,,,,,,,,,,,,317.1517097989854,None,2,1.72008538999944,317.1517097989854,None,,,,,,,,,,,,,,,,None,None,None,,None,None,318.9189303039748,None,3,1,0.8867839130107313,318.9189303039748,None,319.8026545857923,None,None,None,None,,11,001,2023_Jan_19_1346,searchDisc5,2021.2.3,60.04611205685769,
images/exp1b_trial_192_colour1_distractors1_r.png,r,3,1,1,1,,,,,0,5,5,5,,,,,,,,,,,,,,,,,,,,,,,,,,,,,,,,,,,,,,,,,,,319.8187126379926,None,2,1.4699261030182242,319.8187126379926,None,,,,,,,,,,,,,,,,None,None,None,,None,None,321.33522048199666,None,3,1,0.6067407590162475,321.33522048199666,None,321.9357408737909,None,None,None,None,,11,001,2023_Jan_19_1346,searchDisc5,2021.2.3,60.04611205685769,
images/exp1b_trial_202_colour3_distractors1_r.png,r,3,3,1,1,,,,,0,6,6,6,,,,,,,,,,,,,,,,,,,,,,,,,,,,,,,,,,,,,,,,,,,321.9524204839836,None,2,1.1234452670032624,321.9524204839836,None,,,,,,,,,,,,,,,,None,None,None,,None,None,323.12138274899917,None,3,1,0.6548434960131999,323.12138274899917,None,323.7692643057875,None,None,None,None,,11,001,2023_Jan_19_1346,searchDisc5,2021.2.3,60.04611205685769,
images/exp1b_trial_247_colour2_distractors19_l.png,l,1,2,19,1,,,,,0,7,7,7,,,,,,,,,,,,,,,,,,,,,,,,,,,,,,,,,,,,,,,,,,,323.7853252569912,None,2,1.4884984169912059,323.7853252569912,None,,,,,,,,,,,,,,,,None,None,None,,None,None,325.32145974598825,None,1,1,0.7035785049956758,325.32145974598825,None,326.0193018257763,None,None,None,None,,11,001,2023_Jan_19_1346,searchDisc5,2021.2.3,60.04611205685769,
images/exp1b_trial_226_colour1_distractors9_r.png,r,3,1,9,1,,,,,0,8,8,8,,,,,,,,,,,,,,,,,,,,,,,,,,,,,,,,,,,,,,,,,,,326.03584381198743,None,2,1.3888531659904402,326.03584381198743,None,,,,,,,,,,,,,,,,None,None,None,,None,None,327.4692711659882,None,3,1,1.354852757009212,327.4692711659882,None,328.8192945407849,None,None,None,None,,11,001,2023_Jan_19_1346,searchDisc5,2021.2.3,60.04611205685769,
images/exp1b_trial_33_colour1_distractors4_r.png,r,3,1,4,1,,,,,0,9,9,9,,,,,,,,,,,,,,,,,,,,,,,,,,,,,,,,,,,,,,,,,,,328.83522524900036,None,2,0.7377539559965953,328.83522524900036,None,,,,,,,,,,,,,,,,None,None,None,,None,None,329.6215305989899,None,3,1,0.589163935976103,329.6215305989899,None,330.2027682497777,None,None,None,None,,11,001,2023_Jan_19_1346,searchDisc5,2021.2.3,60.04611205685769,
images/exp1b_trial_99_colour1_distractors19_r.png,r,3,1,19,1,,,,,0,10,10,10,,,,,,,,,,,,,,,,,,,,,,,,,,,,,,,,,,,,,,,,,,,330.2190763949766,None,2,1.306593604007503,330.2190763949766,None,,,,,,,,,,,,,,,,None,None,None,,None,None,331.57148519097245,None,3,1,0.5868894709856249,331.57148519097245,None,332.15408120577047,None,None,None,None,,11,001,2023_Jan_19_1346,searchDisc5,2021.2.3,60.04611205685769,
images/exp1b_trial_260_colour1_distractors31_r.png,r,3,1,31,1,,,,,0,11,11,11,,,,,,,,,,,,,,,,,,,,,,,,,,,,,,,,,,,,,,,,,,,332.1694750379829,None,2,1.6368190170032904,332.1694750379829,None,,,,,,,,,,,,,,,,None,None,None,,None,None,333.8534506239812,None,3,1,0.5377465909987222,333.8534506239812,None,334.3863876847812,None,None,None,None,,11,001,2023_Jan_19_1346,searchDisc5,2021.2.3,60.04611205685769,
images/exp1b_trial_298_colour3_distractors1_r.png,r,3,3,1,1,,,,,0,12,12,12,,,,,,,,,,,,,,,,,,,,,,,,,,,,,,,,,,,,,,,,,,,334.40296889297315,None,2,1.5533289239974692,334.40296889297315,None,,,,,,,,,,,,,,,,None,None,None,,None,None,336.0029630379868,None,3,1,0.7236927399935666,336.0029630379868,None,336.71930326177096,None,None,None,None,,11,001,2023_Jan_19_1346,searchDisc5,2021.2.3,60.04611205685769,
images/exp1b_trial_30_colour0_distractors0_r.png,r,3,0,0,1,,,,,0,13,13,13,,,,,,,,,,,,,,,,,,,,,,,,,,,,,,,,,,,,,,,,,,,336.7365739569941,None,2,1.5706152520142496,336.7365739569941,None,,,,,,,,,,,,,,,,None,None,None,,None,None,338.35255318897543,None,3,1,0.5045412989857141,338.35255318897543,None,338.85322646076963,None,None,None,None,,11,001,2023_Jan_19_1346,searchDisc5,2021.2.3,60.04611205685769,
images/exp1b_trial_75_colour3_distractors4_r.png,r,3,3,4,1,,,,,0,14,14,14,,,,,,,,,,,,,,,,,,,,,,,,,,,,,,,,,,,,,,,,,,,338.86963559899596,None,2,1.4546103830216452,338.86963559899596,None,,,,,,,,,,,,,,,,None,None,None,,None,None,340.37233945998014,None,3,1,0.6558617469854653,340.37233945998014,None,341.01985139579335,None,None,None,None,,11,001,2023_Jan_19_1346,searchDisc5,2021.2.3,60.04611205685769,
images/exp1b_trial_131_colour1_distractors19_r.png,r,3,1,19,1,,,,,0,15,15,15,,,,,,,,,,,,,,,,,,,,,,,,,,,,,,,,,,,,,,,,,,,341.0364090939984,None,2,1.4220296269922983,341.0364090939984,None,,,,,,,,,,,,,,,,None,None,None,,None,None,342.50463317497633,None,3,1,0.5864242849929724,342.50463317497633,None,343.08649213477327,None,None,None,None,,11,001,2023_Jan_19_1346,searchDisc5,2021.2.3,60.04611205685769,
images/exp1b_trial_48_colour1_distractors4_l.png,l,1,1,4,1,,,,,0,16,16,16,,,,,,,,,,,,,,,,,,,,,,,,,,,,,,,,,,,,,,,,,,,343.10357661999296,None,2,1.422212788980687,343.10357661999296,None,,,,,,,,,,,,,,,,None,None,None,,None,None,344.5722343249945,None,1,1,0.6012706339824945,344.5722343249945,None,345.16995673777126,None,None,None,None,,11,001,2023_Jan_19_1346,searchDisc5,2021.2.3,60.04611205685769,
images/exp1b_trial_125_colour3_distractors31_l.png,l,1,3,31,1,,,,,0,17,17,17,,,,,,,,,,,,,,,,,,,,,,,,,,,,,,,,,,,,,,,,,,,345.1891037939931,None,2,1.3045426330063492,345.1891037939931,None,,,,,,,,,,,,,,,,None,None,None,,None,None,346.5367414209759,None,1,1,0.970295453997096,346.5367414209759,None,347.50341094377507,None,None,None,None,,11,001,2023_Jan_19_1346,searchDisc5,2021.2.3,60.04611205685769,
images/exp1b_trial_283_colour3_distractors9_l.png,l,1,3,9,1,,,,,0,18,18,18,,,,,,,,,,,,,,,,,,,,,,,,,,,,,,,,,,,,,,,,,,,347.51985581597546,None,2,1.4889941359870136,347.51985581597546,None,,,,,,,,,,,,,,,,None,None,None,,None,None,349.0535634229891,None,1,1,0.8204510989889968,349.0535634229891,None,349.8700873717811,None,None,None,None,,11,001,2023_Jan_19_1346,searchDisc5,2021.2.3,60.04611205685769,
images/exp1b_trial_157_colour3_distractors31_l.png,l,1,3,31,1,,,,,0,19,19,19,,,,,,,,,,,,,,,,,,,,,,,,,,,,,,,,,,,,,,,,,,,349.8871559529798,None,2,1.2908376599953044,349.8871559529798,None,,,,,,,,,,,,,,,,None,None,None,,None,None,351.2219445769733,None,1,1,0.8354418750095647,351.2219445769733,None,352.05342569777565,None,None,None,None,,11,001,2023_Jan_19_1346,searchDisc5,2021.2.3,60.04611205685769,
images/exp1b_trial_47_colour1_distractors1_l.png,l,1,1,1,1,,,,,0,20,20,20,,,,,,,,,,,,,,,,,,,,,,,,,,,,,,,,,,,,,,,,,,,352.06942094198894,None,2,1.5216453329776414,352.06942094198894,None,,,,,,,,,,,,,,,,None,None,None,,None,None,353.6390397499781,None,1,1,0.722289911005646,353.6390397499781,None,354.35356701577837,None,None,None,None,,11,001,2023_Jan_19_1346,searchDisc5,2021.2.3,60.04611205685769,
images/exp1b_trial_115_colour1_distractors31_l.png,l,1,1,31,1,,,,,0,21,21,21,,,,,,,,,,,,,,,,,,,,,,,,,,,,,,,,,,,,,,,,,,,354.37021326698596,None,2,1.1558433450118173,354.37021326698596,None,,,,,,,,,,,,,,,,None,None,None,,None,None,355.5701797019865,None,1,1,0.6660631080158055,355.5701797019865,None,356.2361717377702,None,None,None,None,,11,001,2023_Jan_19_1346,searchDisc5,2021.2.3,60.04611205685769,
images/exp1b_trial_317_colour3_distractors31_l.png,l,1,3,31,1,,,,,0,22,22,22,,,,,,,,,,,,,,,,,,,,,,,,,,,,,,,,,,,,,,,,,,,356.25439160197857,None,2,1.2226391670119483,356.25439160197857,None,,,,,,,,,,,,,,,,None,None,None,,None,None,357.52055554499384,None,1,1,0.6187224269961007,357.52055554499384,None,358.13640571079156,None,None,None,None,,11,001,2023_Jan_19_1346,searchDisc5,2021.2.3,60.04611205685769,
images/exp1b_trial_15_colour1_distractors1_l.png,l,1,1,1,1,,,,,0,23,23,23,,,,,,,,,,,,,,,,,,,,,,,,,,,,,,,,,,,,,,,,,,,358.1545040939818,None,2,1.2394454599998426,358.1545040939818,None,,,,,,,,,,,,,,,,None,None,None,,None,None,359.4391919839836,None,1,1,0.6053401439858135,359.4391919839836,None,360.03699915677714,None,None,None,None,,11,001,2023_Jan_19_1346,searchDisc5,2021.2.3,60.04611205685769,
images/exp1b_trial_22_colour2_distractors9_l.png,l,1,2,9,1,,,,,0,24,24,24,,,,,,,,,,,,,,,,,,,,,,,,,,,,,,,,,,,,,,,,,,,360.05563948399504,None,2,1.6046603830181994,360.05563948399504,None,,,,,,,,,,,,,,,,None,None,None,,None,None,361.7047094209993,None,1,1,0.5887038859946188,361.7047094209993,None,362.28707748778686,None,None,None,None,,11,001,2023_Jan_19_1346,searchDisc5,2021.2.3,60.04611205685769,
images/exp1b_trial_69_colour2_distractors1_r.png,r,3,2,1,1,,,,,0,25,25,25,,,,,,,,,,,,,,,,,,,,,,,,,,,,,,,,,,,,,,,,,,,362.30606464197626,None,2,1.4548797929892316,362.30606464197626,None,,,,,,,,,,,,,,,,None,None,None,,None,None,363.80386087298393,None,3,1,0.6242451530124526,363.80386087298393,None,364.4214399957767,None,None,None,None,,11,001,2023_Jan_19_1346,searchDisc5,2021.2.3,60.04611205685769,
images/exp1b_trial_164_colour1_distractors31_r.png,r,3,1,31,1,,,,,0,26,26,26,,,,,,,,,,,,,,,,,,,,,,,,,,,,,,,,,,,,,,,,,,,364.4389793109731,None,2,1.3702574619965162,364.4389793109731,None,,,,,,,,,,,,,,,,None,None,None,,None,None,365.8562096519745,None,3,1,0.6525366549903993,365.8562096519745,None,366.5035609337705,None,None,None,None,,11,001,2023_Jan_19_1346,searchDisc5,2021.2.3,60.04611205685769,
images/exp1b_trial_296_colour2_distractors19_r.png,r,3,2,19,1,,,,,0,27,27,27,,,,,,,,,,,,,,,,,,,,,,,,,,,,,,,,,,,,,,,,,,,366.52148951098206,None,2,1.458158777008066,366.52148951098206,None,,,,,,,,,,,,,,,,None,None,None,,None,None,368.0209371879755,None,3,1,0.6530314309929963,368.0209371879755,None,368.6705301497917,None,None,None,None,,11,001,2023_Jan_19_1346,searchDisc5,2021.2.3,60.04611205685769,
images/exp1b_trial_285_colour3_distractors31_l.png,l,1,3,31,1,,,,,0,28,28,28,,,,,,,,,,,,,,,,,,,,,,,,,,,,,,,,,,,,,,,,,,,368.68933297597687,None,2,1.3710079469892662,368.68933297597687,None,,,,,,,,,,,,,,,,None,None,None,,None,None,370.1060344329744,None,1,1,1.2022016159899067,370.1060344329744,None,371.3036126107821,None,None,None,None,,11,001,2023_Jan_19_1346,searchDisc5,2021.2.3,60.04611205685769,
images/exp1b_trial_88_colour2_distractors31_l.png,l,1,2,31,1,,,,,0,29,29,29,,,,,,,,,,,,,,,,,,,,,,,,,,,,,,,,,,,,,,,,,,,371.3211572399887,None,2,1.1057569989934564,371.3211572399887,None,,,,,,,,,,,,,,,,None,None,None,,None,None,372.4710457919864,None,1,1,0.818573150987504,372.4710457919864,None,373.2874145417794,None,None,None,None,,11,001,2023_Jan_19_1346,searchDisc5,2021.2.3,60.04611205685769,
images/exp1b_trial_90_colour3_distractors4_l.png,l,1,3,4,1,,,,,0,30,30,30,,,,,,,,,,,,,,,,,,,,,,,,,,,,,,,,,,,,,,,,,,,373.30467553899507,None,2,1.0891603030031547,373.30467553899507,None,,,,,,,,,,,,,,,,None,None,None,,None,None,374.4404077799991,None,1,1,0.7375438369926997,374.4404077799991,None,375.17068877079,None,None,None,None,,11,001,2023_Jan_19_1346,searchDisc5,2021.2.3,60.04611205685769,
images/exp1b_trial_257_colour1_distractors4_r.png,r,3,1,4,1,,,,,0,31,31,31,,,,,,,,,,,,,,,,,,,,,,,,,,,,,,,,,,,,,,,,,,,375.1872728439921,None,2,1.071143970999401,375.1872728439921,None,,,,,,,,,,,,,,,,None,None,None,,None,None,376.30667551999795,None,3,1,0.6727856110082939,376.30667551999795,None,376.9711629777943,None,None,None,None,,11,001,2023_Jan_19_1346,searchDisc5,2021.2.3,60.04611205685769,
images/exp1b_trial_46_colour3_distractors31_r.png,r,3,3,31,1,,,,,0,32,32,32,,,,,,,,,,,,,,,,,,,,,,,,,,,,,,,,,,,,,,,,,,,376.98806483499357,None,2,1.0737754979927558,376.98806483499357,None,,,,,,,,,,,,,,,,None,None,None,,None,None,378.104407316976,None,3,1,0.5671260970120784,378.104407316976,None,378.6708192377904,None,None,None,None,,11,001,2023_Jan_19_1346,searchDisc5,2021.2.3,60.04611205685769,
images/exp1b_trial_181_colour2_distractors4_l.png,l,1,2,4,1,,,,,0,33,33,33,,,,,,,,,,,,,,,,,,,,,,,,,,,,,,,,,,,,,,,,,,,378.6881625019887,None,2,1.1720812679850496,378.6881625019887,None,,,,,,,,,,,,,,,,None,None,None,,None,None,379.90415475697955,None,1,1,0.6406294929911382,379.90415475697955,None,380.5386387647799,None,None,None,None,,11,001,2023_Jan_19_1346,searchDisc5,2021.2.3,60.04611205685769,
images/exp1b_trial_316_colour3_distractors19_l.png,l,1,3,19,1,,,,,0,34,34,34,,,,,,,,,,,,,,,,,,,,,,,,,,,,,,,,,,,,,,,,,,,380.55399574898183,None,2,1.1391961899935268,380.55399574898183,None,,,,,,,,,,,,,,,,None,None,None,,None,None,381.7405666859995,None,1,1,0.7017265110043809,381.7405666859995,None,382.43874252479,None,None,None,None,,11,001,2023_Jan_19_1346,searchDisc5,2021.2.3,60.04611205685769,
images/exp1b_trial_23_colour2_distractors19_l.png,l,1,2,19,1,,,,,0,35,35,35,,,,,,,,,,,,,,,,,,,,,,,,,,,,,,,,,,,,,,,,,,,382.45343561598565,None,2,1.1039793410163838,382.45343561598565,None,,,,,,,,,,,,,,,,None,None,None,,None,None,383.606514952,None,1,1,0.6202130889869295,383.606514952,None,384.2209857907932,None,None,None,None,,11,001,2023_Jan_19_1346,searchDisc5,2021.2.3,60.04611205685769,
images/exp1b_trial_252_colour3_distractors19_l.png,l,1,3,19,1,,,,,0,36,36,36,,,,,,,,,,,,,,,,,,,,,,,,,,,,,,,,,,,,,,,,,,,384.2381232289772,None,2,1.0542090800008737,384.2381232289772,None,,,,,,,,,,,,,,,,None,None,None,,None,None,385.33884764899267,None,1,1,0.7047061399789527,385.33884764899267,None,386.0378176227881,None,None,None,None,,11,001,2023_Jan_19_1346,searchDisc5,2021.2.3,60.04611205685769,
images/exp1b_trial_80_colour1_distractors4_l.png,l,1,1,4,1,,,,,0,37,37,37,,,,,,,,,,,,,,,,,,,,,,,,,,,,,,,,,,,,,,,,,,,386.0538331939897,None,2,0.9362108190252911,386.0538331939897,None,,,,,,,,,,,,,,,,None,None,None,,None,None,387.03860363099375,None,1,1,0.8035893409978598,387.03860363099375,None,387.8378691147867,None,None,None,None,,11,001,2023_Jan_19_1346,searchDisc5,2021.2.3,60.04611205685769,
images/exp1b_trial_116_colour2_distractors1_l.png,l,1,2,1,1,,,,,0,38,38,38,,,,,,,,,,,,,,,,,,,,,,,,,,,,,,,,,,,,,,,,,,,387.854912003997,None,2,0.9878132849989925,387.854912003997,None,,,,,,,,,,,,,,,,None,None,None,,None,None,388.8887618879962,None,1,1,0.6894445680081844,388.8887618879962,None,389.57108978277245,None,None,None,None,,11,001,2023_Jan_19_1346,searchDisc5,2021.2.3,60.04611205685769,
images/exp1b_trial_100_colour1_distractors31_r.png,r,3,1,31,1,,,,,0,39,39,39,,,,,,,,,,,,,,,,,,,,,,,,,,,,,,,,,,,,,,,,,,,389.5902353769925,None,2,1.07635915800347,389.5902353769925,None,,,,,,,,,,,,,,,,None,None,None,,None,None,390.7081801299937,None,3,1,0.5964946870226413,390.7081801299937,None,391.304489229797,None,None,None,None,,11,001,2023_Jan_19_1346,searchDisc5,2021.2.3,60.04611205685769,
images/exp1b_trial_180_colour2_distractors1_l.png,l,1,2,1,1,,,,,0,40,40,40,,,,,,,,,,,,,,,,,,,,,,,,,,,,,,,,,,,,,,,,,,,391.32315981699503,None,2,1.0388724629883654,391.32315981699503,None,,,,,,,,,,,,,,,,None,None,None,,None,None,392.4067303019983,None,1,1,0.7389397070219275,392.4067303019983,None,393.13789026077427,None,None,None,None,,11,001,2023_Jan_19_1346,searchDisc5,2021.2.3,60.04611205685769,
images/exp1b_trial_205_colour3_distractors19_r.png,r,3,3,19,1,,,,,0,41,41,41,,,,,,,,,,,,,,,,,,,,,,,,,,,,,,,,,,,,,,,,,,,393.15441616799217,None,2,1.1046695889963303,393.15441616799217,None,,,,,,,,,,,,,,,,None,None,None,,None,None,394.30735624898807,None,3,1,0.6536783940100577,394.30735624898807,None,394.95463158579366,None,None,None,None,,11,001,2023_Jan_19_1346,searchDisc5,2021.2.3,60.04611205685769,
images/exp1b_trial_92_colour3_distractors19_l.png,l,1,3,19,1,,,,,0,42,42,42,,,,,,,,,,,,,,,,,,,,,,,,,,,,,,,,,,,,,,,,,,,394.97097419097554,None,2,0.8879907829978038,394.97097419097554,None,,,,,,,,,,,,,,,,None,None,None,,None,None,395.90746525497525,None,1,1,0.7049481119902339,395.90746525497525,None,396.60484534277055,None,None,None,None,,11,001,2023_Jan_19_1346,searchDisc5,2021.2.3,60.04611205685769,
images/exp1b_trial_303_colour1_distractors1_l.png,l,1,1,1,1,,,,,0,43,43,43,,,,,,,,,,,,,,,,,,,,,,,,,,,,,,,,,,,,,,,,,,,396.6203792140004,None,2,0.9393391280027572,396.6203792140004,None,,,,,,,,,,,,,,,,None,None,None,,None,None,397.6071754329896,None,1,1,0.7867804910056293,397.6071754329896,None,398.38812493078,None,None,None,None,,11,001,2023_Jan_19_1346,searchDisc5,2021.2.3,60.04611205685769,
images/exp1b_trial_208_colour1_distractors4_l.png,l,1,1,4,1,,,,,0,44,44,44,,,,,,,,,,,,,,,,,,,,,,,,,,,,,,,,,,,,,,,,,,,398.4036057689809,None,2,0.9399671100254636,398.4036057689809,None,,,,,,,,,,,,,,,,None,None,None,,None,None,399.38824041897897,None,1,1,0.653303014987614,399.38824041897897,None,400.0377571637713,None,None,None,None,,11,001,2023_Jan_19_1346,searchDisc5,2021.2.3,60.04611205685769,
images/exp1b_trial_53_colour2_distractors4_l.png,l,1,2,4,1,,,,,0,45,45,45,,,,,,,,,,,,,,,,,,,,,,,,,,,,,,,,,,,,,,,,,,,400.0549366839987,None,2,1.1050776620104443,400.0549366839987,None,,,,,,,,,,,,,,,,None,None,None,,None,None,401.20742817097926,None,1,1,0.7537405219918583,401.20742817097926,None,401.95482890277924,None,None,None,None,,11,001,2023_Jan_19_1346,searchDisc5,2021.2.3,60.04611205685769,
images/exp1b_trial_130_colour1_distractors9_r.png,r,3,1,9,1,,,,,0,46,46,46,,,,,,,,,,,,,,,,,,,,,,,,,,,,,,,,,,,,,,,,,,,401.97134832199663,None,2,1.0205970039824024,401.97134832199663,None,,,,,,,,,,,,,,,,None,None,None,,None,None,403.0393437699822,None,3,1,0.5217866890016012,403.0393437699822,None,403.55483858877267,None,None,None,None,,11,001,2023_Jan_19_1346,searchDisc5,2021.2.3,60.04611205685769,
images/exp1b_trial_38_colour2_distractors4_r.png,r,3,2,4,1,,,,,0,47,47,47,,,,,,,,,,,,,,,,,,,,,,,,,,,,,,,,,,,,,,,,,,,403.5718242399744,None,2,1.087947574997088,403.5718242399744,None,,,,,,,,,,,,,,,,None,None,None,,None,None,404.70792356098536,None,3,1,0.5394767379912082,404.70792356098536,None,405.238295357782,None,None,None,None,,11,001,2023_Jan_19_1346,searchDisc5,2021.2.3,60.04611205685769,
images/exp1b_trial_254_colour0_distractors0_r.png,r,3,0,0,1,,,,,0,48,48,48,,,,,,,,,,,,,,,,,,,,,,,,,,,,,,,,,,,,,,,,,,,405.25543284599553,None,2,1.0201936939847656,405.25543284599553,None,,,,,,,,,,,,,,,,None,None,None,,None,None,406.3219838659861,None,3,1,0.5725171290105209,406.3219838659861,None,406.88832115177354,None,None,None,None,,11,001,2023_Jan_19_1346,searchDisc5,2021.2.3,60.04611205685769,
images/exp1b_trial_261_colour2_distractors1_r.png,r,3,2,1,1,,,,,0,49,49,49,,,,,,,,,,,,,,,,,,,,,,,,,,,,,,,,,,,,,,,,,,,406.90532507997705,None,2,1.0388139600108843,406.90532507997705,None,,,,,,,,,,,,,,,,None,None,None,,None,None,407.98771811899496,None,3,1,0.5904134579759557,407.98771811899496,None,408.5727505527815,None,None,None,None,,11,001,2023_Jan_19_1346,searchDisc5,2021.2.3,60.04611205685769,
images/exp1b_trial_173_colour3_distractors19_r.png,r,3,3,19,1,,,,,0,50,50,50,,,,,,,,,,,,,,,,,,,,,,,,,,,,,,,,,,,,,,,,,,,408.588150992,None,2,0.988518252997892,408.588150992,None,,,,,,,,,,,,,,,,None,None,None,,None,None,409.6213529659726,None,3,1,0.6021783360047266,409.6213529659726,None,410.2216805097909,None,None,None,None,,11,001,2023_Jan_19_1346,searchDisc5,2021.2.3,60.04611205685769,
images/exp1b_trial_310_colour2_distractors9_l.png,l,1,2,9,1,,,,,0,51,51,51,,,,,,,,,,,,,,,,,,,,,,,,,,,,,,,,,,,,,,,,,,,410.2380775559868,None,2,1.173268772981828,410.2380775559868,None,,,,,,,,,,,,,,,,None,None,None,,None,None,411.4573589639913,None,1,1,0.6201183200173546,411.4573589639913,None,412.07175438879347,None,None,None,None,,11,001,2023_Jan_19_1346,searchDisc5,2021.2.3,60.04611205685769,
images/exp1b_trial_217_colour3_distractors1_l.png,l,1,3,1,1,,,,,0,52,52,52,,,,,,,,,,,,,,,,,,,,,,,,,,,,,,,,,,,,,,,,,,,412.0882479249849,None,2,1.1212185949843843,412.0882479249849,None,,,,,,,,,,,,,,,,None,None,None,,None,None,413.25583901198115,None,1,1,0.7734354720159899,413.25583901198115,None,414.0219241427752,None,None,None,None,,11,001,2023_Jan_19_1346,searchDisc5,2021.2.3,60.04611205685769,
images/exp1b_trial_104_colour2_distractors19_r.png,r,3,2,19,1,,,,,0,53,53,53,,,,,,,,,,,,,,,,,,,,,,,,,,,,,,,,,,,,,,,,,,,414.0401314019982,None,2,1.0220277149928734,414.0401314019982,None,,,,,,,,,,,,,,,,None,None,None,,None,None,415.1064489609853,None,3,1,0.6549911389884073,415.1064489609853,None,415.7561752037931,None,None,None,None,,11,001,2023_Jan_19_1346,searchDisc5,2021.2.3,60.04611205685769,
images/exp1b_trial_120_colour2_distractors31_l.png,l,1,2,31,1,,,,,0,54,54,54,,,,,,,,,,,,,,,,,,,,,,,,,,,,,,,,,,,,,,,,,,,415.7716619129933,None,2,1.1376007290091366,415.7716619129933,None,,,,,,,,,,,,,,,,None,None,None,,None,None,416.95777407399146,None,1,1,0.6526329460029956,416.95777407399146,None,417.60516475378824,None,None,None,None,,11,001,2023_Jan_19_1346,searchDisc5,2021.2.3,60.04611205685769,
images/exp1b_trial_82_colour1_distractors19_l.png,l,1,1,19,1,,,,,0,55,55,55,,,,,,,,,,,,,,,,,,,,,,,,,,,,,,,,,,,,,,,,,,,417.6242391629785,None,2,1.0390376979776192,417.6242391629785,None,,,,,,,,,,,,,,,,None,None,None,,None,None,418.7082199329743,None,1,1,0.8031480489880778,418.7082199329743,None,419.50530009177453,None,None,None,None,,11,001,2023_Jan_19_1346,searchDisc5,2021.2.3,60.04611205685769,
images/exp1b_trial_66_colour1_distractors9_r.png,r,3,1,9,1,,,,,0,56,56,56,,,,,,,,,,,,,,,,,,,,,,,,,,,,,,,,,,,,,,,,,,,419.52256090499577,None,2,0.9735980179975741,419.52256090499577,None,,,,,,,,,,,,,,,,None,None,None,,None,None,420.53855324399774,None,3,1,0.5861302590055857,420.53855324399774,None,421.1220220737945,None,None,None,None,,11,001,2023_Jan_19_1346,searchDisc5,2021.2.3,60.04611205685769,
images/exp1b_trial_128_colour1_distractors1_r.png,r,3,1,1,1,,,,,0,57,57,57,,,,,,,,,,,,,,,,,,,,,,,,,,,,,,,,,,,,,,,,,,,421.13846046698745,None,2,1.0222769579850137,421.13846046698745,None,,,,,,,,,,,,,,,,None,None,None,,None,None,422.2055277709733,None,3,1,0.5722664050117601,422.2055277709733,None,422.7718766877864,None,None,None,None,,11,001,2023_Jan_19_1346,searchDisc5,2021.2.3,60.04611205685769,
images/exp1b_trial_171_colour3_distractors4_r.png,r,3,3,4,1,,,,,0,58,58,58,,,,,,,,,,,,,,,,,,,,,,,,,,,,,,,,,,,,,,,,,,,422.78928653299226,None,2,0.9065112640091684,422.78928653299226,None,,,,,,,,,,,,,,,,None,None,None,,None,None,423.7408929549856,None,3,1,0.6040344429784454,423.7408929549856,None,424.3387853557855,None,None,None,None,,11,001,2023_Jan_19_1346,searchDisc5,2021.2.3,60.04611205685769,
images/exp1b_trial_21_colour2_distractors4_l.png,l,1,2,4,1,,,,,0,59,59,59,,,,,,,,,,,,,,,,,,,,,,,,,,,,,,,,,,,,,,,,,,,424.35512932698475,None,2,1.0204861240054015,424.35512932698475,None,,,,,,,,,,,,,,,,None,None,None,,None,None,425.4231464319746,None,1,1,0.6406443160085473,425.4231464319746,None,426.05551109479563,None,None,None,None,,11,001,2023_Jan_19_1346,searchDisc5,2021.2.3,60.04611205685769,
images/exp1b_trial_159_colour0_distractors0_l.png,l,1,0,0,1,,,,,0,60,60,60,,,,,,,,,,,,,,,,,,,,,,,,,,,,,,,,,,,,,,,,,,,426.071930909995,None,2,0.9066643129917793,426.071930909995,None,,,,,,,,,,,,,,,,None,None,None,,None,None,427.02273874997627,None,1,1,0.7223339210031554,427.02273874997627,None,427.73892305877814,None,None,None,None,,11,001,2023_Jan_19_1346,searchDisc5,2021.2.3,60.04611205685769,
images/exp1b_trial_300_colour3_distractors9_r.png,r,3,3,9,1,,,,,0,61,61,61,,,,,,,,,,,,,,,,,,,,,,,,,,,,,,,,,,,,,,,,,,,427.7554760769999,None,2,1.0709323480259627,427.7554760769999,None,,,,,,,,,,,,,,,,None,None,None,,None,None,428.8730207439803,None,3,1,0.9876961959816981,428.8730207439803,None,429.85570723178387,None,None,None,None,,11,001,2023_Jan_19_1346,searchDisc5,2021.2.3,60.04611205685769,
images/exp1b_trial_222_colour0_distractors0_r.png,r,3,0,0,1,,,,,0,62,62,62,,,,,,,,,,,,,,,,,,,,,,,,,,,,,,,,,,,,,,,,,,,429.87278430897277,None,2,0.9551820909837261,429.87278430897277,None,,,,,,,,,,,,,,,,None,None,None,,None,None,430.87158415999147,None,3,1,0.6718778819777071,430.87158415999147,None,431.5390853627963,None,None,None,None,,11,001,2023_Jan_19_1346,searchDisc5,2021.2.3,60.04611205685769,
images/exp1b_trial_3_colour1_distractors19_r.png,r,3,1,19,1,,,,,0,63,63,63,,,,,,,,,,,,,,,,,,,,,,,,,,,,,,,,,,,,,,,,,,,431.5554441809945,None,2,1.0720754099893384,431.5554441809945,None,,,,,,,,,,,,,,,,None,None,None,,None,None,432.67532029299764,None,3,1,0.9876526759762783,432.67532029299764,None,433.65570233578035,None,None,None,None,,11,001,2023_Jan_19_1346,searchDisc5,2021.2.3,60.04611205685769,
images/exp1b_trial_293_colour2_distractors1_r.png,r,3,2,1,1,,,,,0,64,64,64,,,,,,,,,,,,,,,,,,,,,,,,,,,,,,,,,,,,,,,,,,,433.67303410798195,None,2,0.9877671079884749,433.67303410798195,None,,,,,,,,,,,,,,,,None,None,None,,None,None,434.7057840329944,None,3,1,0.7695255880244076,434.7057840329944,None,435.47240314978114,None,None,None,None,,11,001,2023_Jan_19_1346,searchDisc5,2021.2.3,60.04611205685769,
images/exp1b_trial_98_colour1_distractors9_r.png,r,3,1,9,1,,,,,0,65,65,65,,,,,,,,,,,,,,,,,,,,,,,,,,,,,,,,,,,,,,,,,,,435.4910073639767,None,2,0.9389741850027349,435.4910073639767,None,,,,,,,,,,,,,,,,None,None,None,,None,None,436.47247512897593,None,3,1,0.5880514289892744,436.47247512897593,None,437.05586199679817,None,None,None,None,,11,001,2023_Jan_19_1346,searchDisc5,2021.2.3,60.04611205685769,
images/exp1b_trial_265_colour2_distractors31_r.png,r,3,2,31,1,,,,,0,66,66,66,,,,,,,,,,,,,,,,,,,,,,,,,,,,,,,,,,,,,,,,,,,437.0720813139924,None,2,0.9894954199844506,437.0720813139924,None,,,,,,,,,,,,,,,,None,None,None,,None,None,438.1091125269886,None,3,1,0.7037031149957329,438.1091125269886,None,438.8059223857912,None,None,None,None,,11,001,2023_Jan_19_1346,searchDisc5,2021.2.3,60.04611205685769,
images/exp1b_trial_234_colour3_distractors1_r.png,r,3,3,1,1,,,,,0,67,67,67,,,,,,,,,,,,,,,,,,,,,,,,,,,,,,,,,,,,,,,,,,,438.8234784549859,None,2,1.1203673759882804,438.8234784549859,None,,,,,,,,,,,,,,,,None,None,None,,None,None,439.99126273498405,None,3,1,0.6558860579971224,439.99126273498405,None,440.63919192577885,None,None,None,None,,11,001,2023_Jan_19_1346,searchDisc5,2021.2.3,60.04611205685769,
images/exp1b_trial_184_colour2_distractors31_l.png,l,1,2,31,1,,,,,0,68,68,68,,,,,,,,,,,,,,,,,,,,,,,,,,,,,,,,,,,,,,,,,,,440.65645455097547,None,2,0.9232510779984295,440.65645455097547,None,,,,,,,,,,,,,,,,None,None,None,,None,None,441.6228541129967,None,1,1,0.6698269769840408,441.6228541129967,None,442.2904608427983,None,None,None,None,,11,001,2023_Jan_19_1346,searchDisc5,2021.2.3,60.04611205685769,
images/exp1b_trial_6_colour2_distractors4_r.png,r,3,2,4,1,,,,,0,69,69,69,,,,,,,,,,,,,,,,,,,,,,,,,,,,,,,,,,,,,,,,,,,442.3078178889991,None,2,1.1202218450198416,442.3078178889991,None,,,,,,,,,,,,,,,,None,None,None,,None,None,443.4738906319835,None,3,1,0.5904872910177801,443.4738906319835,None,444.0559765157726,None,None,None,None,,11,001,2023_Jan_19_1346,searchDisc5,2021.2.3,60.04611205685769,
images/exp1b_trial_76_colour3_distractors9_r.png,r,3,3,9,1,,,,,0,70,70,70,,,,,,,,,,,,,,,,,,,,,,,,,,,,,,,,,,,,,,,,,,,444.0716905009758,None,2,1.0875083539867774,444.0716905009758,None,,,,,,,,,,,,,,,,None,None,None,,None,None,445.2090076999739,None,3,1,1.035530617024051,445.2090076999739,None,446.239350858776,None,None,None,None,,11,001,2023_Jan_19_1346,searchDisc5,2021.2.3,60.04611205685769,
images/exp1b_trial_2_colour1_distractors9_r.png,r,3,1,9,1,,,,,0,71,71,71,,,,,,,,,,,,,,,,,,,,,,,,,,,,,,,,,,,,,,,,,,,446.2563839519862,None,2,0.9879969050234649,446.2563839519862,None,,,,,,,,,,,,,,,,None,None,None,,None,None,447.2904619649926,None,3,1,0.721875806018943,447.2904619649926,None,448.0060672477906,None,None,None,None,,11,001,2023_Jan_19_1346,searchDisc5,2021.2.3,60.04611205685769,
images/exp1b_trial_95_colour0_distractors0_l.png,l,1,0,0,1,,,,,0,72,72,72,,,,,,,,,,,,,,,,,,,,,,,,,,,,,,,,,,,,,,,,,,,448.0232571439992,None,2,0.8554511689872015,448.0232571439992,None,,,,,,,,,,,,,,,,None,None,None,,None,None,448.92464428799576,None,1,1,0.6049844509980176,448.92464428799576,None,449.5229021897743,None,None,None,None,,11,001,2023_Jan_19_1346,searchDisc5,2021.2.3,60.04611205685769,
images/exp1b_trial_291_colour1_distractors19_r.png,r,3,1,19,1,,,,,0,73,73,73,,,,,,,,,,,,,,,,,,,,,,,,,,,,,,,,,,,,,,,,,,,449.539690598991,None,2,0.9402212910063099,449.539690598991,None,,,,,,,,,,,,,,,,None,None,None,,None,None,450.52584572698106,None,3,1,0.7835001010098495,450.52584572698106,None,451.30612406776925,None,None,None,None,,11,001,2023_Jan_19_1346,searchDisc5,2021.2.3,60.04611205685769,
images/exp1b_trial_40_colour2_distractors19_r.png,r,3,2,19,1,,,,,0,74,74,74,,,,,,,,,,,,,,,,,,,,,,,,,,,,,,,,,,,,,,,,,,,451.32264174797456,None,2,0.9378608809784055,451.32264174797456,None,,,,,,,,,,,,,,,,None,None,None,,None,None,452.30934354799683,None,3,1,0.6719966699893121,452.30934354799683,None,452.9729512777907,None,None,None,None,,11,001,2023_Jan_19_1346,searchDisc5,2021.2.3,60.04611205685769,
images/exp1b_trial_191_colour0_distractors0_l.png,l,1,0,0,1,,,,,0,75,75,75,,,,,,,,,,,,,,,,,,,,,,,,,,,,,,,,,,,,,,,,,,,452.9889695989841,None,2,1.0394237889850046,452.9889695989841,None,,,,,,,,,,,,,,,,None,None,None,,None,None,454.0738142929913,None,1,1,0.5720328809984494,454.0738142929913,None,454.63963269878,None,None,None,None,,11,001,2023_Jan_19_1346,searchDisc5,2021.2.3,60.04611205685769,
images/exp1b_trial_126_colour0_distractors0_r.png,r,3,0,0,1,,,,,0,76,76,76,,,,,,,,,,,,,,,,,,,,,,,,,,,,,,,,,,,,,,,,,,,454.65658431398333,None,2,0.8388844550063368,454.65658431398333,None,,,,,,,,,,,,,,,,None,None,None,,None,None,455.5396556019841,None,3,1,0.8721252710092813,455.5396556019841,None,456.4063024227711,None,None,None,None,,11,001,2023_Jan_19_1346,searchDisc5,2021.2.3,60.04611205685769,
images/exp1b_trial_94_colour0_distractors0_r.png,r,3,0,0,1,,,,,0,77,77,77,,,,,,,,,,,,,,,,,,,,,,,,,,,,,,,,,,,,,,,,,,,456.42357027198886,None,2,0.7738924459845293,456.42357027198886,None,,,,,,,,,,,,,,,,None,None,None,,None,None,457.2423757859797,None,3,1,0.6047293699812144,457.2423757859797,None,457.84087487379145,None,None,None,None,,11,001,2023_Jan_19_1346,searchDisc5,2021.2.3,60.04611205685769,
images/exp1b_trial_166_colour2_distractors4_r.png,r,3,2,4,1,,,,,0,78,78,78,,,,,,,,,,,,,,,,,,,,,,,,,,,,,,,,,,,,,,,,,,,457.85696531497524,None,2,0.8205614440084901,457.85696531497524,None,,,,,,,,,,,,,,,,None,None,None,,None,None,458.72571857698495,None,3,1,0.6389770090172533,458.72571857698495,None,459.35641599879307,None,None,None,None,,11,001,2023_Jan_19_1346,searchDisc5,2021.2.3,60.04611205685769,
images/exp1b_trial_262_colour2_distractors4_r.png,r,3,2,4,1,,,,,0,79,79,79,,,,,,,,,,,,,,,,,,,,,,,,,,,,,,,,,,,,,,,,,,,459.3734143949987,None,2,0.8879279580141883,459.3734143949987,None,,,,,,,,,,,,,,,,None,None,None,,None,None,460.3091113969858,None,3,1,0.5566411470063031,460.3091113969858,None,460.85640300978264,None,None,None,None,,11,001,2023_Jan_19_1346,searchDisc5,2021.2.3,60.04611205685769,
images/exp1b_trial_44_colour3_distractors9_r.png,r,3,3,9,1,,,,,0,80,80,80,,,,,,,,,,,,,,,,,,,,,,,,,,,,,,,,,,,,,,,,,,,460.87345320999157,None,2,0.5547035210183822,460.87345320999157,None,,,,,,,,,,,,,,,,None,None,None,,None,None,461.47528035897994,None,3,1,0.7575299949967302,461.47528035897994,None,462.22331763677937,None,None,None,None,,11,001,2023_Jan_19_1346,searchDisc5,2021.2.3,60.04611205685769,
images/exp1b_trial_12_colour3_distractors9_r.png,r,3,3,9,1,,,,,0,81,81,81,,,,,,,,,,,,,,,,,,,,,,,,,,,,,,,,,,,,,,,,,,,462.2396242929972,None,2,0.6359681980102323,462.2396242929972,None,,,,,,,,,,,,,,,,None,None,None,,None,None,462.9238831429975,None,3,1,0.6878651489969343,462.9238831429975,None,463.6064867417939,None,None,None,None,,11,001,2023_Jan_19_1346,searchDisc5,2021.2.3,60.04611205685769,
images/exp1b_trial_84_colour2_distractors1_l.png,l,1,2,1,1,,,,,0,82,82,82,,,,,,,,,,,,,,,,,,,,,,,,,,,,,,,,,,,,,,,,,,,463.62312262298656,None,2,0.7568414309935179,463.62312262298656,None,,,,,,,,,,,,,,,,None,None,None,,None,None,464.42337593997945,None,1,1,0.7555790249898564,464.42337593997945,None,465.1742955977883,None,None,None,None,,11,001,2023_Jan_19_1346,searchDisc5,2021.2.3,60.04611205685769,
images/exp1b_trial_158_colour0_distractors0_r.png,r,3,0,0,1,,,,,0,83,83,83,,,,,,,,,,,,,,,,,,,,,,,,,,,,,,,,,,,,,,,,,,,465.1927160049963,None,2,0.7230603419884574,465.1927160049963,None,,,,,,,,,,,,,,,,None,None,None,,None,None,465.9585997919785,None,3,1,0.653874044015538,465.9585997919785,None,466.6067044627765,None,None,None,None,,11,001,2023_Jan_19_1346,searchDisc5,2021.2.3,60.04611205685769,
images/exp1b_trial_189_colour3_distractors31_l.png,l,1,3,31,1,,,,,0,84,84,84,,,,,,,,,,,,,,,,,,,,,,,,,,,,,,,,,,,,,,,,,,,466.62367493397323,None,2,0.6231316869962029,466.62367493397323,None,,,,,,,,,,,,,,,,None,None,None,,None,None,467.2924107419967,None,1,1,0.6341235509898979,467.2924107419967,None,467.9233076477743,None,None,None,None,,11,001,2023_Jan_19_1346,searchDisc5,2021.2.3,60.04611205685769,
images/exp1b_trial_5_colour2_distractors1_r.png,r,3,2,1,1,,,,,0,85,85,85,,,,,,,,,,,,,,,,,,,,,,,,,,,,,,,,,,,,,,,,,,,467.9403995149769,None,2,0.6220991089940071,467.9403995149769,None,,,,,,,,,,,,,,,,None,None,None,,None,None,468.6066048699722,None,3,1,0.6906418670259882,468.6066048699722,None,469.2900090537936,None,None,None,None,,11,001,2023_Jan_19_1346,searchDisc5,2021.2.3,60.04611205685769,
images/exp1b_trial_211_colour1_distractors31_l.png,l,1,1,31,1,,,,,0,86,86,86,,,,,,,,,,,,,,,,,,,,,,,,,,,,,,,,,,,,,,,,,,,469.30695118400035,None,2,0.6224380219937302,469.30695118400035,None,,,,,,,,,,,,,,,,None,None,None,,None,None,469.97430167897255,None,1,1,0.7503164249937981,469.97430167897255,None,470.7233740847936,None,None,None,None,,11,001,2023_Jan_19_1346,searchDisc5,2021.2.3,60.04611205685769,
images/exp1b_trial_215_colour2_distractors19_l.png,l,1,2,19,1,,,,,0,87,87,87,,,,,,,,,,,,,,,,,,,,,,,,,,,,,,,,,,,,,,,,,,,470.74188412498916,None,2,0.5407493639795575,470.74188412498916,None,,,,,,,,,,,,,,,,None,None,None,,None,None,471.32352961198194,None,1,1,0.718513255007565,471.32352961198194,None,472.0400709227746,None,None,None,None,,11,001,2023_Jan_19_1346,searchDisc5,2021.2.3,60.04611205685769,
images/exp1b_trial_119_colour2_distractors19_l.png,l,1,2,19,1,,,,,0,88,88,88,,,,,,,,,,,,,,,,,,,,,,,,,,,,,,,,,,,,,,,,,,,472.0563466519816,None,2,0.5402309230121318,472.0563466519816,None,,,,,,,,,,,,,,,,None,None,None,,None,None,472.6406290709856,None,1,1,0.7344881529861595,472.6406290709856,None,473.3729005007975,None,None,None,None,,11,001,2023_Jan_19_1346,searchDisc5,2021.2.3,60.04611205685769,
images/exp1b_trial_200_colour2_distractors19_r.png,r,3,2,19,1,,,,,0,89,89,89,,,,,,,,,,,,,,,,,,,,,,,,,,,,,,,,,,,,,,,,,,,473.39033417898463,None,2,0.6218200089933816,473.39033417898463,None,,,,,,,,,,,,,,,,None,None,None,,None,None,474.0575827009743,None,3,1,1.0210445300035644,474.0575827009743,None,475.0734168097755,None,None,None,None,,11,001,2023_Jan_19_1346,searchDisc5,2021.2.3,60.04611205685769,
images/exp1b_trial_26_colour3_distractors4_l.png,l,1,3,4,1,,,,,0,90,90,90,,,,,,,,,,,,,,,,,,,,,,,,,,,,,,,,,,,,,,,,,,,475.0925389409822,None,2,0.588870895007858,475.0925389409822,None,,,,,,,,,,,,,,,,None,None,None,,None,None,475.72357071499573,None,1,1,0.8547856669756584,475.72357071499573,None,476.5735243647854,None,None,None,None,,11,001,2023_Jan_19_1346,searchDisc5,2021.2.3,60.04611205685769,
images/exp1b_trial_178_colour1_distractors19_l.png,l,1,1,19,1,,,,,0,91,91,91,,,,,,,,,,,,,,,,,,,,,,,,,,,,,,,,,,,,,,,,,,,476.5905726189958,None,2,0.6053277519822586,476.5905726189958,None,,,,,,,,,,,,,,,,None,None,None,,None,None,477.2409576269856,None,1,1,0.854450357001042,477.2409576269856,None,478.09122117878576,None,None,None,None,,11,001,2023_Jan_19_1346,searchDisc5,2021.2.3,60.04611205685769,
images/exp1b_trial_93_colour3_distractors31_l.png,l,1,3,31,1,,,,,0,92,92,92,,,,,,,,,,,,,,,,,,,,,,,,,,,,,,,,,,,,,,,,,,,478.1087603699998,None,2,0.589106758008711,478.1087603699998,None,,,,,,,,,,,,,,,,None,None,None,,None,None,478.7412660079717,None,1,1,0.7844815579883289,478.7412660079717,None,479.523566680777,None,None,None,None,,11,001,2023_Jan_19_1346,searchDisc5,2021.2.3,60.04611205685769,
images/exp1b_trial_288_colour1_distractors1_r.png,r,3,1,1,1,,,,,0,93,93,93,,,,,,,,,,,,,,,,,,,,,,,,,,,,,,,,,,,,,,,,,,,479.5425988319912,None,2,0.5546978509810288,479.5425988319912,None,,,,,,,,,,,,,,,,None,None,None,,None,None,480.14087996198214,None,3,1,0.6399651289975736,480.14087996198214,None,480.77355444177226,None,None,None,None,,11,001,2023_Jan_19_1346,searchDisc5,2021.2.3,60.04611205685769,
images/exp1b_trial_186_colour3_distractors4_l.png,l,1,3,4,1,,,,,0,94,94,94,,,,,,,,,,,,,,,,,,,,,,,,,,,,,,,,,,,,,,,,,,,480.7902648639865,None,2,0.6543473269848619,480.7902648639865,None,,,,,,,,,,,,,,,,None,None,None,,None,None,481.4903877659817,None,1,1,0.7750321709900163,481.4903877659817,None,482.25710100077265,None,None,None,None,,11,001,2023_Jan_19_1346,searchDisc5,2021.2.3,60.04611205685769,
images/exp1b_trial_233_colour2_distractors31_r.png,r,3,2,31,1,,,,,0,95,95,95,,,,,,,,,,,,,,,,,,,,,,,,,,,,,,,,,,,,,,,,,,,482.2734902529919,None,2,0.6195108390238602,482.2734902529919,None,,,,,,,,,,,,,,,,None,None,None,,None,None,482.94043716497254,None,3,1,0.6534146949998103,482.94043716497254,None,483.5902533077955,None,None,None,None,,11,001,2023_Jan_19_1346,searchDisc5,2021.2.3,60.04611205685769,
images/exp1b_trial_50_colour1_distractors19_l.png,l,1,1,19,1,,,,,0,96,96,96,,,,,,,,,,,,,,,,,,,,,,,,,,,,,,,,,,,,,,,,,,,483.606984019978,None,2,0.5759963659802452,483.606984019978,None,,,,,,,,,,,,,,,,None,None,None,,None,None,484.2240020369936,None,1,1,0.8804858420044184,484.2240020369936,None,485.1070636507851,None,None,None,None,,11,001,2023_Jan_19_1346,searchDisc5,2021.2.3,60.04611205685769,
images/exp1b_trial_236_colour3_distractors9_r.png,r,3,3,9,1,,,,,0,97,97,97,,,,,,,,,,,,,,,,,,,,,,,,,,,,,,,,,,,,,,,,,,,485.12369129099534,None,2,0.5401719200017396,485.12369129099534,None,,,,,,,,,,,,,,,,None,None,None,,None,None,485.7103215479874,None,3,1,0.670090870000422,485.7103215479874,None,486.3739701797807,None,None,None,None,,11,001,2023_Jan_19_1346,searchDisc5,2021.2.3,60.04611205685769,
images/exp1b_trial_228_colour1_distractors31_r.png,r,3,1,31,1,,,,,0,98,98,98,,,,,,,,,,,,,,,,,,,,,,,,,,,,,,,,,,,,,,,,,,,486.3903271049785,None,2,0.5705457720032427,486.3903271049785,None,,,,,,,,,,,,,,,,None,None,None,,None,None,487.00740469497396,None,3,1,0.6004632700060029,487.00740469497396,None,487.60717544977376,None,None,None,None,,11,001,2023_Jan_19_1346,searchDisc5,2021.2.3,60.04611205685769,
images/exp1b_trial_11_colour3_distractors4_r.png,r,3,3,4,1,,,,,0,99,99,99,,,,,,,,,,,,,,,,,,,,,,,,,,,,,,,,,,,,,,,,,,,487.6230025079858,None,2,0.6718130810186267,487.6230025079858,None,,,,,,,,,,,,,,,,None,None,None,,None,None,488.340742853994,None,3,1,0.68828517201473,488.340742853994,None,489.02388320978787,None,None,None,None,,11,001,2023_Jan_19_1346,searchDisc5,2021.2.3,60.04611205685769,
images/exp1b_trial_42_colour3_distractors1_r.png,r,3,3,1,1,,,,,0,100,100,100,,,,,,,,,,,,,,,,,,,,,,,,,,,,,,,,,,,,,,,,,,,489.0410165999783,None,2,0.6720836999884341,489.0410165999783,None,,,,,,,,,,,,,,,,None,None,None,,None,None,489.75737703498453,None,3,1,0.5556420779903419,489.75737703498453,None,490.3071462947904,None,None,None,None,,11,001,2023_Jan_19_1346,searchDisc5,2021.2.3,60.04611205685769,
images/exp1b_trial_280_colour2_distractors31_l.png,l,1,2,31,1,,,,,0,101,101,101,,,,,,,,,,,,,,,,,,,,,,,,,,,,,,,,,,,,,,,,,,,490.3236832919938,None,2,0.687827607995132,490.3236832919938,None,,,,,,,,,,,,,,,,None,None,None,,None,None,491.0584154589742,None,1,1,0.7044651320029516,491.0584154589742,None,491.7574575327948,None,None,None,None,,11,001,2023_Jan_19_1346,searchDisc5,2021.2.3,60.04611205685769,
images/exp1b_trial_86_colour2_distractors9_l.png,l,1,2,9,1,,,,,0,102,102,102,,,,,,,,,,,,,,,,,,,,,,,,,,,,,,,,,,,,,,,,,,,491.7738505919988,None,2,0.7570891179784667,491.7738505919988,None,,,,,,,,,,,,,,,,None,None,None,,None,None,492.5739896039886,None,1,1,0.7859750039933715,492.5739896039886,None,493.35732007177137,None,None,None,None,,11,001,2023_Jan_19_1346,searchDisc5,2021.2.3,60.04611205685769,
images/exp1b_trial_148_colour2_distractors1_l.png,l,1,2,1,1,,,,,0,103,103,103,,,,,,,,,,,,,,,,,,,,,,,,,,,,,,,,,,,,,,,,,,,493.37431962499977,None,2,0.6879015909798909,493.37431962499977,None,,,,,,,,,,,,,,,,None,None,None,,None,None,494.1079179329972,None,1,1,0.6566167900164146,494.1079179329972,None,494.757346783785,None,None,None,None,,11,001,2023_Jan_19_1346,searchDisc5,2021.2.3,60.04611205685769,
images/exp1b_trial_218_colour3_distractors4_l.png,l,1,3,4,1,,,,,0,104,104,104,,,,,,,,,,,,,,,,,,,,,,,,,,,,,,,,,,,,,,,,,,,494.77429563799524,None,2,0.6389543279947247,494.77429563799524,None,,,,,,,,,,,,,,,,None,None,None,,None,None,495.4583992389962,None,1,1,0.6562908519990742,495.4583992389962,None,496.1073942377901,None,None,None,None,,11,001,2023_Jan_19_1346,searchDisc5,2021.2.3,60.04611205685769,
images/exp1b_trial_162_colour1_distractors9_r.png,r,3,1,9,1,,,,,0,105,105,105,,,,,,,,,,,,,,,,,,,,,,,,,,,,,,,,,,,,,,,,,,,496.1248187649762,None,2,0.8851941050088499,496.1248187649762,None,,,,,,,,,,,,,,,,None,None,None,,None,None,497.0604580119834,None,3,1,0.7231037100136746,497.0604580119834,None,497.77519381077434,None,None,None,None,,11,001,2023_Jan_19_1346,searchDisc5,2021.2.3,60.04611205685769,
images/exp1b_trial_221_colour3_distractors31_l.png,l,1,3,31,1,,,,,0,106,106,106,,,,,,,,,,,,,,,,,,,,,,,,,,,,,,,,,,,,,,,,,,,497.7905122889788,None,2,0.8234058159869164,497.7905122889788,None,,,,,,,,,,,,,,,,None,None,None,,None,None,498.6585485099931,None,1,1,0.8491207740153186,498.6585485099931,None,499.5074623097811,None,None,None,None,,11,001,2023_Jan_19_1346,searchDisc5,2021.2.3,60.04611205685769,
images/exp1b_trial_301_colour3_distractors19_r.png,r,3,3,19,1,,,,,0,107,107,107,,,,,,,,,,,,,,,,,,,,,,,,,,,,,,,,,,,,,,,,,,,499.5247119249834,None,2,0.521149078005692,499.5247119249834,None,,,,,,,,,,,,,,,,None,None,None,,None,None,500.09073291698587,None,3,1,0.9046487890009303,500.09073291698587,None,500.99179747478627,None,None,None,None,,11,001,2023_Jan_19_1346,searchDisc5,2021.2.3,60.04611205685769,
images/exp1b_trial_138_colour3_distractors1_r.png,r,3,3,1,1,,,,,0,108,108,108,,,,,,,,,,,,,,,,,,,,,,,,,,,,,,,,,,,,,,,,,,,501.00742129900027,None,2,0.6708149749902077,501.00742129900027,None,,,,,,,,,,,,,,,,None,None,None,,None,None,501.72532133897766,None,3,1,0.6388573809817899,501.72532133897766,None,502.35701101377197,None,None,None,None,,11,001,2023_Jan_19_1346,searchDisc5,2021.2.3,60.04611205685769,
images/exp1b_trial_290_colour1_distractors9_r.png,r,3,1,9,1,,,,,0,109,109,109,,,,,,,,,,,,,,,,,,,,,,,,,,,,,,,,,,,,,,,,,,,502.37727315397933,None,2,0.5552396530110855,502.37727315397933,None,,,,,,,,,,,,,,,,None,None,None,,None,None,502.975149150996,None,3,1,0.6899282340018544,502.975149150996,None,503.65885656477474,None,None,None,None,,11,001,2023_Jan_19_1346,searchDisc5,2021.2.3,60.04611205685769,
images/exp1b_trial_32_colour1_distractors1_r.png,r,3,1,1,1,,,,,0,110,110,110,,,,,,,,,,,,,,,,,,,,,,,,,,,,,,,,,,,,,,,,,,,503.67506488299114,None,2,0.6374057049979456,503.67506488299114,None,,,,,,,,,,,,,,,,None,None,None,,None,None,504.3581572009716,None,3,1,0.5224744459846988,504.3581572009716,None,504.87438370679445,None,None,None,None,,11,001,2023_Jan_19_1346,searchDisc5,2021.2.3,60.04611205685769,
images/exp1b_trial_245_colour2_distractors4_l.png,l,1,2,4,1,,,,,0,111,111,111,,,,,,,,,,,,,,,,,,,,,,,,,,,,,,,,,,,,,,,,,,,504.89002860497567,None,2,0.4885653220117092,504.89002860497567,None,,,,,,,,,,,,,,,,None,None,None,,None,None,505.4244170949969,None,1,1,0.6389473039889708,505.4244170949969,None,506.0577537727862,None,None,None,None,,11,001,2023_Jan_19_1346,searchDisc5,2021.2.3,60.04611205685769,
images/exp1b_trial_106_colour3_distractors1_r.png,r,3,3,1,1,,,,,0,112,112,112,,,,,,,,,,,,,,,,,,,,,,,,,,,,,,,,,,,,,,,,,,,506.0749561659759,None,2,0.5065602390095592,506.0749561659759,None,,,,,,,,,,,,,,,,None,None,None,,None,None,506.6269747669867,None,3,1,0.5878849650034681,506.6269747669867,None,507.2077653947839,None,None,None,None,,11,001,2023_Jan_19_1346,searchDisc5,2021.2.3,60.04611205685769,
images/exp1b_trial_81_colour1_distractors9_l.png,l,1,1,9,1,,,,,0,113,113,113,,,,,,,,,,,,,,,,,,,,,,,,,,,,,,,,,,,,,,,,,,,507.22478896097164,None,2,0.45429340199916624,507.22478896097164,None,,,,,,,,,,,,,,,,None,None,None,,None,None,507.72452872499707,None,1,1,0.5880891570122913,507.72452872499707,None,508.307756055778,None,None,None,None,,11,001,2023_Jan_19_1346,searchDisc5,2021.2.3,60.04611205685769,
images/exp1b_trial_28_colour3_distractors19_l.png,l,1,3,19,1,,,,,0,114,114,114,,,,,,,,,,,,,,,,,,,,,,,,,,,,,,,,,,,,,,,,,,,508.3243324959767,None,2,0.5545868159970269,508.3243324959767,None,,,,,,,,,,,,,,,,None,None,None,,None,None,508.9265422159806,None,1,1,0.6872589960112236,508.9265422159806,None,509.608007968773,None,None,None,None,,11,001,2023_Jan_19_1346,searchDisc5,2021.2.3,60.04611205685769,
images/exp1b_trial_121_colour3_distractors1_l.png,l,1,3,1,1,,,,,0,115,115,115,,,,,,,,,,,,,,,,,,,,,,,,,,,,,,,,,,,,,,,,,,,509.62511499397806,None,2,0.5566341340017971,509.62511499397806,None,,,,,,,,,,,,,,,,None,None,None,,None,None,510.2245667440002,None,1,1,0.8038328129914589,510.2245667440002,None,511.0244595537864,None,None,None,None,,11,001,2023_Jan_19_1346,searchDisc5,2021.2.3,60.04611205685769,
images/exp1b_trial_144_colour1_distractors4_l.png,l,1,1,4,1,,,,,0,116,116,116,,,,,,,,,,,,,,,,,,,,,,,,,,,,,,,,,,,,,,,,,,,511.04102016898105,None,2,0.6872571000130847,511.04102016898105,None,,,,,,,,,,,,,,,,None,None,None,,None,None,511.77460764397983,None,1,1,1.1744922829966526,511.77460764397983,None,512.9420295987715,None,None,None,None,,11,001,2023_Jan_19_1346,searchDisc5,2021.2.3,60.04611205685769,
images/exp1b_trial_302_colour3_distractors31_r.png,r,3,3,31,1,,,,,0,117,117,117,,,,,,,,,,,,,,,,,,,,,,,,,,,,,,,,,,,,,,,,,,,512.9574395939999,None,2,0.5702155850012787,512.9574395939999,None,,,,,,,,,,,,,,,,None,None,None,,None,None,513.575170104974,None,3,1,1.2231528099800926,513.575170104974,None,514.7921201687917,None,None,None,None,,11,001,2023_Jan_19_1346,searchDisc5,2021.2.3,60.04611205685769,
images/exp1b_trial_83_colour1_distractors31_l.png,l,1,1,31,1,,,,,0,118,118,118,,,,,,,,,,,,,,,,,,,,,,,,,,,,,,,,,,,,,,,,,,,514.8075009459862,None,2,0.517811208992498,514.8075009459862,None,,,,,,,,,,,,,,,,None,None,None,,None,None,515.3755947309837,None,1,1,0.886451204016339,515.3755947309837,None,516.2579058727919,None,None,None,None,,11,001,2023_Jan_19_1346,searchDisc5,2021.2.3,60.04611205685769,
images/exp1b_trial_304_colour1_distractors4_l.png,l,1,1,4,1,,,,,0,119,119,119,,,,,,,,,,,,,,,,,,,,,,,,,,,,,,,,,,,,,,,,,,,516.2747473709751,None,2,0.6070007419912145,516.2747473709751,None,,,,,,,,,,,,,,,,None,None,None,,None,None,516.9247721619904,None,1,1,0.9370337369909976,516.9247721619904,None,517.8579287127853,None,None,None,None,,11,001,2023_Jan_19_1346,searchDisc5,2021.2.3,60.04611205685769,
images/exp1b_trial_230_colour2_distractors4_r.png,r,3,2,4,1,,,,,0,120,120,120,,,,,,,,,,,,,,,,,,,,,,,,,,,,,,,,,,,,,,,,,,,517.8745424589724,None,2,0.5045830180170015,517.8745424589724,None,,,,,,,,,,,,,,,,None,None,None,,None,None,518.4255427819735,None,3,1,0.772986979020061,518.4255427819735,None,519.1912824467785,None,None,None,None,,11,001,2023_Jan_19_1346,searchDisc5,2021.2.3,60.04611205685769,
images/exp1b_trial_61_colour3_distractors31_l.png,l,1,3,31,1,,,,,0,121,121,121,,,,,,,,,,,,,,,,,,,,,,,,,,,,,,,,,,,,,,,,,,,519.2103601119888,None,2,0.43787824400351383,519.2103601119888,None,,,,,,,,,,,,,,,,None,None,None,,None,None,519.693850185984,None,1,1,0.9832061910128687,519.693850185984,None,520.6747585377801,None,None,None,None,,11,001,2023_Jan_19_1346,searchDisc5,2021.2.3,60.04611205685769,
images/exp1b_trial_20_colour2_distractors1_l.png,l,1,2,1,1,,,,,0,122,122,122,,,,,,,,,,,,,,,,,,,,,,,,,,,,,,,,,,,,,,,,,,,520.6913034119934,None,2,0.4070598740072455,520.6913034119934,None,,,,,,,,,,,,,,,,None,None,None,,None,None,521.1443729999883,None,1,1,0.7709597450157162,521.1443729999883,None,521.9080720847909,None,None,None,None,,11,001,2023_Jan_19_1346,searchDisc5,2021.2.3,60.04611205685769,
images/exp1b_trial_155_colour3_distractors9_l.png,l,1,3,9,1,,,,,0,123,123,123,,,,,,,,,,,,,,,,,,,,,,,,,,,,,,,,,,,,,,,,,,,521.9267316999903,None,2,0.34037107799667865,521.9267316999903,None,,,,,,,,,,,,,,,,None,None,None,,None,None,522.3113332289795,None,1,1,0.8855036179884337,522.3113332289795,None,523.1914997337939,None,None,None,None,,11,001,2023_Jan_19_1346,searchDisc5,2021.2.3,60.04611205685769,
images/exp1b_trial_229_colour2_distractors1_r.png,r,3,2,1,1,,,,,0,124,124,124,,,,,,,,,,,,,,,,,,,,,,,,,,,,,,,,,,,,,,,,,,,523.2088105279836,None,2,0.35636595397954807,523.2088105279836,None,,,,,,,,,,,,,,,,None,None,None,,None,None,523.609331145999,None,3,1,0.7560225580236875,523.609331145999,None,524.3592041467695,None,None,None,None,,11,001,2023_Jan_19_1346,searchDisc5,2021.2.3,60.04611205685769,
images/exp1b_trial_8_colour2_distractors19_r.png,r,3,2,19,1,,,,,0,125,125,125,,,,,,,,,,,,,,,,,,,,,,,,,,,,,,,,,,,,,,,,,,,524.3765493809769,None,2,0.3689262089901604,524.3765493809769,None,,,,,,,,,,,,,,,,None,None,None,,None,None,524.7947597339808,None,3,1,0.6885032639838755,524.7947597339808,None,525.4748816217965,None,None,None,None,,11,001,2023_Jan_19_1346,searchDisc5,2021.2.3,60.04611205685769,
images/exp1b_trial_54_colour2_distractors9_l.png,l,1,2,9,1,,,,,0,126,126,126,,,,,,,,,,,,,,,,,,,,,,,,,,,,,,,,,,,,,,,,,,,525.4919484369748,None,2,0.35415411498979665,525.4919484369748,None,,,,,,,,,,,,,,,,None,None,None,,None,None,525.8946143779904,None,1,1,1.0559944789856672,525.8946143779904,None,526.9415481987729,None,None,None,None,,11,001,2023_Jan_19_1346,searchDisc5,2021.2.3,60.04611205685769,
images/exp1b_trial_274_colour1_distractors19_l.png,l,1,1,19,1,,,,,0,127,127,127,,,,,,,,,,,,,,,,,,,,,,,,,,,,,,,,,,,,,,,,,,,526.9582463519764,None,2,0.27423542900942266,526.9582463519764,None,,,,,,,,,,,,,,,,None,None,None,,None,None,527.2747868169972,None,1,1,0.8673363260168117,527.2747868169972,None,528.1415711787907,None,None,None,None,,11,001,2023_Jan_19_1346,searchDisc5,2021.2.3,60.04611205685769,
images/exp1b_trial_275_colour1_distractors31_l.png,l,1,1,31,1,,,,,0,128,128,128,,,,,,,,,,,,,,,,,,,,,,,,,,,,,,,,,,,,,,,,,,,528.1581115379813,None,2,0.2556666249874979,528.1581115379813,None,,,,,,,,,,,,,,,,None,None,None,,None,None,528.4615271049843,None,1,1,0.9527338879997842,528.4615271049843,None,529.4092144647933,None,None,None,None,,11,001,2023_Jan_19_1346,searchDisc5,2021.2.3,60.04611205685769,
images/exp1b_trial_110_colour3_distractors31_r.png,r,3,3,31,1,,,,,0,129,129,129,,,,,,,,,,,,,,,,,,,,,,,,,,,,,,,,,,,,,,,,,,,529.4248903009866,None,2,0.3375033980119042,529.4248903009866,None,,,,,,,,,,,,,,,,None,None,None,,None,None,529.8083815409918,None,3,1,0.7532767950033303,529.8083815409918,None,530.5583169557707,None,None,None,None,,11,001,2023_Jan_19_1346,searchDisc5,2021.2.3,60.04611205685769,
images/exp1b_trial_246_colour2_distractors9_l.png,l,1,2,9,1,,,,,0,130,130,130,,,,,,,,,,,,,,,,,,,,,,,,,,,,,,,,,,,,,,,,,,,530.5779261769785,None,2,0.33822245700866915,530.5779261769785,None,,,,,,,,,,,,,,,,None,None,None,,None,None,530.9604892559873,None,1,1,0.9876846180122811,530.9604892559873,None,531.9412194297969,None,None,None,None,,11,001,2023_Jan_19_1346,searchDisc5,2021.2.3,60.04611205685769,
images/exp1b_trial_153_colour3_distractors1_l.png,l,1,3,1,1,,,,,0,131,131,131,,,,,,,,,,,,,,,,,,,,,,,,,,,,,,,,,,,,,,,,,,,531.9591457839997,None,2,0.25529337298939936,531.9591457839997,None,,,,,,,,,,,,,,,,None,None,None,,None,None,532.2588721719803,None,1,1,0.9238144030096009,532.2588721719803,None,533.1762247627979,None,None,None,None,,11,001,2023_Jan_19_1346,searchDisc5,2021.2.3,60.04611205685769,
images/exp1b_trial_167_colour2_distractors9_r.png,r,3,2,9,1,,,,,0,132,132,132,,,,,,,,,,,,,,,,,,,,,,,,,,,,,,,,,,,,,,,,,,,533.1942009509949,None,2,0.30357621298753656,533.1942009509949,None,,,,,,,,,,,,,,,,None,None,None,,None,None,533.5426267939911,None,3,1,0.9215472020150628,533.5426267939911,None,534.4577470747957,None,None,None,None,,11,001,2023_Jan_19_1346,searchDisc5,2021.2.3,60.04611205685769,
images/exp1b_trial_241_colour1_distractors9_l.png,l,1,1,9,1,,,,,0,133,133,133,,,,,,,,,,,,,,,,,,,,,,,,,,,,,,,,,,,,,,,,,,,534.4750010519929,None,2,0.2728757479926571,534.4750010519929,None,,,,,,,,,,,,,,,,None,None,None,,None,None,534.7925087929762,None,1,1,0.9067016059998423,534.7925087929762,None,535.6918968207814,None,None,None,None,,11,001,2023_Jan_19_1346,searchDisc5,2021.2.3,60.04611205685769,
images/exp1b_trial_185_colour3_distractors1_l.png,l,1,3,1,1,,,,,0,134,134,134,,,,,,,,,,,,,,,,,,,,,,,,,,,,,,,,,,,,,,,,,,,535.7092987779761,None,2,0.2689018950040918,535.7092987779761,None,,,,,,,,,,,,,,,,None,None,None,,None,None,536.0257876549731,None,1,1,0.8733660030120518,536.0257876549731,None,536.8919453237817,None,None,None,None,,11,001,2023_Jan_19_1346,searchDisc5,2021.2.3,60.04611205685769,
images/exp1b_trial_242_colour1_distractors19_l.png,l,1,1,19,1,,,,,0,135,135,135,,,,,,,,,,,,,,,,,,,,,,,,,,,,,,,,,,,,,,,,,,,536.9088254999951,None,2,0.3545504659996368,536.9088254999951,None,,,,,,,,,,,,,,,,None,None,None,,None,None,537.3092809599766,None,1,1,1.00204516199301,537.3092809599766,None,538.3083842627733,None,None,None,None,,11,001,2023_Jan_19_1346,searchDisc5,2021.2.3,60.04611205685769,
images/exp1b_trial_9_colour2_distractors31_r.png,r,3,2,31,1,,,,,0,136,136,136,,,,,,,,,,,,,,,,,,,,,,,,,,,,,,,,,,,,,,,,,,,538.325389665988,None,2,0.3378257250005845,538.325389665988,None,,,,,,,,,,,,,,,,None,None,None,,None,None,538.7086594239809,None,3,1,0.9042821280017961,538.7086594239809,None,539.6085017917707,None,None,None,None,,11,001,2023_Jan_19_1346,searchDisc5,2021.2.3,60.04611205685769,
images/exp1b_trial_10_colour3_distractors1_r.png,r,3,3,1,1,,,,,0,137,137,137,,,,,,,,,,,,,,,,,,,,,,,,,,,,,,,,,,,,,,,,,,,539.6255184579932,None,2,0.3548520189942792,539.6255184579932,None,,,,,,,,,,,,,,,,None,None,None,,None,None,540.0256343529909,None,3,1,0.6890181449998636,540.0256343529909,None,540.7085698607756,None,None,None,None,,11,001,2023_Jan_19_1346,searchDisc5,2021.2.3,60.04611205685769,
images/exp1b_trial_16_colour1_distractors4_l.png,l,1,1,4,1,,,,,0,138,138,138,,,,,,,,,,,,,,,,,,,,,,,,,,,,,,,,,,,,,,,,,,,540.7250442479854,None,2,0.3045365170110017,540.7250442479854,None,,,,,,,,,,,,,,,,None,None,None,,None,None,541.0752981869737,None,1,1,0.7891329579870217,541.0752981869737,None,541.8586778747762,None,None,None,None,,11,001,2023_Jan_19_1346,searchDisc5,2021.2.3,60.04611205685769,
images/exp1b_trial_114_colour1_distractors19_l.png,l,1,1,19,1,,,,,0,139,139,139,,,,,,,,,,,,,,,,,,,,,,,,,,,,,,,,,,,,,,,,,,,541.8759060169978,None,2,0.2543070020037703,541.8759060169978,None,,,,,,,,,,,,,,,,None,None,None,,None,None,542.1753128129931,None,1,1,0.8870924040093087,542.1753128129931,None,543.058702267785,None,None,None,None,,11,001,2023_Jan_19_1346,searchDisc5,2021.2.3,60.04611205685769,
images/exp1b_trial_135_colour2_distractors9_r.png,r,3,2,9,1,,,,,0,140,140,140,,,,,,,,,,,,,,,,,,,,,,,,,,,,,,,,,,,,,,,,,,,543.0756630719989,None,2,0.30559019700740464,543.0756630719989,None,,,,,,,,,,,,,,,,None,None,None,,None,None,543.4279509399785,None,3,1,0.8546755999850575,543.4279509399785,None,544.2752842877729,None,None,None,None,,11,001,2023_Jan_19_1346,searchDisc5,2021.2.3,60.04611205685769,
images/exp1b_trial_297_colour2_distractors31_r.png,r,3,2,31,1,,,,,0,141,141,141,,,,,,,,,,,,,,,,,,,,,,,,,,,,,,,,,,,,,,,,,,,544.2918027569831,None,2,0.4205220270087011,544.2918027569831,None,,,,,,,,,,,,,,,,None,None,None,,None,None,544.7618103009881,None,3,1,1.2049558889993932,544.7618103009881,None,545.9587040277751,None,None,None,None,,11,001,2023_Jan_19_1346,searchDisc5,2021.2.3,60.04611205685769,
images/exp1b_trial_101_colour2_distractors1_r.png,r,3,2,1,1,,,,,0,142,142,142,,,,,,,,,,,,,,,,,,,,,,,,,,,,,,,,,,,,,,,,,,,545.9759189639881,None,2,0.30464012300944887,545.9759189639881,None,,,,,,,,,,,,,,,,None,None,None,,None,None,546.3260658169747,None,3,1,1.0411853219848126,546.3260658169747,None,547.3599871797982,None,None,None,None,,11,001,2023_Jan_19_1346,searchDisc5,2021.2.3,60.04611205685769,
images/exp1b_trial_72_colour2_distractors19_r.png,r,3,2,19,1,,,,,0,143,143,143,,,,,,,,,,,,,,,,,,,,,,,,,,,,,,,,,,,,,,,,,,,547.376138476975,None,2,0.5200472669966985,547.376138476975,None,,,,,,,,,,,,,,,,None,None,None,,None,None,547.942262075987,None,3,1,0.7718800129950978,547.942262075987,None,548.7102083437698,None,None,None,None,,11,001,2023_Jan_19_1346,searchDisc5,2021.2.3,60.04611205685769,
images/exp1b_trial_315_colour3_distractors9_l.png,l,1,3,9,1,,,,,0,144,144,144,,,,,,,,,,,,,,,,,,,,,,,,,,,,,,,,,,,,,,,,,,,548.7264988599927,None,2,0.5391742140054703,548.7264988599927,None,,,,,,,,,,,,,,,,None,None,None,,None,None,549.3116176189797,None,1,1,0.8484381710004527,549.3116176189797,None,550.1591570977965,None,None,None,None,,11,001,2023_Jan_19_1346,searchDisc5,2021.2.3,60.04611205685769,
images/exp1b_trial_203_colour3_distractors4_r.png,r,3,3,4,1,,,,,0,145,145,145,,,,,,,,,,,,,,,,,,,,,,,,,,,,,,,,,,,,,,,,,,,550.1759833109973,None,2,0.5548044700117316,550.1759833109973,None,,,,,,,,,,,,,,,,None,None,None,,None,None,550.778482381982,None,3,1,0.7743789629894309,550.778482381982,None,551.5422930927801,None,None,None,None,,11,001,2023_Jan_19_1346,searchDisc5,2021.2.3,60.04611205685769,
images/exp1b_trial_168_colour2_distractors19_r.png,r,3,2,19,1,,,,,0,146,146,146,,,,,,,,,,,,,,,,,,,,,,,,,,,,,,,,,,,,,,,,,,,551.561048203992,None,2,0.35353578699869104,551.561048203992,None,,,,,,,,,,,,,,,,None,None,None,,None,None,551.9611573679722,None,3,1,0.853445090004243,551.9611573679722,None,552.8089715537702,None,None,None,None,,11,001,2023_Jan_19_1346,searchDisc5,2021.2.3,60.04611205685769,
images/exp1b_trial_89_colour3_distractors1_l.png,l,1,3,1,1,,,,,0,147,147,147,,,,,,,,,,,,,,,,,,,,,,,,,,,,,,,,,,,,,,,,,,,552.825486413989,None,2,0.7731423819786869,552.825486413989,None,,,,,,,,,,,,,,,,None,None,None,,None,None,553.6431622529926,None,1,1,0.6369400300027337,553.6431622529926,None,554.2750783217983,None,None,None,None,,11,001,2023_Jan_19_1346,searchDisc5,2021.2.3,60.04611205685769,
images/exp1b_trial_25_colour3_distractors1_l.png,l,1,3,1,1,,,,,0,148,148,148,,,,,,,,,,,,,,,,,,,,,,,,,,,,,,,,,,,,,,,,,,,554.2930940759834,None,2,0.756772740976885,554.2930940759834,None,,,,,,,,,,,,,,,,None,None,None,,None,None,555.0950510909897,None,1,1,0.6879843100032303,555.0950510909897,None,555.7757488627889,None,None,None,None,,11,001,2023_Jan_19_1346,searchDisc5,2021.2.3,60.04611205685769,
images/exp1b_trial_177_colour1_distractors9_l.png,l,1,1,9,1,,,,,0,149,149,149,,,,,,,,,,,,,,,,,,,,,,,,,,,,,,,,,,,,,,,,,,,555.792902044981,None,2,0.40569542898447253,555.792902044981,None,,,,,,,,,,,,,,,,None,None,None,,None,None,556.245090892975,None,1,1,0.7043037939874921,556.245090892975,None,556.9424274377728,None,None,None,None,,11,001,2023_Jan_19_1346,searchDisc5,2021.2.3,60.04611205685769,
images/exp1b_trial_210_colour1_distractors19_l.png,l,1,1,19,1,,,,,0,150,150,150,,,,,,,,,,,,,,,,,,,,,,,,,,,,,,,,,,,,,,,,,,,556.9591890779848,None,2,0.6546984589949716,556.9591890779848,None,,,,,,,,,,,,,,,,None,None,None,,None,None,557.6592850649904,None,1,1,0.6536201970011462,557.6592850649904,None,558.309086259795,None,None,None,None,,11,001,2023_Jan_19_1346,searchDisc5,2021.2.3,60.04611205685769,
images/exp1b_trial_161_colour1_distractors4_r.png,r,3,1,4,1,,,,,0,151,151,151,,,,,,,,,,,,,,,,,,,,,,,,,,,,,,,,,,,,,,,,,,,558.3284849379852,None,2,0.6218051130126696,558.3284849379852,None,,,,,,,,,,,,,,,,None,None,None,,None,None,558.9925171459909,None,3,1,0.6552854139881674,558.9925171459909,None,559.6426195287698,None,None,None,None,,11,001,2023_Jan_19_1346,searchDisc5,2021.2.3,60.04611205685769,
images/exp1b_trial_111_colour1_distractors1_l.png,l,1,1,1,1,,,,,0,152,152,152,,,,,,,,,,,,,,,,,,,,,,,,,,,,,,,,,,,,,,,,,,,559.6582552649779,None,2,0.7903101499832701,559.6582552649779,None,,,,,,,,,,,,,,,,None,None,None,,None,None,560.4926167199737,None,1,1,0.7868519379990175,560.4926167199737,None,561.2755393807805,None,None,None,None,,11,001,2023_Jan_19_1346,searchDisc5,2021.2.3,60.04611205685769,
images/exp1b_trial_306_colour1_distractors19_l.png,l,1,1,19,1,,,,,0,153,153,153,,,,,,,,,,,,,,,,,,,,,,,,,,,,,,,,,,,,,,,,,,,561.2945918839832,None,2,0.9217534280032851,561.2945918839832,None,,,,,,,,,,,,,,,,None,None,None,,None,None,562.2594446909789,None,1,1,1.0550444739928935,562.2594446909789,None,563.3103534187743,None,None,None,None,,11,001,2023_Jan_19_1346,searchDisc5,2021.2.3,60.04611205685769,
images/exp1b_trial_278_colour2_distractors9_l.png,l,1,2,9,1,,,,,0,154,154,154,,,,,,,,,,,,,,,,,,,,,,,,,,,,,,,,,,,,,,,,,,,563.3265768849815,None,2,0.6374045150005259,563.3265768849815,None,,,,,,,,,,,,,,,,None,None,None,,None,None,564.0095292289916,None,1,1,1.3215615160006564,564.0095292289916,None,565.3259642727702,None,None,None,None,,11,001,2023_Jan_19_1346,searchDisc5,2021.2.3,60.04611205685769,
images/exp1b_trial_224_colour1_distractors1_r.png,r,3,1,1,1,,,,,0,155,155,155,,,,,,,,,,,,,,,,,,,,,,,,,,,,,,,,,,,,,,,,,,,565.3430758559844,None,2,0.6734071120154113,565.3430758559844,None,,,,,,,,,,,,,,,,None,None,None,,None,None,566.0615279139893,None,3,1,0.6213941730093211,566.0615279139893,None,566.6763492367958,None,None,None,None,,11,001,2023_Jan_19_1346,searchDisc5,2021.2.3,60.04611205685769,
images/exp1b_trial_308_colour2_distractors1_l.png,l,1,2,1,1,,,,,0,156,156,156,,,,,,,,,,,,,,,,,,,,,,,,,,,,,,,,,,,,,,,,,,,566.6934259119735,None,2,0.4564485440205317,566.6934259119735,None,,,,,,,,,,,,,,,,None,None,None,,None,None,567.1928148659936,None,1,1,0.823154239973519,567.1928148659936,None,568.0094973717845,None,None,None,None,,11,001,2023_Jan_19_1346,searchDisc5,2021.2.3,60.04611205685769,
images/exp1b_trial_295_colour2_distractors9_r.png,r,3,2,9,1,,,,,0,157,157,157,,,,,,,,,,,,,,,,,,,,,,,,,,,,,,,,,,,,,,,,,,,568.0256479919772,None,2,0.6186690939939581,568.0256479919772,None,,,,,,,,,,,,,,,,None,None,None,,None,None,568.693268870993,None,3,1,0.6241629620199092,568.693268870993,None,569.3094402647897,None,None,None,None,,11,001,2023_Jan_19_1346,searchDisc5,2021.2.3,60.04611205685769,
images/exp1b_trial_244_colour2_distractors1_l.png,l,1,2,1,1,,,,,0,158,158,158,,,,,,,,,,,,,,,,,,,,,,,,,,,,,,,,,,,,,,,,,,,569.3252453999885,None,2,0.4884306369931437,569.3252453999885,None,,,,,,,,,,,,,,,,None,None,None,,None,None,569.8603250449814,None,1,1,0.9542117440141737,569.8603250449814,None,570.8094821467733,None,None,None,None,,11,001,2023_Jan_19_1346,searchDisc5,2021.2.3,60.04611205685769,
images/exp1b_trial_96_colour1_distractors1_r.png,r,3,1,1,1,,,,,0,159,159,159,,,,,,,,,,,,,,,,,,,,,,,,,,,,,,,,,,,,,,,,,,,570.8261911699956,None,2,0.5046302999835461,570.8261911699956,None,,,,,,,,,,,,,,,,None,None,None,,None,None,571.3782914939802,None,3,1,0.740038618008839,571.3782914939802,None,572.1095146287902,None,None,None,None,,11,001,2023_Jan_19_1346,searchDisc5,2021.2.3,60.04611205685769,
images/exp1b_trial_195_colour1_distractors19_r.png,r,3,1,19,1,,,,,0,160,160,160,,,,,,,,,,,,,,,,,,,,,,,,,,,,,,,,,,,,,,,,,,,572.1261192759848,None,2,0.3714209640165791,572.1261192759848,None,,,,,,,,,,,,,,,,None,None,None,,None,None,572.5458450829901,None,3,1,0.8027649629802909,572.5458450829901,None,573.3423696367739,None,None,None,None,,11,001,2023_Jan_19_1346,searchDisc5,2021.2.3,60.04611205685769,
images/exp1b_trial_223_colour0_distractors0_l.png,l,1,0,0,1,,,,,0,161,161,161,,,,,,,,,,,,,,,,,,,,,,,,,,,,,,,,,,,,,,,,,,,573.3593680639751,None,2,0.37158659400301985,573.3593680639751,None,,,,,,,,,,,,,,,,None,None,None,,None,None,573.777016617998,None,1,1,0.7224143480125349,573.777016617998,None,574.4922065797931,None,None,None,None,,11,001,2023_Jan_19_1346,searchDisc5,2021.2.3,60.04611205685769,
images/exp1b_trial_97_colour1_distractors4_r.png,r,3,1,4,1,,,,,0,162,162,162,,,,,,,,,,,,,,,,,,,,,,,,,,,,,,,,,,,,,,,,,,,574.511746359989,None,2,0.3396544389834162,574.511746359989,None,,,,,,,,,,,,,,,,None,None,None,,None,None,574.8960207819764,None,3,1,0.6538706279825419,574.8960207819764,None,575.5419637167855,None,None,None,None,,11,001,2023_Jan_19_1346,searchDisc5,2021.2.3,60.04611205685769,
images/exp1b_trial_152_colour2_distractors31_l.png,l,1,2,31,1,,,,,0,163,163,163,,,,,,,,,,,,,,,,,,,,,,,,,,,,,,,,,,,,,,,,,,,575.5601371189987,None,2,0.338961825997103,575.5601371189987,None,,,,,,,,,,,,,,,,None,None,None,,None,None,575.943020628998,None,1,1,0.7538489229918923,575.943020628998,None,576.6929854307876,None,None,None,None,,11,001,2023_Jan_19_1346,searchDisc5,2021.2.3,60.04611205685769,
images/exp1b_trial_287_colour0_distractors0_l.png,l,1,0,0,1,,,,,0,164,164,164,,,,,,,,,,,,,,,,,,,,,,,,,,,,,,,,,,,,,,,,,,,576.7095407109882,None,2,0.3888379530108068,576.7095407109882,None,,,,,,,,,,,,,,,,None,None,None,,None,None,577.1450779309962,None,1,1,0.7555327419831883,577.1450779309962,None,577.8923689247953,None,None,None,None,,11,001,2023_Jan_19_1346,searchDisc5,2021.2.3,60.04611205685769,
images/exp1b_trial_139_colour3_distractors4_r.png,r,3,3,4,1,,,,,0,165,165,165,,,,,,,,,,,,,,,,,,,,,,,,,,,,,,,,,,,,,,,,,,,577.9095808489947,None,2,0.32435506701585837,577.9095808489947,None,,,,,,,,,,,,,,,,None,None,None,,None,None,578.2772054459783,None,3,1,0.7866323399939574,578.2772054459783,None,579.0597284557792,None,None,None,None,,11,001,2023_Jan_19_1346,searchDisc5,2021.2.3,60.04611205685769,
images/exp1b_trial_214_colour2_distractors9_l.png,l,1,2,9,1,,,,,0,166,166,166,,,,,,,,,,,,,,,,,,,,,,,,,,,,,,,,,,,,,,,,,,,579.0767208679754,None,2,0.3883821000054013,579.0767208679754,None,,,,,,,,,,,,,,,,None,None,None,,None,None,579.5129684659769,None,1,1,0.8385060309956316,579.5129684659769,None,580.3430828317854,None,None,None,None,,11,001,2023_Jan_19_1346,searchDisc5,2021.2.3,60.04611205685769,
images/exp1b_trial_78_colour3_distractors31_r.png,r,3,3,31,1,,,,,0,167,167,167,,,,,,,,,,,,,,,,,,,,,,,,,,,,,,,,,,,,,,,,,,,580.3600726739969,None,2,0.3735478190064896,580.3600726739969,None,,,,,,,,,,,,,,,,None,None,None,,None,None,580.7796347939875,None,3,1,2.034402504010359,580.7796347939875,None,582.8098131757782,None,None,None,None,,11,001,2023_Jan_19_1346,searchDisc5,2021.2.3,60.04611205685769,
images/exp1b_trial_190_colour0_distractors0_r.png,r,3,0,0,1,,,,,0,168,168,168,,,,,,,,,,,,,,,,,,,,,,,,,,,,,,,,,,,,,,,,,,,582.8263359949924,None,2,0.33789014298236,582.8263359949924,None,,,,,,,,,,,,,,,,None,None,None,,None,None,583.2107255029841,None,3,1,0.723000031983247,583.2107255029841,None,583.926473982798,None,None,None,None,,11,001,2023_Jan_19_1346,searchDisc5,2021.2.3,60.04611205685769,
images/exp1b_trial_281_colour3_distractors1_l.png,l,1,3,1,1,,,,,0,169,169,169,,,,,,,,,,,,,,,,,,,,,,,,,,,,,,,,,,,,,,,,,,,583.9450421799847,None,2,0.5224670940078795,583.9450421799847,None,,,,,,,,,,,,,,,,None,None,None,,None,None,584.5129119729972,None,1,1,0.6552950670011342,584.5129119729972,None,585.1598471947858,None,None,None,None,,11,001,2023_Jan_19_1346,searchDisc5,2021.2.3,60.04611205685769,
images/exp1b_trial_45_colour3_distractors19_r.png,r,3,3,19,1,,,,,0,170,170,170,,,,,,,,,,,,,,,,,,,,,,,,,,,,,,,,,,,,,,,,,,,585.1763743809715,None,2,0.4545589560002554,585.1763743809715,None,,,,,,,,,,,,,,,,None,None,None,,None,None,585.6773645239882,None,3,1,0.7548931030032691,585.6773645239882,None,586.4265733057895,None,None,None,None,,11,001,2023_Jan_19_1346,searchDisc5,2021.2.3,60.04611205685769,
images/exp1b_trial_146_colour1_distractors19_l.png,l,1,1,19,1,,,,,0,171,171,171,,,,,,,,,,,,,,,,,,,,,,,,,,,,,,,,,,,,,,,,,,,586.4431802299805,None,2,0.5577776369755156,586.4431802299805,None,,,,,,,,,,,,,,,,None,None,None,,None,None,587.0434683839849,None,1,1,0.7655115509987809,587.0434683839849,None,587.8091754257824,None,None,None,None,,11,001,2023_Jan_19_1346,searchDisc5,2021.2.3,60.04611205685769,
images/exp1b_trial_277_colour2_distractors4_l.png,l,1,2,4,1,,,,,0,172,172,172,,,,,,,,,,,,,,,,,,,,,,,,,,,,,,,,,,,,,,,,,,,587.8273655849916,None,2,0.537841509009013,587.8273655849916,None,,,,,,,,,,,,,,,,None,None,None,,None,None,588.4131387839734,None,1,1,0.656758435012307,588.4131387839734,None,589.0595291207923,None,None,None,None,,11,001,2023_Jan_19_1346,searchDisc5,2021.2.3,60.04611205685769,
images/exp1b_trial_147_colour1_distractors31_l.png,l,1,1,31,1,,,,,0,173,173,173,,,,,,,,,,,,,,,,,,,,,,,,,,,,,,,,,,,,,,,,,,,589.0764780539903,None,2,0.45502970699453726,589.0764780539903,None,,,,,,,,,,,,,,,,None,None,None,,None,None,589.5773419209872,None,1,1,0.9027865469979588,589.5773419209872,None,590.4768050687766,None,None,None,None,,11,001,2023_Jan_19_1346,searchDisc5,2021.2.3,60.04611205685769,
images/exp1b_trial_151_colour2_distractors19_l.png,l,1,2,19,1,,,,,0,174,174,174,,,,,,,,,,,,,,,,,,,,,,,,,,,,,,,,,,,,,,,,,,,590.4931571559864,None,2,0.48782802099594846,590.4931571559864,None,,,,,,,,,,,,,,,,None,None,None,,None,None,591.0261178169749,None,1,1,0.9211504030099604,591.0261178169749,None,591.9433897037728,None,None,None,None,,11,001,2023_Jan_19_1346,searchDisc5,2021.2.3,60.04611205685769,
images/exp1b_trial_27_colour3_distractors9_l.png,l,1,3,9,1,,,,,0,175,175,175,,,,,,,,,,,,,,,,,,,,,,,,,,,,,,,,,,,,,,,,,,,591.9600018329802,None,2,0.4234690699959174,591.9600018329802,None,,,,,,,,,,,,,,,,None,None,None,,None,None,592.427886282996,None,1,1,0.9535209519963246,592.427886282996,None,593.3771919097838,None,None,None,None,,11,001,2023_Jan_19_1346,searchDisc5,2021.2.3,60.04611205685769,
images/exp1b_trial_213_colour2_distractors4_l.png,l,1,2,4,1,,,,,0,176,176,176,,,,,,,,,,,,,,,,,,,,,,,,,,,,,,,,,,,,,,,,,,,593.3960009339789,None,2,0.43793567398097366,593.3960009339789,None,,,,,,,,,,,,,,,,None,None,None,,None,None,593.8772735149832,None,1,1,0.9059192140121013,593.8772735149832,None,594.7768684147944,None,None,None,None,,11,001,2023_Jan_19_1346,searchDisc5,2021.2.3,60.04611205685769,
images/exp1b_trial_314_colour3_distractors4_l.png,l,1,3,4,1,,,,,0,177,177,177,,,,,,,,,,,,,,,,,,,,,,,,,,,,,,,,,,,,,,,,,,,594.7962195239961,None,2,0.3897384180163499,594.7962195239961,None,,,,,,,,,,,,,,,,None,None,None,,None,None,595.2268982539827,None,1,1,0.8531947089941241,595.2268982539827,None,596.0764721297804,None,None,None,None,,11,001,2023_Jan_19_1346,searchDisc5,2021.2.3,60.04611205685769,
images/exp1b_trial_57_colour3_distractors1_l.png,l,1,3,1,1,,,,,0,178,178,178,,,,,,,,,,,,,,,,,,,,,,,,,,,,,,,,,,,,,,,,,,,596.0932512829895,None,2,0.3714113679889124,596.0932512829895,None,,,,,,,,,,,,,,,,None,None,None,,None,None,596.512173643976,None,1,1,0.8064242880209349,596.512173643976,None,597.3104150427883,None,None,None,None,,11,001,2023_Jan_19_1346,searchDisc5,2021.2.3,60.04611205685769,
images/exp1b_trial_251_colour3_distractors9_l.png,l,1,3,9,1,,,,,0,179,179,179,,,,,,,,,,,,,,,,,,,,,,,,,,,,,,,,,,,,,,,,,,,597.3267343209882,None,2,0.42271182299009524,597.3267343209882,None,,,,,,,,,,,,,,,,None,None,None,,None,None,597.7955421699735,None,1,1,0.8371156460198108,597.7955421699735,None,598.6271217917878,None,None,None,None,,11,001,2023_Jan_19_1346,searchDisc5,2021.2.3,60.04611205685769,
images/exp1b_trial_270_colour3_distractors31_r.png,r,3,3,31,1,,,,,0,180,180,180,,,,,,,,,,,,,,,,,,,,,,,,,,,,,,,,,,,,,,,,,,,598.6433674729778,None,2,0.38986319600371644,598.6433674729778,None,,,,,,,,,,,,,,,,None,None,None,,None,None,599.076989683992,None,3,1,0.8008171289984602,599.076989683992,None,599.876984121793,None,None,None,None,,11,001,2023_Jan_19_1346,searchDisc5,2021.2.3,60.04611205685769,
images/exp1b_trial_145_colour1_distractors9_l.png,l,1,1,9,1,,,,,0,181,181,181,,,,,,,,,,,,,,,,,,,,,,,,,,,,,,,,,,,,,,,,,,,599.8944173549826,None,2,0.3878232539864257,599.8944173549826,None,,,,,,,,,,,,,,,,None,None,None,,None,None,600.3279121949745,None,1,1,0.8385072039964143,600.3279121949745,None,601.1603675417922,None,None,None,None,,11,001,2023_Jan_19_1346,searchDisc5,2021.2.3,60.04611205685769,
images/exp1b_trial_31_colour0_distractors0_l.png,l,1,0,0,1,,,,,0,182,182,182,,,,,,,,,,,,,,,,,,,,,,,,,,,,,,,,,,,,,,,,,,,601.1769530229794,None,2,0.39198161399690434,601.1769530229794,None,,,,,,,,,,,,,,,,None,None,None,,None,None,601.6135587629979,None,1,1,0.8190899989858735,601.6135587629979,None,602.4263926587795,None,None,None,None,,11,001,2023_Jan_19_1346,searchDisc5,2021.2.3,60.04611205685769,
images/exp1b_trial_73_colour2_distractors31_r.png,r,3,2,31,1,,,,,0,183,183,183,,,,,,,,,,,,,,,,,,,,,,,,,,,,,,,,,,,,,,,,,,,602.4444392499863,None,2,0.3728346169809811,602.4444392499863,None,,,,,,,,,,,,,,,,None,None,None,,None,None,602.8624274209724,None,3,1,0.8870197960059159,602.8624274209724,None,603.7438684007706,None,None,None,None,,11,001,2023_Jan_19_1346,searchDisc5,2021.2.3,60.04611205685769,
images/exp1b_trial_85_colour2_distractors4_l.png,l,1,2,4,1,,,,,0,184,184,184,,,,,,,,,,,,,,,,,,,,,,,,,,,,,,,,,,,,,,,,,,,603.7602278699924,None,2,0.33787062601186335,603.7602278699924,None,,,,,,,,,,,,,,,,None,None,None,,None,None,604.1443564109795,None,1,1,0.8556851430039387,604.1443564109795,None,604.9938391827949,None,None,None,None,,11,001,2023_Jan_19_1346,searchDisc5,2021.2.3,60.04611205685769,
images/exp1b_trial_231_colour2_distractors9_r.png,r,3,2,9,1,,,,,0,185,185,185,,,,,,,,,,,,,,,,,,,,,,,,,,,,,,,,,,,,,,,,,,,605.0112191069929,None,2,0.37191721599083394,605.0112191069929,None,,,,,,,,,,,,,,,,None,None,None,,None,None,605.4272332549735,None,3,1,0.7713779390032869,605.4272332549735,None,606.1937892117916,None,None,None,None,,11,001,2023_Jan_19_1346,searchDisc5,2021.2.3,60.04611205685769,
images/exp1b_trial_103_colour2_distractors9_r.png,r,3,2,9,1,,,,,0,186,186,186,,,,,,,,,,,,,,,,,,,,,,,,,,,,,,,,,,,,,,,,,,,606.2102616889752,None,2,0.35442127799615264,606.2102616889752,None,,,,,,,,,,,,,,,,None,None,None,,None,None,606.6125919479819,None,3,1,0.922399202012457,606.6125919479819,None,607.5272615717753,None,None,None,None,,11,001,2023_Jan_19_1346,searchDisc5,2021.2.3,60.04611205685769,
images/exp1b_trial_199_colour2_distractors9_r.png,r,3,2,9,1,,,,,0,187,187,187,,,,,,,,,,,,,,,,,,,,,,,,,,,,,,,,,,,,,,,,,,,607.5437631909736,None,2,0.3389809590007644,607.5437631909736,None,,,,,,,,,,,,,,,,None,None,None,,None,None,607.9272884699749,None,3,1,0.8709563289885409,607.9272884699749,None,608.7934931867843,None,None,None,None,,11,001,2023_Jan_19_1346,searchDisc5,2021.2.3,60.04611205685769,
images/exp1b_trial_4_colour1_distractors31_r.png,r,3,1,31,1,,,,,0,188,188,188,,,,,,,,,,,,,,,,,,,,,,,,,,,,,,,,,,,,,,,,,,,608.8133389929717,None,2,0.3738445900089573,608.8133389929717,None,,,,,,,,,,,,,,,,None,None,None,,None,None,609.229447072983,None,3,1,0.916834209987428,609.229447072983,None,610.1438558007852,None,None,None,None,,11,001,2023_Jan_19_1346,searchDisc5,2021.2.3,60.04611205685769,
images/exp1b_trial_134_colour2_distractors4_r.png,r,3,2,4,1,,,,,0,189,189,189,,,,,,,,,,,,,,,,,,,,,,,,,,,,,,,,,,,,,,,,,,,610.1604404719837,None,2,0.3876272609923035,610.1604404719837,None,,,,,,,,,,,,,,,,None,None,None,,None,None,610.5959698009829,None,3,1,0.7246601450024173,610.5959698009829,None,611.3106343577878,None,None,None,None,,11,001,2023_Jan_19_1346,searchDisc5,2021.2.3,60.04611205685769,
images/exp1b_trial_43_colour3_distractors4_r.png,r,3,3,4,1,,,,,0,190,190,190,,,,,,,,,,,,,,,,,,,,,,,,,,,,,,,,,,,,,,,,,,,611.3268015020003,None,2,0.35351297198212706,611.3268015020003,None,,,,,,,,,,,,,,,,None,None,None,,None,None,611.7270576349983,None,3,1,0.8041871000023093,611.7270576349983,None,612.5269716957904,None,None,None,None,,11,001,2023_Jan_19_1346,searchDisc5,2021.2.3,60.04611205685769,
images/exp1b_trial_272_colour1_distractors4_l.png,l,1,1,4,1,,,,,0,191,191,191,,,,,,,,,,,,,,,,,,,,,,,,,,,,,,,,,,,,,,,,,,,612.5449537709937,None,2,0.40638506499817595,612.5449537709937,None,,,,,,,,,,,,,,,,None,None,None,,None,None,612.9941769799916,None,1,1,0.7548500489792787,612.9941769799916,None,613.7440530327934,None,None,None,None,,11,001,2023_Jan_19_1346,searchDisc5,2021.2.3,60.04611205685769,
images/exp1b_trial_267_colour3_distractors4_r.png,r,3,3,4,1,,,,,0,192,192,192,,,,,,,,,,,,,,,,,,,,,,,,,,,,,,,,,,,,,,,,,,,613.7612432419846,None,2,0.38809025497175753,613.7612432419846,None,,,,,,,,,,,,,,,,None,None,None,,None,None,614.1961895679997,None,3,1,0.7556069190031849,614.1961895679997,None,614.9441308017907,None,None,None,None,,11,001,2023_Jan_19_1346,searchDisc5,2021.2.3,60.04611205685769,
images/exp1b_trial_319_colour0_distractors0_l.png,l,1,0,0,1,,,,,0,193,193,193,,,,,,,,,,,,,,,,,,,,,,,,,,,,,,,,,,,,,,,,,,,614.9596621249802,None,2,0.37190918999840505,614.9596621249802,None,,,,,,,,,,,,,,,,None,None,None,,None,None,615.3797268749913,None,1,1,0.7571529059787281,615.3797268749913,None,616.1284397747862,None,None,None,None,,11,001,2023_Jan_19_1346,searchDisc5,2021.2.3,60.04611205685769,
images/exp1b_trial_108_colour3_distractors9_r.png,r,3,3,9,1,,,,,0,194,194,194,,,,,,,,,,,,,,,,,,,,,,,,,,,,,,,,,,,,,,,,,,,616.1444140599924,None,2,0.45310663600685075,616.1444140599924,None,,,,,,,,,,,,,,,,None,None,None,,None,None,616.6473753069877,None,3,1,0.7066942880046554,616.6473753069877,None,617.3435077047819,None,None,None,None,,11,001,2023_Jan_19_1346,searchDisc5,2021.2.3,60.04611205685769,
images/exp1b_trial_150_colour2_distractors9_l.png,l,1,2,9,1,,,,,0,195,195,195,,,,,,,,,,,,,,,,,,,,,,,,,,,,,,,,,,,,,,,,,,,617.3614536959794,None,2,0.4698348050005734,617.3614536959794,None,,,,,,,,,,,,,,,,None,None,None,,None,None,617.8780747469864,None,1,1,0.9900495969923213,617.8780747469864,None,618.861957561798,None,None,None,None,,11,001,2023_Jan_19_1346,searchDisc5,2021.2.3,60.04611205685769,
images/exp1b_trial_127_colour0_distractors0_l.png,l,1,0,0,1,,,,,0,196,196,196,,,,,,,,,,,,,,,,,,,,,,,,,,,,,,,,,,,,,,,,,,,618.879348574992,None,2,0.5867765319999307,618.879348574992,None,,,,,,,,,,,,,,,,None,None,None,,None,None,619.510917757987,None,1,1,0.7443430640269071,619.510917757987,None,620.2462574537698,None,None,None,None,,11,001,2023_Jan_19_1346,searchDisc5,2021.2.3,60.04611205685769,
images/exp1b_trial_58_colour3_distractors4_l.png,l,1,3,4,1,,,,,0,197,197,197,,,,,,,,,,,,,,,,,,,,,,,,,,,,,,,,,,,,,,,,,,,620.2627535849751,None,2,0.23591591097647324,620.2627535849751,None,,,,,,,,,,,,,,,,None,None,None,,None,None,620.5443617239944,None,1,1,0.8359594109933823,620.5443617239944,None,621.3776213747827,None,None,None,None,,11,001,2023_Jan_19_1346,searchDisc5,2021.2.3,60.04611205685769,
images/exp1b_trial_19_colour1_distractors31_l.png,l,1,1,31,1,,,,,0,198,198,198,,,,,,,,,,,,,,,,,,,,,,,,,,,,,,,,,,,,,,,,,,,621.3941675969982,None,2,0.39069226299761795,621.3941675969982,None,,,,,,,,,,,,,,,,None,None,None,,None,None,621.829700577975,None,1,1,0.9168219619896263,621.829700577975,None,622.744281634796,None,None,None,None,,11,001,2023_Jan_19_1346,searchDisc5,2021.2.3,60.04611205685769,
images/exp1b_trial_250_colour3_distractors4_l.png,l,1,3,4,1,,,,,0,199,199,199,,,,,,,,,,,,,,,,,,,,,,,,,,,,,,,,,,,,,,,,,,,622.761308814981,None,2,0.3046310520148836,622.761308814981,None,,,,,,,,,,,,,,,,None,None,None,,None,None,623.1109893439861,None,1,1,0.8557042820029892,623.1109893439861,None,623.9610460597818,None,None,None,None,,11,001,2023_Jan_19_1346,searchDisc5,2021.2.3,60.04611205685769,
images/exp1b_trial_7_colour2_distractors9_r.png,r,3,2,9,1,,,,,0,200,200,200,,,,,,,,,,,,,,,,,,,,,,,,,,,,,,,,,,,,,,,,,,,623.9777596659842,None,2,0.38796770200133324,623.9777596659842,None,,,,,,,,,,,,,,,,None,None,None,,None,None,624.4139067049837,None,3,1,0.9055170740175527,624.4139067049837,None,625.3110411857982,None,None,None,None,,11,001,2023_Jan_19_1346,searchDisc5,2021.2.3,60.04611205685769,
images/exp1b_trial_256_colour1_distractors1_r.png,r,3,1,1,1,,,,,0,201,201,201,,,,,,,,,,,,,,,,,,,,,,,,,,,,,,,,,,,,,,,,,,,625.3274887789739,None,2,0.372050145000685,625.3274887789739,None,,,,,,,,,,,,,,,,None,None,None,,None,None,625.746226074989,None,3,1,0.822488607984269,625.746226074989,None,626.5610202607844,None,None,None,None,,11,001,2023_Jan_19_1346,searchDisc5,2021.2.3,60.04611205685769,
images/exp1b_trial_243_colour1_distractors31_l.png,l,1,1,31,1,,,,,0,202,202,202,,,,,,,,,,,,,,,,,,,,,,,,,,,,,,,,,,,,,,,,,,,626.5784445159952,None,2,0.4059340709936805,626.5784445159952,None,,,,,,,,,,,,,,,,None,None,None,,None,None,627.029853082,None,1,1,0.8516919059911743,627.029853082,None,627.877691827793,None,None,None,None,,11,001,2023_Jan_19_1346,searchDisc5,2021.2.3,60.04611205685769,
images/exp1b_trial_122_colour3_distractors4_l.png,l,1,3,4,1,,,,,0,203,203,203,,,,,,,,,,,,,,,,,,,,,,,,,,,,,,,,,,,,,,,,,,,627.8934948379756,None,2,0.3888930389948655,627.8934948379756,None,,,,,,,,,,,,,,,,None,None,None,,None,None,628.3287566419749,None,1,1,0.8727911399910226,628.3287566419749,None,629.1953806467849,None,None,None,None,,11,001,2023_Jan_19_1346,searchDisc5,2021.2.3,60.04611205685769,
images/exp1b_trial_169_colour2_distractors31_r.png,r,3,2,31,1,,,,,0,204,204,204,,,,,,,,,,,,,,,,,,,,,,,,,,,,,,,,,,,,,,,,,,,629.2130611439934,None,2,0.45364474298548885,629.2130611439934,None,,,,,,,,,,,,,,,,None,None,None,,None,None,629.7121749469952,None,3,1,0.788507685996592,629.7121749469952,None,630.4954607877793,None,None,None,None,,11,001,2023_Jan_19_1346,searchDisc5,2021.2.3,60.04611205685769,
images/exp1b_trial_63_colour0_distractors0_l.png,l,1,0,0,1,,,,,0,205,205,205,,,,,,,,,,,,,,,,,,,,,,,,,,,,,,,,,,,,,,,,,,,630.5130975749926,None,2,0.35284086799947545,630.5130975749926,None,,,,,,,,,,,,,,,,None,None,None,,None,None,630.9112576789921,None,1,1,0.7570899600104894,630.9112576789921,None,631.6606551107747,None,None,None,None,,11,001,2023_Jan_19_1346,searchDisc5,2021.2.3,60.04611205685769,
images/exp1b_trial_156_colour3_distractors19_l.png,l,1,3,19,1,,,,,0,206,206,206,,,,,,,,,,,,,,,,,,,,,,,,,,,,,,,,,,,,,,,,,,,631.6776989589853,None,2,0.4050228749983944,631.6776989589853,None,,,,,,,,,,,,,,,,None,None,None,,None,None,632.1309780899901,None,1,1,0.8374647690216079,632.1309780899901,None,632.9611962717812,None,None,None,None,,11,001,2023_Jan_19_1346,searchDisc5,2021.2.3,60.04611205685769,
images/exp1b_trial_198_colour2_distractors4_r.png,r,3,2,4,1,,,,,0,207,207,207,,,,,,,,,,,,,,,,,,,,,,,,,,,,,,,,,,,,,,,,,,,632.9783527719846,None,2,0.4242133599764202,632.9783527719846,None,,,,,,,,,,,,,,,,None,None,None,,None,None,633.4475850449817,None,3,1,0.6875921449973248,633.4475850449817,None,634.1288647967943,None,None,None,None,,11,001,2023_Jan_19_1346,searchDisc5,2021.2.3,60.04611205685769,
images/exp1b_trial_172_colour3_distractors9_r.png,r,3,3,9,1,,,,,0,208,208,208,,,,,,,,,,,,,,,,,,,,,,,,,,,,,,,,,,,,,,,,,,,634.1450184109854,None,2,0.4068327500135638,634.1450184109854,None,,,,,,,,,,,,,,,,None,None,None,,None,None,634.5974156049779,None,3,1,0.8855491470021661,634.5974156049779,None,635.4779419597966,None,None,None,None,,11,001,2023_Jan_19_1346,searchDisc5,2021.2.3,60.04611205685769,
images/exp1b_trial_276_colour2_distractors1_l.png,l,1,2,1,1,,,,,0,209,209,209,,,,,,,,,,,,,,,,,,,,,,,,,,,,,,,,,,,,,,,,,,,635.4944560379954,None,2,0.5213307790108956,635.4944560379954,None,,,,,,,,,,,,,,,,None,None,None,,None,None,636.063952676981,None,1,1,0.8233100379875395,636.063952676981,None,636.8779884527816,None,None,None,None,,11,001,2023_Jan_19_1346,searchDisc5,2021.2.3,60.04611205685769,
images/exp1b_trial_163_colour1_distractors19_r.png,r,3,1,19,1,,,,,0,210,210,210,,,,,,,,,,,,,,,,,,,,,,,,,,,,,,,,,,,,,,,,,,,636.8936213279958,None,2,0.4236468060116749,636.8936213279958,None,,,,,,,,,,,,,,,,None,None,None,,None,None,637.3617343489896,None,3,1,0.7846726619754918,637.3617343489896,None,638.1447702667705,None,None,None,None,,11,001,2023_Jan_19_1346,searchDisc5,2021.2.3,60.04611205685769,
images/exp1b_trial_112_colour1_distractors4_l.png,l,1,1,4,1,,,,,0,211,211,211,,,,,,,,,,,,,,,,,,,,,,,,,,,,,,,,,,,,,,,,,,,638.1614227959944,None,2,0.3879626289999578,638.1614227959944,None,,,,,,,,,,,,,,,,None,None,None,,None,None,638.5956512759731,None,1,1,0.8891501399921253,638.5956512759731,None,639.4779249187762,None,None,None,None,,11,001,2023_Jan_19_1346,searchDisc5,2021.2.3,60.04611205685769,
images/exp1b_trial_0_colour1_distractors1_r.png,r,3,1,1,1,,,,,0,212,212,212,,,,,,,,,,,,,,,,,,,,,,,,,,,,,,,,,,,,,,,,,,,639.4945784359879,None,2,0.407610043999739,639.4945784359879,None,,,,,,,,,,,,,,,,None,None,None,,None,None,639.9469454599894,None,3,1,0.6862837139924522,639.9469454599894,None,640.6275086327718,None,None,None,None,,11,001,2023_Jan_19_1346,searchDisc5,2021.2.3,60.04611205685769,
images/exp1b_trial_263_colour2_distractors9_r.png,r,3,2,9,1,,,,,0,213,213,213,,,,,,,,,,,,,,,,,,,,,,,,,,,,,,,,,,,,,,,,,,,640.6454038889788,None,2,0.42409940500510857,640.6454038889788,None,,,,,,,,,,,,,,,,None,None,None,,None,None,641.1130759679945,None,3,1,0.919988467998337,641.1130759679945,None,642.0281625907722,None,None,None,None,,11,001,2023_Jan_19_1346,searchDisc5,2021.2.3,60.04611205685769,
images/exp1b_trial_196_colour1_distractors31_r.png,r,3,1,31,1,,,,,0,214,214,214,,,,,,,,,,,,,,,,,,,,,,,,,,,,,,,,,,,,,,,,,,,642.045491375,None,2,0.4084985450026579,642.045491375,None,,,,,,,,,,,,,,,,None,None,None,,None,None,642.4977272260003,None,3,1,0.7816482479975093,642.4977272260003,None,643.2783398887753,None,None,None,None,,11,001,2023_Jan_19_1346,searchDisc5,2021.2.3,60.04611205685769,
images/exp1b_trial_289_colour1_distractors4_r.png,r,3,1,4,1,,,,,0,215,215,215,,,,,,,,,,,,,,,,,,,,,,,,,,,,,,,,,,,,,,,,,,,643.2946645989723,None,2,0.4232477040204685,643.2946645989723,None,,,,,,,,,,,,,,,,None,None,None,,None,None,643.7616503989848,None,3,1,0.8202152920130175,643.7616503989848,None,644.577952843791,None,None,None,None,,11,001,2023_Jan_19_1346,searchDisc5,2021.2.3,60.04611205685769,
images/exp1b_trial_129_colour1_distractors4_r.png,r,3,1,4,1,,,,,0,216,216,216,,,,,,,,,,,,,,,,,,,,,,,,,,,,,,,,,,,,,,,,,,,644.5947082849743,None,2,0.40694390700082295,644.5947082849743,None,,,,,,,,,,,,,,,,None,None,None,,None,None,645.0472671289754,None,3,1,0.8046962610096671,645.0472671289754,None,645.8451541937742,None,None,None,None,,11,001,2023_Jan_19_1346,searchDisc5,2021.2.3,60.04611205685769,
images/exp1b_trial_286_colour0_distractors0_r.png,r,3,0,0,1,,,,,0,217,217,217,,,,,,,,,,,,,,,,,,,,,,,,,,,,,,,,,,,,,,,,,,,645.862428538996,None,2,0.4395386050164234,645.862428538996,None,,,,,,,,,,,,,,,,None,None,None,,None,None,646.3469926749822,None,3,1,0.804854471993167,646.3469926749822,None,647.1450361567753,None,None,None,None,,11,001,2023_Jan_19_1346,searchDisc5,2021.2.3,60.04611205685769,
images/exp1b_trial_109_colour3_distractors19_r.png,r,3,3,19,1,,,,,0,218,218,218,,,,,,,,,,,,,,,,,,,,,,,,,,,,,,,,,,,,,,,,,,,647.1616596779786,None,2,0.4882153479848057,647.1616596779786,None,,,,,,,,,,,,,,,,None,None,None,,None,None,647.695767326979,None,3,1,0.7701454019988887,647.695767326979,None,648.4617572297778,None,None,None,None,,11,001,2023_Jan_19_1346,searchDisc5,2021.2.3,60.04611205685769,
images/exp1b_trial_62_colour0_distractors0_r.png,r,3,0,0,1,,,,,0,219,219,219,,,,,,,,,,,,,,,,,,,,,,,,,,,,,,,,,,,,,,,,,,,648.4786518089822,None,2,0.4221691499988083,648.4786518089822,None,,,,,,,,,,,,,,,,None,None,None,,None,None,648.9454328399734,None,3,1,0.7896077999903355,648.9454328399734,None,649.7287862107827,None,None,None,None,,11,001,2023_Jan_19_1346,searchDisc5,2021.2.3,60.04611205685769,
images/exp1b_trial_255_colour0_distractors0_l.png,l,1,0,0,1,,,,,0,220,220,220,,,,,,,,,,,,,,,,,,,,,,,,,,,,,,,,,,,,,,,,,,,649.7460880539729,None,2,0.4705527100013569,649.7460880539729,None,,,,,,,,,,,,,,,,None,None,None,,None,None,650.2617911619891,None,1,1,0.7901377709931694,650.2617911619891,None,651.0450171927718,None,None,None,None,,11,001,2023_Jan_19_1346,searchDisc5,2021.2.3,60.04611205685769,
images/exp1b_trial_249_colour3_distractors1_l.png,l,1,3,1,1,,,,,0,221,221,221,,,,,,,,,,,,,,,,,,,,,,,,,,,,,,,,,,,,,,,,,,,651.0620378999738,None,2,0.45472624100511894,651.0620378999738,None,,,,,,,,,,,,,,,,None,None,None,,None,None,651.5618032099737,None,1,1,0.9230796319898218,651.5618032099737,None,652.4784388897737,None,None,None,None,,11,001,2023_Jan_19_1346,searchDisc5,2021.2.3,60.04611205685769,
images/exp1b_trial_56_colour2_distractors31_l.png,l,1,2,31,1,,,,,0,222,222,222,,,,,,,,,,,,,,,,,,,,,,,,,,,,,,,,,,,,,,,,,,,652.4958729679929,None,2,0.33861406799405813,652.4958729679929,None,,,,,,,,,,,,,,,,None,None,None,,None,None,652.8806139189983,None,1,1,0.9196774669981096,652.8806139189983,None,653.7948645507771,None,None,None,None,,11,001,2023_Jan_19_1346,searchDisc5,2021.2.3,60.04611205685769,
images/exp1b_trial_1_colour1_distractors4_r.png,r,3,1,4,1,,,,,0,223,223,223,,,,,,,,,,,,,,,,,,,,,,,,,,,,,,,,,,,,,,,,,,,653.8128846169857,None,2,0.3900305060087703,653.8128846169857,None,,,,,,,,,,,,,,,,None,None,None,,None,None,654.2454264029802,None,3,1,0.7711512859968934,654.2454264029802,None,655.0118868857884,None,None,None,None,,11,001,2023_Jan_19_1346,searchDisc5,2021.2.3,60.04611205685769,
images/exp1b_trial_312_colour2_distractors31_l.png,l,1,2,31,1,,,,,0,224,224,224,,,,,,,,,,,,,,,,,,,,,,,,,,,,,,,,,,,,,,,,,,,655.027948803996,None,2,0.43888340299599804,655.027948803996,None,,,,,,,,,,,,,,,,None,None,None,,None,None,655.5124769319955,None,1,1,0.8048244940000586,655.5124769319955,None,656.3118758837721,None,None,None,None,,11,001,2023_Jan_19_1346,searchDisc5,2021.2.3,60.04611205685769,
images/exp1b_trial_318_colour0_distractors0_r.png,r,3,0,0,1,,,,,0,225,225,225,,,,,,,,,,,,,,,,,,,,,,,,,,,,,,,,,,,,,,,,,,,656.3276716289984,None,2,0.4378784979926422,656.3276716289984,None,,,,,,,,,,,,,,,,None,None,None,,None,None,656.8124893879867,None,3,1,0.8221877280157059,656.8124893879867,None,657.6285301747761,None,None,None,None,,11,001,2023_Jan_19_1346,searchDisc5,2021.2.3,60.04611205685769,
