ImageFile,targ_side,correctAnswer,colour,distNo,targetType,trials_2.thisRepN,trials_2.thisTrialN,trials_2.thisN,trials_2.thisIndex,trials.thisRepN,trials.thisTrialN,trials.thisN,trials.thisIndex,text_6.started,text_6.stopped,buttonBox.keys,buttonBox.rt,buttonBox.started,buttonBox.stopped,text_7.started,text_7.stopped,buttonBox_3.keys,buttonBox_3.rt,buttonBox_3.started,buttonBox_3.stopped,text_8.started,text_8.stopped,buttonBox_4.keys,buttonBox_4.rt,buttonBox_4.started,buttonBox_4.stopped,text_9.started,text_9.stopped,buttonBox_5.keys,buttonBox_5.rt,buttonBox_5.started,buttonBox_5.stopped,text_2.started,text_2.stopped,buttonBox_6.keys,buttonBox_6.rt,buttonBox_6.started,buttonBox_6.stopped,text_5.started,text_5.stopped,buttonBox_7.keys,buttonBox_7.rt,image_2.started,image_2.stopped,image_3.started,image_3.stopped,buttonBox_8.keys,buttonBox_8.rt,buttonBox_8.started,buttonBox_8.stopped,polygon.started,polygon.stopped,buttonBox_9.keys,buttonBox_9.rt,buttonBox_9.started,buttonBox_9.stopped,image.started,image.stopped,buttonBox_10.keys,buttonBox_10.corr,buttonBox_10.rt,buttonBox_10.started,buttonBox_10.stopped,text_4.started,text_4.stopped,text.started,text.stopped,buttonBox_11.keys,buttonBox_11.rt,buttonBox_11.started,buttonBox_11.stopped,targetTypeInstruction.started,targetTypeInstruction.stopped,buttonBox_2.keys,buttonBox_2.rt,buttonBox_2.started,buttonBox_2.stopped,dispStimuli.started,dispStimuli.stopped,buttonBox_12.keys,buttonBox_12.corr,buttonBox_12.rt,buttonBox_12.started,buttonBox_12.stopped,breakMessage.started,breakMessage.stopped,buttonBox_13.keys,buttonBox_13.started,buttonBox_13.stopped,buttonBox_13.rt,participant,session,date,expName,psychopyVersion,frameRate,
,,,,,,,,,,,,,,65.8569869689818,None,2,67.67609611098305,65.8569869689818,None,,,,,,,,,,,,,,,,,,,,,,,,,,,,,,,,,,,,,,,,,,,,,,,,,,,,,,,,,,,,,,,,,,,,,,,,,,,,,12,001,2023_Jan_19_1552,searchDisc5,2021.2.3,60.004936606701264,
,,,,,,,,,,,,,,,,,,,,133.5235332470038,None,2,35.71540371500305,133.5235332470038,None,,,,,,,,,,,,,,,,,,,,,,,,,,,,,,,,,,,,,,,,,,,,,,,,,,,,,,,,,,,,,,,,,,,,,,,12,001,2023_Jan_19_1552,searchDisc5,2021.2.3,60.004936606701264,
,,,,,,,,,,,,,,,,,,,,,,,,,,169.24324347099173,None,2,16.364765853999415,169.24324347099173,None,,,,,,,,,,,,,,,,,,,,,,,,,,,,,,,,,,,,,,,,,,,,,,,,,,,,,,,,,,,,,,,,,12,001,2023_Jan_19_1552,searchDisc5,2021.2.3,60.004936606701264,
,,,,,,,,,,,,,,,,,,,,,,,,,,,,,,,,185.60824513999978,None,2,11.04798515100265,185.60824513999978,None,,,,,,,,,,,,,,,,,,,,,,,,,,,,,,,,,,,,,,,,,,,,,,,,,,,,,,,,,,,12,001,2023_Jan_19_1552,searchDisc5,2021.2.3,60.004936606701264,
,,,,,,,,,,,,,,,,,,,,,,,,,,,,,,,,,,,,,,196.6583832729957,None,2,5.6335453760111704,197.64389626900083,None,,,,,,,,,,,,,,,,,,,,,,,,,,,,,,,,,,,,,,,,,,,,,,,,,,,,,12,001,2023_Jan_19_1552,searchDisc5,2021.2.3,60.004936606701264,
,,,,,,,,,,,,,,,,,,,,,,,,,,,,,,,,,,,,,,,,,,,,203.27735451198532,None,2,9.98149490900687,,,,,,,,,,,,,,,,,,,,,,,,,,,,,,,,,,,,,,,,,,,,,,,,,12,001,2023_Jan_19_1552,searchDisc5,2021.2.3,60.004936606701264,
,,,,,,,,,,,,,,,,,,,,,,,,,,,,,,,,,,,,,,,,,,,,,,,,216.25893303900375,None,216.25893303900375,None,2,10.90018279699143,216.25893303900375,None,,,,,,,,,,,,,,,,,,,,,,,,,,,,,,,,,,,,,,,,,12,001,2023_Jan_19_1552,searchDisc5,2021.2.3,60.004936606701264,
Practice arrays/exp1a_trial_23_colour2_distractors19_l.png,l,1,,,,0,0,0,10,,,,,,,,,,,,,,,,,,,,,,,,,,,,,,,,,,,,,,,,,,,,,,,227.19267238400062,None,2,5.302429697010666,227.19267238400062,None,232.5473388620012,None,1,1,2.8696667140175123,232.5473388620012,None,235.40931471000658,None,,,,,,,,,,,,,,,,,,,,,,,,,,12,001,2023_Jan_19_1552,searchDisc5,2021.2.3,60.004936606701264,
Practice arrays/exp1a_trial_25_colour3_distractors1_l.png,l,1,,,,0,1,1,11,,,,,,,,,,,,,,,,,,,,,,,,,,,,,,,,,,,,,,,,,,,,,,,237.41164172498975,None,2,2.832602451002458,237.41164172498975,None,240.29318176300148,None,1,1,1.7187727369891945,240.29318176300148,None,242.00988679699367,None,,,,,,,,,,,,,,,,,,,,,,,,,,12,001,2023_Jan_19_1552,searchDisc5,2021.2.3,60.004936606701264,
Practice arrays/exp1a_trial_1_colour1_distractors4_r.png,r,3,,,,0,2,2,1,,,,,,,,,,,,,,,,,,,,,,,,,,,,,,,,,,,,,,,,,,,,,,,244.01158172998112,None,2,0.8637669339950662,244.01158172998112,None,244.9259417919966,None,3,1,1.1702994249935728,244.9259417919966,None,246.09314581900253,None,,,,,,,,,,,,,,,,,,,,,,,,,,12,001,2023_Jan_19_1552,searchDisc5,2021.2.3,60.004936606701264,
Practice arrays/exp1a_trial_30_colour0_distractors0_r.png,r,3,,,,0,3,3,14,,,,,,,,,,,,,,,,,,,,,,,,,,,,,,,,,,,,,,,,,,,,,,,248.09473873098614,None,2,0.963876452005934,248.09473873098614,None,249.1100853109965,None,3,1,1.05610093701398,249.1100853109965,None,250.15997282898752,None,,,,,,,,,,,,,,,,,,,,,,,,,,12,001,2023_Jan_19_1552,searchDisc5,2021.2.3,60.004936606701264,
Practice arrays/exp1a_trial_27_colour3_distractors9_l.png,l,1,,,,0,4,4,12,,,,,,,,,,,,,,,,,,,,,,,,,,,,,,,,,,,,,,,,,,,,,,,252.16170084499754,None,2,0.7970621559943538,252.16170084499754,None,253.0122049819911,None,1,1,1.3511983969947323,253.0122049819911,None,254.36007069097832,None,,,,,,,,,,,,,,,,,,,,,,,,,,12,001,2023_Jan_19_1552,searchDisc5,2021.2.3,60.004936606701264,
Practice arrays/exp1a_trial_31_colour0_distractors0_l.png,l,1,,,,0,5,5,15,,,,,,,,,,,,,,,,,,,,,,,,,,,,,,,,,,,,,,,,,,,,,,,256.36190885398537,None,2,0.6635527909966186,256.36190885398537,None,257.0790186350059,None,1,1,1.223272362985881,257.0790186350059,None,258.2934498419927,None,,,,,,,,,,,,,,,,,,,,,,,,,,12,001,2023_Jan_19_1552,searchDisc5,2021.2.3,60.004936606701264,
Practice arrays/exp1a_trial_21_colour2_distractors4_l.png,l,1,,,,0,6,6,9,,,,,,,,,,,,,,,,,,,,,,,,,,,,,,,,,,,,,,,,,,,,,,,260.29514029898564,None,2,1.149115663021803,260.29514029898564,None,261.4937966449943,None,1,1,1.2548866650031414,261.4937966449943,None,262.7436150099966,None,,,,,,,,,,,,,,,,,,,,,,,,,,12,001,2023_Jan_19_1552,searchDisc5,2021.2.3,60.004936606701264,
Practice arrays/exp1a_trial_17_colour1_distractors9_l.png,l,1,,,,0,7,7,7,,,,,,,,,,,,,,,,,,,,,,,,,,,,,,,,,,,,,,,,,,,,,,,264.7456871769973,None,2,0.9493226910126396,264.7456871769973,None,265.74523832299747,None,1,1,1.134372603992233,265.74523832299747,None,266.8771012740035,None,,,,,,,,,,,,,,,,,,,,,,,,,,12,001,2023_Jan_19_1552,searchDisc5,2021.2.3,60.004936606701264,
Practice arrays/exp1a_trial_14_colour3_distractors31_r.png,r,3,,,,0,8,8,6,,,,,,,,,,,,,,,,,,,,,,,,,,,,,,,,,,,,,,,,,,,,,,,268.87839548598276,None,2,0.6471619569929317,268.87839548598276,None,269.57736067599035,None,3,1,1.117929236002965,269.57736067599035,None,270.6937503849913,None,,,,,,,,,,,,,,,,,,,,,,,,,,12,001,2023_Jan_19_1552,searchDisc5,2021.2.3,60.004936606701264,
Practice arrays/exp1a_trial_16_colour1_distractors4_l.png,l,1,,,,0,9,9,13,,,,,,,,,,,,,,,,,,,,,,,,,,,,,,,,,,,,,,,,,,,,,,,272.69567888000165,None,2,0.6971418549946975,272.69567888000165,None,273.44623679399956,None,1,1,1.4882015059993137,273.44623679399956,None,274.9272698519926,None,,,,,,,,,,,,,,,,,,,,,,,,,,12,001,2023_Jan_19_1552,searchDisc5,2021.2.3,60.004936606701264,
Practice arrays/exp1a_trial_18_colour1_distractors19_l.png,l,1,,,,0,10,10,8,,,,,,,,,,,,,,,,,,,,,,,,,,,,,,,,,,,,,,,,,,,,,,,276.9295256100013,None,2,0.6805399720033165,276.9295256100013,None,277.66309461998753,None,1,1,1.2319790509936865,277.66309461998753,None,278.8940325290023,None,,,,,,,,,,,,,,,,,,,,,,,,,,12,001,2023_Jan_19_1552,searchDisc5,2021.2.3,60.004936606701264,
Practice arrays/exp1a_trial_10_colour3_distractors1_r.png,r,3,,,,0,11,11,4,,,,,,,,,,,,,,,,,,,,,,,,,,,,,,,,,,,,,,,,,,,,,,,280.8961872780055,None,2,1.3468819100235123,280.8961872780055,None,282.2943087349995,None,3,1,1.4235525770054664,282.2943087349995,None,283.7109089870064,None,,,,,,,,,,,,,,,,,,,,,,,,,,12,001,2023_Jan_19_1552,searchDisc5,2021.2.3,60.004936606701264,
Practice arrays/exp1a_trial_7_colour2_distractors9_r.png,r,3,,,,0,12,12,2,,,,,,,,,,,,,,,,,,,,,,,,,,,,,,,,,,,,,,,,,,,,,,,285.71299729598104,None,2,0.5805176330031827,285.71299729598104,None,286.3444582319935,None,3,1,1.0535471859911922,286.3444582319935,None,287.3943359630066,None,,,,,,,,,,,,,,,,,,,,,,,,,,12,001,2023_Jan_19_1552,searchDisc5,2021.2.3,60.004936606701264,
Practice arrays/exp1a_trial_0_colour1_distractors1_r.png,r,3,,,,0,13,13,0,,,,,,,,,,,,,,,,,,,,,,,,,,,,,,,,,,,,,,,,,,,,,,,289.3959108499985,None,2,0.5801489139848854,289.3959108499985,None,290.0270968749828,None,3,1,0.9838567489932757,290.0270968749828,None,291.0109072229825,None,,,,,,,,,,,,,,,,,,,,,,,,,,12,001,2023_Jan_19_1552,searchDisc5,2021.2.3,60.004936606701264,
Practice arrays/exp1a_trial_8_colour2_distractors19_r.png,r,3,,,,0,14,14,3,,,,,,,,,,,,,,,,,,,,,,,,,,,,,,,,,,,,,,,,,,,,,,,293.01259266000125,None,2,0.5971335580106825,293.01259266000125,None,293.66136337598437,None,3,1,1.401684873009799,293.66136337598437,None,295.06117363699013,None,,,,,,,,,,,,,,,,,,,,,,,,,,12,001,2023_Jan_19_1552,searchDisc5,2021.2.3,60.004936606701264,
Practice arrays/exp1a_trial_12_colour3_distractors9_r.png,r,3,,,,0,15,15,5,,,,,,,,,,,,,,,,,,,,,,,,,,,,,,,,,,,,,,,,,,,,,,,297.06322112699854,None,2,0.6645764349959791,297.06322112699854,None,297.7799373839807,None,3,1,0.8177610810089391,297.7799373839807,None,298.5946827789885,None,,,,,,,,,,,,,,,,,,,,,,,,,,12,001,2023_Jan_19_1552,searchDisc5,2021.2.3,60.004936606701264,
,,,,,,,,,,,,,,,,,,,,,,,,,,,,,,,,,,,,,,,,,,,,,,,,,,,,,,,,,,,,,,,,,,,,,,,300.6799023129861,None,2,6.765143252996495,301.6630373359949,None,,,,,,,,,,,,,,,,,,,,12,001,2023_Jan_19_1552,searchDisc5,2021.2.3,60.004936606701264,
images/exp1b_trial_6_colour2_distractors4_r.png,r,3,2,4,1,,,,,0,0,0,0,,,,,,,,,,,,,,,,,,,,,,,,,,,,,,,,,,,,,,,,,,,316.77793445199495,None,2,0.6933565970102791,316.77793445199495,None,,,,,,,,,,,,,,,,309.0132824589964,None,2,5.783574037021026,310.99682128897985,None,317.52801058700425,None,3,1,0.999140408996027,317.52801058700425,None,318.54497182698105,None,None,None,None,,12,001,2023_Jan_19_1552,searchDisc5,2021.2.3,60.004936606701264,
images/exp1b_trial_10_colour3_distractors1_r.png,r,3,3,1,1,,,,,0,1,1,1,,,,,,,,,,,,,,,,,,,,,,,,,,,,,,,,,,,,,,,,,,,318.56159783300245,None,2,0.8876388030184899,318.56159783300245,None,,,,,,,,,,,,,,,,None,None,None,,None,None,319.4965788749978,None,3,1,0.7723006779851858,319.4965788749978,None,320.26177883047785,None,None,None,None,,12,001,2023_Jan_19_1552,searchDisc5,2021.2.3,60.004936606701264,
images/exp1b_trial_296_colour2_distractors19_r.png,r,3,2,19,1,,,,,0,2,2,2,,,,,,,,,,,,,,,,,,,,,,,,,,,,,,,,,,,,,,,,,,,320.2802504839783,None,2,0.7005856680043507,320.2802504839783,None,,,,,,,,,,,,,,,,None,None,None,,None,None,321.0308860960067,None,3,1,1.1705221970041748,321.0308860960067,None,322.19504471750406,None,None,None,None,,12,001,2023_Jan_19_1552,searchDisc5,2021.2.3,60.004936606701264,
images/exp1b_trial_79_colour1_distractors1_l.png,l,1,1,1,1,,,,,0,3,3,3,,,,,,,,,,,,,,,,,,,,,,,,,,,,,,,,,,,,,,,,,,,322.21112687600544,None,2,0.8061166150146164,322.21112687600544,None,,,,,,,,,,,,,,,,None,None,None,,None,None,323.06141031798325,None,1,1,0.9341528730001301,323.06141031798325,None,323.9952236885001,None,None,None,None,,12,001,2023_Jan_19_1552,searchDisc5,2021.2.3,60.004936606701264,
images/exp1b_trial_61_colour3_distractors31_l.png,l,1,3,31,1,,,,,0,4,4,4,,,,,,,,,,,,,,,,,,,,,,,,,,,,,,,,,,,,,,,,,,,324.0116216109891,None,2,0.7359603079967201,324.0116216109891,None,,,,,,,,,,,,,,,,None,None,None,,None,None,324.797166948003,None,1,1,1.2205880050023552,324.797166948003,None,326.01205825548095,None,None,None,None,,12,001,2023_Jan_19_1552,searchDisc5,2021.2.3,60.004936606701264,
images/exp1b_trial_133_colour2_distractors1_r.png,r,3,2,1,1,,,,,0,5,5,5,,,,,,,,,,,,,,,,,,,,,,,,,,,,,,,,,,,,,,,,,,,326.0283567699953,None,2,0.7367849760048557,326.0283567699953,None,,,,,,,,,,,,,,,,None,None,None,,None,None,326.8123046569817,None,3,1,0.7725455879990477,326.8123046569817,None,327.57867357147916,None,None,None,None,,12,001,2023_Jan_19_1552,searchDisc5,2021.2.3,60.004936606701264,
images/exp1b_trial_137_colour2_distractors31_r.png,r,3,2,31,1,,,,,0,6,6,6,,,,,,,,,,,,,,,,,,,,,,,,,,,,,,,,,,,,,,,,,,,327.59535696799867,None,2,0.5912840639939532,327.59535696799867,None,,,,,,,,,,,,,,,,None,None,None,,None,None,328.2290794989967,None,3,1,1.1335259230108932,328.2290794989967,None,329.36210527548974,None,None,None,None,,12,001,2023_Jan_19_1552,searchDisc5,2021.2.3,60.004936606701264,
images/exp1b_trial_289_colour1_distractors4_r.png,r,3,1,4,1,,,,,0,7,7,7,,,,,,,,,,,,,,,,,,,,,,,,,,,,,,,,,,,,,,,,,,,329.3781806239858,None,2,0.6712633029965218,329.3781806239858,None,,,,,,,,,,,,,,,,None,None,None,,None,None,330.0949974859832,None,3,1,0.939132856001379,330.0949974859832,None,331.02887343648763,None,None,None,None,,12,001,2023_Jan_19_1552,searchDisc5,2021.2.3,60.004936606701264,
images/exp1b_trial_170_colour3_distractors1_r.png,r,3,3,1,1,,,,,0,8,8,8,,,,,,,,,,,,,,,,,,,,,,,,,,,,,,,,,,,,,,,,,,,331.04747181700077,None,2,0.9876266479841433,331.04747181700077,None,,,,,,,,,,,,,,,,None,None,None,,None,None,332.07887253398076,None,3,1,0.8727536679944023,332.07887253398076,None,332.9454633504938,None,None,None,None,,12,001,2023_Jan_19_1552,searchDisc5,2021.2.3,60.004936606701264,
images/exp1b_trial_248_colour2_distractors31_l.png,l,1,2,31,1,,,,,0,9,9,9,,,,,,,,,,,,,,,,,,,,,,,,,,,,,,,,,,,,,,,,,,,332.96217844999046,None,2,0.5733052130090073,332.96217844999046,None,,,,,,,,,,,,,,,,None,None,None,,None,None,333.5810648519837,None,1,1,1.1856098839780316,333.5810648519837,None,334.76223099448544,None,None,None,None,,12,001,2023_Jan_19_1552,searchDisc5,2021.2.3,60.004936606701264,
images/exp1b_trial_227_colour1_distractors19_r.png,r,3,1,19,1,,,,,0,10,10,10,,,,,,,,,,,,,,,,,,,,,,,,,,,,,,,,,,,,,,,,,,,334.7807567929849,None,2,0.5398477810085751,334.7807567929849,None,,,,,,,,,,,,,,,,None,None,None,,None,None,335.3644519249792,None,3,1,1.250596099998802,335.3644519249792,None,336.6121407204919,None,None,None,None,,12,001,2023_Jan_19_1552,searchDisc5,2021.2.3,60.004936606701264,
images/exp1b_trial_53_colour2_distractors4_l.png,l,1,2,4,1,,,,,0,11,11,11,,,,,,,,,,,,,,,,,,,,,,,,,,,,,,,,,,,,,,,,,,,336.62892424699385,None,2,0.4556574729795102,336.62892424699385,None,,,,,,,,,,,,,,,,None,None,None,,None,None,337.12866863800446,None,1,1,0.8380293269874528,337.12866863800446,None,337.96220542250376,None,None,None,None,,12,001,2023_Jan_19_1552,searchDisc5,2021.2.3,60.004936606701264,
images/exp1b_trial_266_colour3_distractors1_r.png,r,3,3,1,1,,,,,0,12,12,12,,,,,,,,,,,,,,,,,,,,,,,,,,,,,,,,,,,,,,,,,,,337.97839961899444,None,2,0.5055223859963007,337.97839961899444,None,,,,,,,,,,,,,,,,None,None,None,,None,None,338.5311593399965,None,3,1,0.7401063200086355,338.5311593399965,None,339.2619156334986,None,None,None,None,,12,001,2023_Jan_19_1552,searchDisc5,2021.2.3,60.004936606701264,
images/exp1b_trial_71_colour2_distractors9_r.png,r,3,2,9,1,,,,,0,13,13,13,,,,,,,,,,,,,,,,,,,,,,,,,,,,,,,,,,,,,,,,,,,339.2790617069986,None,2,0.48642215598374605,339.2790617069986,None,,,,,,,,,,,,,,,,None,None,None,,None,None,339.81199392600683,None,3,1,0.7716294989804737,339.81199392600683,None,340.57899175149214,None,None,None,None,,12,001,2023_Jan_19_1552,searchDisc5,2021.2.3,60.004936606701264,
images/exp1b_trial_274_colour1_distractors19_l.png,l,1,1,19,1,,,,,0,14,14,14,,,,,,,,,,,,,,,,,,,,,,,,,,,,,,,,,,,,,,,,,,,340.597282155999,None,2,0.4546257780166343,340.597282155999,None,,,,,,,,,,,,,,,,None,None,None,,None,None,341.09545393899316,None,1,1,1.1196311340027023,341.09545393899316,None,342.2124936804903,None,None,None,None,,12,001,2023_Jan_19_1552,searchDisc5,2021.2.3,60.004936606701264,
images/exp1b_trial_96_colour1_distractors1_r.png,r,3,1,1,1,,,,,0,15,15,15,,,,,,,,,,,,,,,,,,,,,,,,,,,,,,,,,,,,,,,,,,,342.22915448699496,None,2,0.5041598319949117,342.22915448699496,None,,,,,,,,,,,,,,,,None,None,None,,None,None,342.7790718920005,None,3,1,0.704399865004234,342.7790718920005,None,343.4790875324834,None,None,None,None,,12,001,2023_Jan_19_1552,searchDisc5,2021.2.3,60.004936606701264,
images/exp1b_trial_224_colour1_distractors1_r.png,r,3,1,1,1,,,,,0,16,16,16,,,,,,,,,,,,,,,,,,,,,,,,,,,,,,,,,,,,,,,,,,,343.4956550219795,None,2,0.4567436130018905,343.4956550219795,None,,,,,,,,,,,,,,,,None,None,None,,None,None,343.99803645399516,None,3,1,1.0035009770072065,343.99803645399516,None,344.9956333794835,None,None,None,None,,12,001,2023_Jan_19_1552,searchDisc5,2021.2.3,60.004936606701264,
images/exp1b_trial_222_colour0_distractors0_r.png,r,3,0,0,1,,,,,0,17,17,17,,,,,,,,,,,,,,,,,,,,,,,,,,,,,,,,,,,,,,,,,,,345.0117021139886,None,2,0.4407787710078992,345.0117021139886,None,,,,,,,,,,,,,,,,None,None,None,,None,None,345.49577865199535,None,3,1,0.720026783994399,345.49577865199535,None,346.2124623675045,None,None,None,None,,12,001,2023_Jan_19_1552,searchDisc5,2021.2.3,60.004936606701264,
images/exp1b_trial_44_colour3_distractors9_r.png,r,3,3,9,1,,,,,0,18,18,18,,,,,,,,,,,,,,,,,,,,,,,,,,,,,,,,,,,,,,,,,,,346.2314136950008,None,2,0.48800839198520407,346.2314136950008,None,,,,,,,,,,,,,,,,None,None,None,,None,None,346.76454557297984,None,3,1,0.7730875389825087,346.76454557297984,None,347.52919567948265,None,None,None,None,,12,001,2023_Jan_19_1552,searchDisc5,2021.2.3,60.004936606701264,
images/exp1b_trial_212_colour2_distractors1_l.png,l,1,2,1,1,,,,,0,19,19,19,,,,,,,,,,,,,,,,,,,,,,,,,,,,,,,,,,,,,,,,,,,347.5476810289838,None,2,0.43542761998833157,347.5476810289838,None,,,,,,,,,,,,,,,,None,None,None,,None,None,348.029438070982,None,1,1,0.7248244250076823,348.029438070982,None,348.7460311214818,None,None,None,None,,12,001,2023_Jan_19_1552,searchDisc5,2021.2.3,60.004936606701264,
images/exp1b_trial_117_colour2_distractors4_l.png,l,1,2,4,1,,,,,0,20,20,20,,,,,,,,,,,,,,,,,,,,,,,,,,,,,,,,,,,,,,,,,,,348.7619482399896,None,2,0.5029716019926127,348.7619482399896,None,,,,,,,,,,,,,,,,None,None,None,,None,None,349.31268125597853,None,1,1,0.7719434660102706,349.31268125597853,None,350.07917969349364,None,None,None,None,,12,001,2023_Jan_19_1552,searchDisc5,2021.2.3,60.004936606701264,
images/exp1b_trial_273_colour1_distractors9_l.png,l,1,1,9,1,,,,,0,21,21,21,,,,,,,,,,,,,,,,,,,,,,,,,,,,,,,,,,,,,,,,,,,350.09537591799744,None,2,0.43729701201664284,350.09537591799744,None,,,,,,,,,,,,,,,,None,None,None,,None,None,350.58145517800585,None,1,1,1.205186473991489,350.58145517800585,None,351.779319280482,None,None,None,None,,12,001,2023_Jan_19_1552,searchDisc5,2021.2.3,60.004936606701264,
images/exp1b_trial_92_colour3_distractors19_l.png,l,1,3,19,1,,,,,0,22,22,22,,,,,,,,,,,,,,,,,,,,,,,,,,,,,,,,,,,,,,,,,,,351.7958957949886,None,2,0.4566760229936335,351.7958957949886,None,,,,,,,,,,,,,,,,None,None,None,,None,None,352.2981202619849,None,1,1,1.2841254819941241,352.2981202619849,None,353.5794356425031,None,None,None,None,,12,001,2023_Jan_19_1552,searchDisc5,2021.2.3,60.004936606701264,
images/exp1b_trial_83_colour1_distractors31_l.png,l,1,1,31,1,,,,,0,23,23,23,,,,,,,,,,,,,,,,,,,,,,,,,,,,,,,,,,,,,,,,,,,353.5958974179812,None,2,0.4895266449893825,353.5958974179812,None,,,,,,,,,,,,,,,,None,None,None,,None,None,354.129026487004,None,1,1,1.213494306022767,354.129026487004,None,355.34589836948726,None,None,None,None,,12,001,2023_Jan_19_1552,searchDisc5,2021.2.3,60.004936606701264,
images/exp1b_trial_151_colour2_distractors19_l.png,l,1,2,19,1,,,,,0,24,24,24,,,,,,,,,,,,,,,,,,,,,,,,,,,,,,,,,,,,,,,,,,,355.36210152797867,None,2,0.404144616011763,355.36210152797867,None,,,,,,,,,,,,,,,,None,None,None,,None,None,355.81434753499343,None,1,1,1.0866198480071034,355.81434753499343,None,356.8961838105024,None,None,None,None,,12,001,2023_Jan_19_1552,searchDisc5,2021.2.3,60.004936606701264,
images/exp1b_trial_260_colour1_distractors31_r.png,r,3,1,31,1,,,,,0,25,25,25,,,,,,,,,,,,,,,,,,,,,,,,,,,,,,,,,,,,,,,,,,,356.91297774598934,None,2,0.5732032190135214,356.91297774598934,None,,,,,,,,,,,,,,,,None,None,None,,None,None,357.531721131003,None,3,1,1.216561378998449,357.531721131003,None,358.7464503444935,None,None,None,None,,12,001,2023_Jan_19_1552,searchDisc5,2021.2.3,60.004936606701264,
images/exp1b_trial_308_colour2_distractors1_l.png,l,1,2,1,1,,,,,0,26,26,26,,,,,,,,,,,,,,,,,,,,,,,,,,,,,,,,,,,,,,,,,,,358.7627025579859,None,2,0.4396866739843972,358.7627025579859,None,,,,,,,,,,,,,,,,None,None,None,,None,None,359.24868868498015,None,1,1,0.9534771979961079,359.24868868498015,None,360.19562827250047,None,None,None,None,,12,001,2023_Jan_19_1552,searchDisc5,2021.2.3,60.004936606701264,
images/exp1b_trial_246_colour2_distractors9_l.png,l,1,2,9,1,,,,,0,27,27,27,,,,,,,,,,,,,,,,,,,,,,,,,,,,,,,,,,,,,,,,,,,360.2128199870058,None,2,0.49045697701512836,360.2128199870058,None,,,,,,,,,,,,,,,,None,None,None,,None,None,360.7464647459856,None,1,1,1.002622327010613,360.7464647459856,None,361.74627109048015,None,None,None,None,,12,001,2023_Jan_19_1552,searchDisc5,2021.2.3,60.004936606701264,
images/exp1b_trial_32_colour1_distractors1_r.png,r,3,1,1,1,,,,,0,28,28,28,,,,,,,,,,,,,,,,,,,,,,,,,,,,,,,,,,,,,,,,,,,361.76302694599144,None,2,0.4732134229852818,361.76302694599144,None,,,,,,,,,,,,,,,,None,None,None,,None,None,362.2794778759999,None,3,1,0.9697939199977554,362.2794778759999,None,363.24593946347886,None,None,None,None,,12,001,2023_Jan_19_1552,searchDisc5,2021.2.3,60.004936606701264,
images/exp1b_trial_285_colour3_distractors31_l.png,l,1,3,31,1,,,,,0,29,29,29,,,,,,,,,,,,,,,,,,,,,,,,,,,,,,,,,,,,,,,,,,,363.2628077690024,None,2,0.47364105901215225,363.2628077690024,None,,,,,,,,,,,,,,,,None,None,None,,None,None,363.7798761379963,None,1,1,1.1354678529896773,363.7798761379963,None,364.9130947675003,None,None,None,None,,12,001,2023_Jan_19_1552,searchDisc5,2021.2.3,60.004936606701264,
images/exp1b_trial_204_colour3_distractors9_r.png,r,3,3,9,1,,,,,0,30,30,30,,,,,,,,,,,,,,,,,,,,,,,,,,,,,,,,,,,,,,,,,,,364.92963657400105,None,2,0.4878217299992684,364.92963657400105,None,,,,,,,,,,,,,,,,None,None,None,,None,None,365.4631707039953,None,3,1,0.9696905919990968,365.4631707039953,None,366.4299677694944,None,None,None,None,,12,001,2023_Jan_19_1552,searchDisc5,2021.2.3,60.004936606701264,
images/exp1b_trial_199_colour2_distractors9_r.png,r,3,2,9,1,,,,,0,31,31,31,,,,,,,,,,,,,,,,,,,,,,,,,,,,,,,,,,,,,,,,,,,366.44636177498614,None,2,0.45411769099882804,366.44636177498614,None,,,,,,,,,,,,,,,,None,None,None,,None,None,366.94635188099346,None,3,1,0.8872739489888772,366.94635188099346,None,367.8292439744837,None,None,None,None,,12,001,2023_Jan_19_1552,searchDisc5,2021.2.3,60.004936606701264,
images/exp1b_trial_118_colour2_distractors9_l.png,l,1,2,9,1,,,,,0,32,32,32,,,,,,,,,,,,,,,,,,,,,,,,,,,,,,,,,,,,,,,,,,,367.84630409799865,None,2,0.5224914089776576,367.84630409799865,None,,,,,,,,,,,,,,,,None,None,None,,None,None,368.413096690987,None,1,1,0.9871252200100571,368.413096690987,None,369.3958631624846,None,None,None,None,,12,001,2023_Jan_19_1552,searchDisc5,2021.2.3,60.004936606701264,
images/exp1b_trial_66_colour1_distractors9_r.png,r,3,1,9,1,,,,,0,33,33,33,,,,,,,,,,,,,,,,,,,,,,,,,,,,,,,,,,,,,,,,,,,369.41304861498065,None,2,0.5043692539911717,369.41304861498065,None,,,,,,,,,,,,,,,,None,None,None,,None,None,369.96345885598566,None,3,1,0.7884553949988913,369.96345885598566,None,370.7465070134931,None,None,None,None,,12,001,2023_Jan_19_1552,searchDisc5,2021.2.3,60.004936606701264,
images/exp1b_trial_141_colour3_distractors19_r.png,r,3,3,19,1,,,,,0,34,34,34,,,,,,,,,,,,,,,,,,,,,,,,,,,,,,,,,,,,,,,,,,,370.7626103670045,None,2,0.4566859829938039,370.7626103670045,None,,,,,,,,,,,,,,,,None,None,None,,None,None,371.265107736981,None,3,1,1.0179001649958082,371.265107736981,None,372.27996977350267,None,None,None,None,,12,001,2023_Jan_19_1552,searchDisc5,2021.2.3,60.004936606701264,
images/exp1b_trial_309_colour2_distractors4_l.png,l,1,2,4,1,,,,,0,35,35,35,,,,,,,,,,,,,,,,,,,,,,,,,,,,,,,,,,,,,,,,,,,372.29801182998926,None,2,0.4536372639995534,372.29801182998926,None,,,,,,,,,,,,,,,,None,None,None,,None,None,372.79709508499946,None,1,1,1.0060233259864617,372.79709508499946,None,373.79669757750526,None,None,None,None,,12,001,2023_Jan_19_1552,searchDisc5,2021.2.3,60.004936606701264,
images/exp1b_trial_263_colour2_distractors9_r.png,r,3,2,9,1,,,,,0,36,36,36,,,,,,,,,,,,,,,,,,,,,,,,,,,,,,,,,,,,,,,,,,,373.8150165209954,None,2,0.48788370701367967,373.8150165209954,None,,,,,,,,,,,,,,,,None,None,None,,None,None,374.34815362098743,None,3,1,0.9726014139887411,374.34815362098743,None,375.31331300949387,None,None,None,None,,12,001,2023_Jan_19_1552,searchDisc5,2021.2.3,60.004936606701264,
images/exp1b_trial_56_colour2_distractors31_l.png,l,1,2,31,1,,,,,0,37,37,37,,,,,,,,,,,,,,,,,,,,,,,,,,,,,,,,,,,,,,,,,,,375.32982631298364,None,2,0.44006216700654477,375.32982631298364,None,,,,,,,,,,,,,,,,None,None,None,,None,None,375.8153028319939,None,1,1,0.9703827460180037,375.8153028319939,None,376.7802584234887,None,None,None,None,,12,001,2023_Jan_19_1552,searchDisc5,2021.2.3,60.004936606701264,
images/exp1b_trial_123_colour3_distractors9_l.png,l,1,3,9,1,,,,,0,38,38,38,,,,,,,,,,,,,,,,,,,,,,,,,,,,,,,,,,,,,,,,,,,376.7966936309822,None,2,0.5520573109970428,376.7966936309822,None,,,,,,,,,,,,,,,,None,None,None,,None,None,377.3983053579868,None,1,1,1.221399182017194,377.3983053579868,None,378.61330736348464,None,None,None,None,,12,001,2023_Jan_19_1552,searchDisc5,2021.2.3,60.004936606701264,
images/exp1b_trial_143_colour1_distractors1_l.png,l,1,1,1,1,,,,,0,39,39,39,,,,,,,,,,,,,,,,,,,,,,,,,,,,,,,,,,,,,,,,,,,378.6299045929918,None,2,0.43958708297577687,378.6299045929918,None,,,,,,,,,,,,,,,,None,None,None,,None,None,379.1150376609876,None,1,1,1.0873745209828485,379.1150376609876,None,380.1967903494806,None,None,None,None,,12,001,2023_Jan_19_1552,searchDisc5,2021.2.3,60.004936606701264,
images/exp1b_trial_182_colour2_distractors9_l.png,l,1,2,9,1,,,,,0,40,40,40,,,,,,,,,,,,,,,,,,,,,,,,,,,,,,,,,,,,,,,,,,,380.21293123299256,None,2,0.4066939890035428,380.21293123299256,None,,,,,,,,,,,,,,,,None,None,None,,None,None,380.66520868698717,None,1,1,1.102472010999918,380.66520868698717,None,381.76331885649415,None,None,None,None,,12,001,2023_Jan_19_1552,searchDisc5,2021.2.3,60.004936606701264,
images/exp1b_trial_99_colour1_distractors19_r.png,r,3,1,19,1,,,,,0,41,41,41,,,,,,,,,,,,,,,,,,,,,,,,,,,,,,,,,,,,,,,,,,,381.7819868729857,None,2,0.5401920729782432,381.7819868729857,None,,,,,,,,,,,,,,,,None,None,None,,None,None,382.3656915309839,None,3,1,0.8007831849972717,382.3656915309839,None,383.1630255034979,None,None,None,None,,12,001,2023_Jan_19_1552,searchDisc5,2021.2.3,60.004936606701264,
images/exp1b_trial_277_colour2_distractors4_l.png,l,1,2,4,1,,,,,0,42,42,42,,,,,,,,,,,,,,,,,,,,,,,,,,,,,,,,,,,,,,,,,,,383.18007897699135,None,2,0.47570739101502113,383.18007897699135,None,,,,,,,,,,,,,,,,None,None,None,,None,None,383.6969799560029,None,1,1,1.018053152016364,383.6969799560029,None,384.71339069849637,None,None,None,None,,12,001,2023_Jan_19_1552,searchDisc5,2021.2.3,60.004936606701264,
images/exp1b_trial_64_colour1_distractors1_r.png,r,3,1,1,1,,,,,0,43,43,43,,,,,,,,,,,,,,,,,,,,,,,,,,,,,,,,,,,,,,,,,,,384.73018491998664,None,2,0.5044118619989604,384.73018491998664,None,,,,,,,,,,,,,,,,None,None,None,,None,None,385.28263907899964,None,3,1,1.0226354710175656,385.28263907899964,None,386.29693439348193,None,None,None,None,,12,001,2023_Jan_19_1552,searchDisc5,2021.2.3,60.004936606701264,
images/exp1b_trial_29_colour3_distractors31_l.png,l,1,3,31,1,,,,,0,44,44,44,,,,,,,,,,,,,,,,,,,,,,,,,,,,,,,,,,,,,,,,,,,386.3135707239853,None,2,0.4711704379878938,386.3135707239853,None,,,,,,,,,,,,,,,,None,None,None,,None,None,386.83041978799156,None,1,1,1.136442866991274,386.83041978799156,None,387.96350492748024,None,None,None,None,,12,001,2023_Jan_19_1552,searchDisc5,2021.2.3,60.004936606701264,
images/exp1b_trial_242_colour1_distractors19_l.png,l,1,1,19,1,,,,,0,45,45,45,,,,,,,,,,,,,,,,,,,,,,,,,,,,,,,,,,,,,,,,,,,387.9803348349815,None,2,0.5900780360097997,387.9803348349815,None,,,,,,,,,,,,,,,,None,None,None,,None,None,388.615947630984,None,1,1,1.1507220240018796,388.615947630984,None,389.7635978394974,None,None,None,None,,12,001,2023_Jan_19_1552,searchDisc5,2021.2.3,60.004936606701264,
images/exp1b_trial_126_colour0_distractors0_r.png,r,3,0,0,1,,,,,0,46,46,46,,,,,,,,,,,,,,,,,,,,,,,,,,,,,,,,,,,,,,,,,,,389.7803049659997,None,2,0.5214563519984949,389.7803049659997,None,,,,,,,,,,,,,,,,None,None,None,,None,None,390.3491419519996,None,3,1,0.7723988739890046,390.3491419519996,None,391.11371322548075,None,None,None,None,,12,001,2023_Jan_19_1552,searchDisc5,2021.2.3,60.004936606701264,
images/exp1b_trial_19_colour1_distractors31_l.png,l,1,1,31,1,,,,,0,47,47,47,,,,,,,,,,,,,,,,,,,,,,,,,,,,,,,,,,,,,,,,,,,391.12994216999505,None,2,0.4545229740033392,391.12994216999505,None,,,,,,,,,,,,,,,,None,None,None,,None,None,391.63064346899046,None,1,1,1.0016702779976185,391.63064346899046,None,392.6299446104822,None,None,None,None,,12,001,2023_Jan_19_1552,searchDisc5,2021.2.3,60.004936606701264,
images/exp1b_trial_272_colour1_distractors4_l.png,l,1,1,4,1,,,,,0,48,48,48,,,,,,,,,,,,,,,,,,,,,,,,,,,,,,,,,,,,,,,,,,,392.6470550609811,None,2,0.4718603590154089,392.6470550609811,None,,,,,,,,,,,,,,,,None,None,None,,None,None,393.16359597598785,None,1,1,0.8719206840032712,393.16359597598785,None,394.0303632205032,None,None,None,None,,12,001,2023_Jan_19_1552,searchDisc5,2021.2.3,60.004936606701264,
images/exp1b_trial_209_colour1_distractors9_l.png,l,1,1,9,1,,,,,0,49,49,49,,,,,,,,,,,,,,,,,,,,,,,,,,,,,,,,,,,,,,,,,,,394.04709555598674,None,2,0.44013358201482333,394.04709555598674,None,,,,,,,,,,,,,,,,None,None,None,,None,None,394.53252881998196,None,1,1,0.9023278130043764,394.53252881998196,None,395.4304161004984,None,None,None,None,,12,001,2023_Jan_19_1552,searchDisc5,2021.2.3,60.004936606701264,
images/exp1b_trial_215_colour2_distractors19_l.png,l,1,2,19,1,,,,,0,50,50,50,,,,,,,,,,,,,,,,,,,,,,,,,,,,,,,,,,,,,,,,,,,395.4465205720044,None,2,0.4068203080096282,395.4465205720044,None,,,,,,,,,,,,,,,,None,None,None,,None,None,395.8988908629981,None,1,1,1.0847076599893626,395.8988908629981,None,396.9802245184983,None,None,None,None,,12,001,2023_Jan_19_1552,searchDisc5,2021.2.3,60.004936606701264,
images/exp1b_trial_181_colour2_distractors4_l.png,l,1,2,4,1,,,,,0,51,51,51,,,,,,,,,,,,,,,,,,,,,,,,,,,,,,,,,,,,,,,,,,,396.9971021839883,None,2,0.5568522649991792,396.9971021839883,None,,,,,,,,,,,,,,,,None,None,None,,None,None,397.5995953310048,None,1,1,1.0368357200059108,397.5995953310048,None,398.63060034149385,None,None,None,None,,12,001,2023_Jan_19_1552,searchDisc5,2021.2.3,60.004936606701264,
images/exp1b_trial_161_colour1_distractors4_r.png,r,3,1,4,1,,,,,0,52,52,52,,,,,,,,,,,,,,,,,,,,,,,,,,,,,,,,,,,,,,,,,,,398.6469231089868,None,2,0.5548697560152505,398.6469231089868,None,,,,,,,,,,,,,,,,None,None,None,,None,None,399.24948725799914,None,3,1,1.3066131619852968,399.24948725799914,None,400.5473284165055,None,None,None,None,,12,001,2023_Jan_19_1552,searchDisc5,2021.2.3,60.004936606701264,
images/exp1b_trial_109_colour3_distractors19_r.png,r,3,3,19,1,,,,,0,53,53,53,,,,,,,,,,,,,,,,,,,,,,,,,,,,,,,,,,,,,,,,,,,400.56364242199925,None,2,0.5690456169832032,400.56364242199925,None,,,,,,,,,,,,,,,,None,None,None,,None,None,401.18291959998896,None,3,1,0.9367966569843702,401.18291959998896,None,402.1135982374981,None,None,None,None,,12,001,2023_Jan_19_1552,searchDisc5,2021.2.3,60.004936606701264,
images/exp1b_trial_255_colour0_distractors0_l.png,l,1,0,0,1,,,,,0,54,54,54,,,,,,,,,,,,,,,,,,,,,,,,,,,,,,,,,,,,,,,,,,,402.13241690499126,None,2,0.45425592598621733,402.13241690499126,None,,,,,,,,,,,,,,,,None,None,None,,None,None,402.63103697099723,None,1,1,0.7727996059984434,402.63103697099723,None,403.3974666104914,None,None,None,None,,12,001,2023_Jan_19_1552,searchDisc5,2021.2.3,60.004936606701264,
images/exp1b_trial_217_colour3_distractors1_l.png,l,1,3,1,1,,,,,0,55,55,55,,,,,,,,,,,,,,,,,,,,,,,,,,,,,,,,,,,,,,,,,,,403.41354806299205,None,2,0.38800207400345244,403.41354806299205,None,,,,,,,,,,,,,,,,None,None,None,,None,None,403.84781912199105,None,1,1,0.9060003969934769,403.84781912199105,None,404.7475794514903,None,None,None,None,,12,001,2023_Jan_19_1552,searchDisc5,2021.2.3,60.004936606701264,
images/exp1b_trial_119_colour2_distractors19_l.png,l,1,2,19,1,,,,,0,56,56,56,,,,,,,,,,,,,,,,,,,,,,,,,,,,,,,,,,,,,,,,,,,404.76397037299466,None,2,0.43984862801153213,404.76397037299466,None,,,,,,,,,,,,,,,,None,None,None,,None,None,405.2497091499972,None,1,1,0.7186947979789693,405.2497091499972,None,405.964181751493,None,None,None,None,,12,001,2023_Jan_19_1552,searchDisc5,2021.2.3,60.004936606701264,
images/exp1b_trial_78_colour3_distractors31_r.png,r,3,3,31,1,,,,,0,57,57,57,,,,,,,,,,,,,,,,,,,,,,,,,,,,,,,,,,,,,,,,,,,405.98042214498855,None,2,0.42289996100589633,405.98042214498855,None,,,,,,,,,,,,,,,,None,None,None,,None,None,406.44956676798756,None,3,1,1.1835279709775932,406.44956676798756,None,407.63082038950233,None,None,None,None,,12,001,2023_Jan_19_1552,searchDisc5,2021.2.3,60.004936606701264,
images/exp1b_trial_195_colour1_distractors19_r.png,r,3,1,19,1,,,,,0,58,58,58,,,,,,,,,,,,,,,,,,,,,,,,,,,,,,,,,,,,,,,,,,,407.64951161597855,None,2,0.42307708199950866,407.64951161597855,None,,,,,,,,,,,,,,,,None,None,None,,None,None,408.1137216349889,None,3,1,0.9331830489973072,408.1137216349889,None,409.0466625275003,None,None,None,None,,12,001,2023_Jan_19_1552,searchDisc5,2021.2.3,60.004936606701264,
images/exp1b_trial_176_colour1_distractors4_l.png,l,1,1,4,1,,,,,0,59,59,59,,,,,,,,,,,,,,,,,,,,,,,,,,,,,,,,,,,,,,,,,,,409.06414045600104,None,2,0.40755063100368716,409.06414045600104,None,,,,,,,,,,,,,,,,None,None,None,,None,None,409.51640493999,None,1,1,0.9532976190093905,409.51640493999,None,410.4642740095005,None,None,None,None,,12,001,2023_Jan_19_1552,searchDisc5,2021.2.3,60.004936606701264,
images/exp1b_trial_58_colour3_distractors4_l.png,l,1,3,4,1,,,,,0,60,60,60,,,,,,,,,,,,,,,,,,,,,,,,,,,,,,,,,,,,,,,,,,,410.4809206079808,None,2,0.4387887200282421,410.4809206079808,None,,,,,,,,,,,,,,,,None,None,None,,None,None,410.9665152329835,None,1,1,1.3041588269989006,410.9665152329835,None,412.2642903414817,None,None,None,None,,12,001,2023_Jan_19_1552,searchDisc5,2021.2.3,60.004936606701264,
images/exp1b_trial_311_colour2_distractors19_l.png,l,1,2,19,1,,,,,0,61,61,61,,,,,,,,,,,,,,,,,,,,,,,,,,,,,,,,,,,,,,,,,,,412.2808206729824,None,2,0.42128062099800445,412.2808206729824,None,,,,,,,,,,,,,,,,None,None,None,,None,None,412.749914555985,None,1,1,0.98699083601241,412.749914555985,None,413.7309587094787,None,None,None,None,,12,001,2023_Jan_19_1552,searchDisc5,2021.2.3,60.004936606701264,
images/exp1b_trial_297_colour2_distractors31_r.png,r,3,2,31,1,,,,,0,62,62,62,,,,,,,,,,,,,,,,,,,,,,,,,,,,,,,,,,,,,,,,,,,413.7476611309976,None,2,0.4229757359717041,413.7476611309976,None,,,,,,,,,,,,,,,,None,None,None,,None,None,414.216676120006,None,3,1,0.8510929229960311,414.216676120006,None,415.0643921284791,None,None,None,None,,12,001,2023_Jan_19_1552,searchDisc5,2021.2.3,60.004936606701264,
images/exp1b_trial_160_colour1_distractors1_r.png,r,3,1,1,1,,,,,0,63,63,63,,,,,,,,,,,,,,,,,,,,,,,,,,,,,,,,,,,,,,,,,,,415.08291958499467,None,2,0.43768043600721285,415.08291958499467,None,,,,,,,,,,,,,,,,None,None,None,,None,None,415.564672515,None,3,1,1.5730163489934057,415.564672515,None,417.131293003491,None,None,None,None,,12,001,2023_Jan_19_1552,searchDisc5,2021.2.3,60.004936606701264,
images/exp1b_trial_142_colour3_distractors31_r.png,r,3,3,31,1,,,,,0,64,64,64,,,,,,,,,,,,,,,,,,,,,,,,,,,,,,,,,,,,,,,,,,,417.14750782199553,None,2,0.4418245680280961,417.14750782199553,None,,,,,,,,,,,,,,,,None,None,None,,None,None,417.6336557469913,None,3,1,0.8654611430247314,417.6336557469913,None,418.49776283650135,None,None,None,None,,12,001,2023_Jan_19_1552,searchDisc5,2021.2.3,60.004936606701264,
images/exp1b_trial_220_colour3_distractors19_l.png,l,1,3,19,1,,,,,0,65,65,65,,,,,,,,,,,,,,,,,,,,,,,,,,,,,,,,,,,,,,,,,,,418.5144830879872,None,2,0.404567187972134,418.5144830879872,None,,,,,,,,,,,,,,,,None,None,None,,None,None,418.96679500100436,None,1,1,1.473011732014129,418.96679500100436,None,420.43222440649697,None,None,None,None,,12,001,2023_Jan_19_1552,searchDisc5,2021.2.3,60.004936606701264,
images/exp1b_trial_9_colour2_distractors31_r.png,r,3,2,31,1,,,,,0,66,66,66,,,,,,,,,,,,,,,,,,,,,,,,,,,,,,,,,,,,,,,,,,,420.44779527699575,None,2,0.4520407580130268,420.44779527699575,None,,,,,,,,,,,,,,,,None,None,None,,None,None,420.9498510499834,None,1,0,1.2023383810010273,420.9498510499834,None,422.14807019948785,None,None,None,None,,12,001,2023_Jan_19_1552,searchDisc5,2021.2.3,60.004936606701264,
images/exp1b_trial_299_colour3_distractors4_r.png,r,3,3,4,1,,,,,0,67,67,67,,,,,,,,,,,,,,,,,,,,,,,,,,,,,,,,,,,,,,,,,,,422.1652680870029,None,2,1.7390365750179626,422.1652680870029,None,,,,,,,,,,,,,,,,None,None,None,,None,None,423.9485317340004,None,3,1,1.1370317100081593,423.9485317340004,None,425.0814097874827,None,None,None,None,,12,001,2023_Jan_19_1552,searchDisc5,2021.2.3,60.004936606701264,
images/exp1b_trial_239_colour1_distractors1_l.png,l,1,1,1,1,,,,,0,68,68,68,,,,,,,,,,,,,,,,,,,,,,,,,,,,,,,,,,,,,,,,,,,425.0988756220031,None,2,0.47299087297869846,425.0988756220031,None,,,,,,,,,,,,,,,,None,None,None,,None,None,425.61606524698436,None,1,1,1.203553129977081,425.61606524698436,None,426.8143063774769,None,None,None,None,,12,001,2023_Jan_19_1552,searchDisc5,2021.2.3,60.004936606701264,
images/exp1b_trial_178_colour1_distractors19_l.png,l,1,1,19,1,,,,,0,69,69,69,,,,,,,,,,,,,,,,,,,,,,,,,,,,,,,,,,,,,,,,,,,426.8325032139837,None,2,0.4571352440107148,426.8325032139837,None,,,,,,,,,,,,,,,,None,None,None,,None,None,427.3336606359808,None,1,1,1.5508588750089984,427.3336606359808,None,428.8815464645013,None,None,None,None,,12,001,2023_Jan_19_1552,searchDisc5,2021.2.3,60.004936606701264,
images/exp1b_trial_293_colour2_distractors1_r.png,r,3,2,1,1,,,,,0,70,70,70,,,,,,,,,,,,,,,,,,,,,,,,,,,,,,,,,,,,,,,,,,,428.8986109289981,None,2,0.47218019599677064,428.8986109289981,None,,,,,,,,,,,,,,,,None,None,None,,None,None,429.4154769019806,None,3,1,1.0213911269966047,429.4154769019806,None,430.4315180404956,None,None,None,None,,12,001,2023_Jan_19_1552,searchDisc5,2021.2.3,60.004936606701264,
images/exp1b_trial_11_colour3_distractors4_r.png,r,3,3,4,1,,,,,0,71,71,71,,,,,,,,,,,,,,,,,,,,,,,,,,,,,,,,,,,,,,,,,,,430.44836676699924,None,2,0.40548290801234543,430.44836676699924,None,,,,,,,,,,,,,,,,None,None,None,,None,None,430.9013915429823,None,3,1,0.822066664986778,430.9013915429823,None,431.71506554949156,None,None,None,None,,12,001,2023_Jan_19_1552,searchDisc5,2021.2.3,60.004936606701264,
images/exp1b_trial_235_colour3_distractors4_r.png,r,3,3,4,1,,,,,0,72,72,72,,,,,,,,,,,,,,,,,,,,,,,,,,,,,,,,,,,,,,,,,,,431.73101676799706,None,2,0.4728464479849208,431.73101676799706,None,,,,,,,,,,,,,,,,None,None,None,,None,None,432.25055270598386,None,3,1,0.869738301000325,432.25055270598386,None,433.1149523554923,None,None,None,None,,12,001,2023_Jan_19_1552,searchDisc5,2021.2.3,60.004936606701264,
images/exp1b_trial_250_colour3_distractors4_l.png,l,1,3,4,1,,,,,0,73,73,73,,,,,,,,,,,,,,,,,,,,,,,,,,,,,,,,,,,,,,,,,,,433.13218769599916,None,2,0.40451742298319004,433.13218769599916,None,,,,,,,,,,,,,,,,None,None,None,,None,None,433.5828936029866,None,1,1,1.238588495994918,433.5828936029866,None,434.81502046949754,None,None,None,None,,12,001,2023_Jan_19_1552,searchDisc5,2021.2.3,60.004936606701264,
images/exp1b_trial_253_colour3_distractors31_l.png,l,1,3,31,1,,,,,0,74,74,74,,,,,,,,,,,,,,,,,,,,,,,,,,,,,,,,,,,,,,,,,,,434.8322195749788,None,2,0.5212819710141048,434.8322195749788,None,,,,,,,,,,,,,,,,None,None,None,,None,None,435.40126788799535,None,1,1,1.2041879699972924,435.40126788799535,None,436.598394573477,None,None,None,None,,12,001,2023_Jan_19_1552,searchDisc5,2021.2.3,60.004936606701264,
images/exp1b_trial_163_colour1_distractors19_r.png,r,3,1,19,1,,,,,0,75,75,75,,,,,,,,,,,,,,,,,,,,,,,,,,,,,,,,,,,,,,,,,,,436.61580907797907,None,2,0.46893866700702347,436.61580907797907,None,,,,,,,,,,,,,,,,None,None,None,,None,None,437.1328120800026,None,3,1,1.1209397779894061,437.1328120800026,None,438.2485077835008,None,None,None,None,,12,001,2023_Jan_19_1552,searchDisc5,2021.2.3,60.004936606701264,
images/exp1b_trial_2_colour1_distractors9_r.png,r,3,1,9,1,,,,,0,76,76,76,,,,,,,,,,,,,,,,,,,,,,,,,,,,,,,,,,,,,,,,,,,438.26738260200364,None,2,0.43864792902604677,438.26738260200364,None,,,,,,,,,,,,,,,,None,None,None,,None,None,438.75169391799136,None,3,1,0.9364185250014998,438.75169391799136,None,439.6815525175043,None,None,None,None,,12,001,2023_Jan_19_1552,searchDisc5,2021.2.3,60.004936606701264,
images/exp1b_trial_13_colour3_distractors19_r.png,r,3,3,19,1,,,,,0,77,77,77,,,,,,,,,,,,,,,,,,,,,,,,,,,,,,,,,,,,,,,,,,,439.69840531100635,None,2,0.38923502000398,439.69840531100635,None,,,,,,,,,,,,,,,,None,None,None,,None,None,440.1340856869938,None,3,1,0.9348302940197755,440.1340856869938,None,441.06521512150357,None,None,None,None,,12,001,2023_Jan_19_1552,searchDisc5,2021.2.3,60.004936606701264,
images/exp1b_trial_247_colour2_distractors19_l.png,l,1,2,19,1,,,,,0,78,78,78,,,,,,,,,,,,,,,,,,,,,,,,,,,,,,,,,,,,,,,,,,,441.081832795986,None,2,0.48720161902019754,441.081832795986,None,,,,,,,,,,,,,,,,None,None,None,,None,None,441.6148674269789,None,1,1,1.0382484020083211,441.6148674269789,None,442.6485381745006,None,None,None,None,,12,001,2023_Jan_19_1552,searchDisc5,2021.2.3,60.004936606701264,
images/exp1b_trial_16_colour1_distractors4_l.png,l,1,1,4,1,,,,,0,79,79,79,,,,,,,,,,,,,,,,,,,,,,,,,,,,,,,,,,,,,,,,,,,442.6643064270029,None,2,0.42339427399565466,442.6643064270029,None,,,,,,,,,,,,,,,,None,None,None,,None,None,443.13293823300046,None,1,1,1.1513037469994742,443.13293823300046,None,444.2820255304832,None,None,None,None,,12,001,2023_Jan_19_1552,searchDisc5,2021.2.3,60.004936606701264,
images/exp1b_trial_269_colour3_distractors19_r.png,r,3,3,19,1,,,,,0,80,80,80,,,,,,,,,,,,,,,,,,,,,,,,,,,,,,,,,,,,,,,,,,,444.2996829939948,None,2,0.5047460210043937,444.2996829939948,None,,,,,,,,,,,,,,,,None,None,None,,None,None,444.85014424298424,None,3,1,1.1025353430013638,444.85014424298424,None,445.94885132049967,None,None,None,None,,12,001,2023_Jan_19_1552,searchDisc5,2021.2.3,60.004936606701264,
images/exp1b_trial_301_colour3_distractors19_r.png,r,3,3,19,1,,,,,0,81,81,81,,,,,,,,,,,,,,,,,,,,,,,,,,,,,,,,,,,,,,,,,,,445.9672905089974,None,2,0.4880799880193081,445.9672905089974,None,,,,,,,,,,,,,,,,None,None,None,,None,None,446.5009682159871,None,3,1,1.2026121729868464,446.5009682159871,None,447.69877304347756,None,None,None,None,,12,001,2023_Jan_19_1552,searchDisc5,2021.2.3,60.004936606701264,
images/exp1b_trial_268_colour3_distractors9_r.png,r,3,3,9,1,,,,,0,82,82,82,,,,,,,,,,,,,,,,,,,,,,,,,,,,,,,,,,,,,,,,,,,447.7159643729974,None,2,0.3720816150016617,447.7159643729974,None,,,,,,,,,,,,,,,,None,None,None,,None,None,448.13434295900515,None,3,1,0.8193980430078227,448.13434295900515,None,448.9485425515013,None,None,None,None,,12,001,2023_Jan_19_1552,searchDisc5,2021.2.3,60.004936606701264,
images/exp1b_trial_74_colour3_distractors1_r.png,r,3,3,1,1,,,,,0,83,83,83,,,,,,,,,,,,,,,,,,,,,,,,,,,,,,,,,,,,,,,,,,,448.9656142320018,None,2,0.38988811898161657,448.9656142320018,None,,,,,,,,,,,,,,,,None,None,None,,None,None,449.4012678260042,None,3,1,1.104514342994662,449.4012678260042,None,450.4989257554844,None,None,None,None,,12,001,2023_Jan_19_1552,searchDisc5,2021.2.3,60.004936606701264,
images/exp1b_trial_43_colour3_distractors4_r.png,r,3,3,4,1,,,,,0,84,84,84,,,,,,,,,,,,,,,,,,,,,,,,,,,,,,,,,,,,,,,,,,,450.5163915529847,None,2,0.4062115409760736,450.5163915529847,None,,,,,,,,,,,,,,,,None,None,None,,None,None,450.9676652860071,None,3,1,0.8537260289886035,450.9676652860071,None,451.81652522650256,None,None,None,None,,12,001,2023_Jan_19_1552,searchDisc5,2021.2.3,60.004936606701264,
images/exp1b_trial_116_colour2_distractors1_l.png,l,1,2,1,1,,,,,0,85,85,85,,,,,,,,,,,,,,,,,,,,,,,,,,,,,,,,,,,,,,,,,,,451.8326090349874,None,2,0.4379808259836864,451.8326090349874,None,,,,,,,,,,,,,,,,None,None,None,,None,None,452.31818808199023,None,1,1,1.2715696840023156,452.31818808199023,None,453.5822600344982,None,None,None,None,,12,001,2023_Jan_19_1552,searchDisc5,2021.2.3,60.004936606701264,
images/exp1b_trial_270_colour3_distractors31_r.png,r,3,3,31,1,,,,,0,86,86,86,,,,,,,,,,,,,,,,,,,,,,,,,,,,,,,,,,,,,,,,,,,453.5994001159852,None,2,0.40752497501671314,453.5994001159852,None,,,,,,,,,,,,,,,,None,None,None,,None,None,454.05184725899016,459.0654823090008,3,1,6.968168727005832,454.05184725899016,None,461.0177435914957,None,None,None,None,,12,001,2023_Jan_19_1552,searchDisc5,2021.2.3,60.004936606701264,
images/exp1b_trial_0_colour1_distractors1_r.png,r,3,1,1,1,,,,,0,87,87,87,,,,,,,,,,,,,,,,,,,,,,,,,,,,,,,,,,,,,,,,,,,461.0344686390017,None,2,0.8521674189832993,461.0344686390017,None,,,,,,,,,,,,,,,,None,None,None,,None,None,461.93454972599284,None,3,1,0.8723667279991787,461.93454972599284,None,462.7991338144784,None,None,None,None,,12,001,2023_Jan_19_1552,searchDisc5,2021.2.3,60.004936606701264,
images/exp1b_trial_93_colour3_distractors31_l.png,l,1,3,31,1,,,,,0,88,88,88,,,,,,,,,,,,,,,,,,,,,,,,,,,,,,,,,,,,,,,,,,,462.8153773569793,None,2,0.3878918710106518,462.8153773569793,None,,,,,,,,,,,,,,,,None,None,None,,None,None,463.2490421469847,None,1,1,2.002262551977765,463.2490421469847,None,465.249041599498,None,None,None,None,,12,001,2023_Jan_19_1552,searchDisc5,2021.2.3,60.004936606701264,
images/exp1b_trial_91_colour3_distractors9_l.png,l,1,3,9,1,,,,,0,89,89,89,,,,,,,,,,,,,,,,,,,,,,,,,,,,,,,,,,,,,,,,,,,465.2677914800006,None,2,0.6044526549812872,465.2677914800006,None,,,,,,,,,,,,,,,,None,None,None,,None,None,465.9160567949875,None,1,1,2.3551614370080642,465.9160567949875,None,468.26593520450115,None,None,None,None,,12,001,2023_Jan_19_1552,searchDisc5,2021.2.3,60.004936606701264,
images/exp1b_trial_17_colour1_distractors9_l.png,l,1,1,9,1,,,,,0,90,90,90,,,,,,,,,,,,,,,,,,,,,,,,,,,,,,,,,,,,,,,,,,,468.28247725000256,None,2,0.4042217569949571,468.28247725000256,None,,,,,,,,,,,,,,,,None,None,None,,None,None,468.73257186700357,None,1,1,0.8551574730081484,468.73257186700357,None,469.5826210454834,None,None,None,None,,12,001,2023_Jan_19_1552,searchDisc5,2021.2.3,60.004936606701264,
images/exp1b_trial_223_colour0_distractors0_l.png,l,1,0,0,1,,,,,0,91,91,91,,,,,,,,,,,,,,,,,,,,,,,,,,,,,,,,,,,,,,,,,,,469.59854277499835,None,2,0.4060345859907102,469.59854277499835,None,,,,,,,,,,,,,,,,None,None,None,,None,None,470.05076844099676,None,1,1,0.6860061759944074,470.05076844099676,None,470.73206227748597,None,None,None,None,,12,001,2023_Jan_19_1552,searchDisc5,2021.2.3,60.004936606701264,
images/exp1b_trial_188_colour3_distractors19_l.png,l,1,3,19,1,,,,,0,92,92,92,,,,,,,,,,,,,,,,,,,,,,,,,,,,,,,,,,,,,,,,,,,470.751253489987,None,2,0.38954359901254065,470.751253489987,None,,,,,,,,,,,,,,,,None,None,None,,None,None,471.18478731098,None,1,1,1.1344589419895783,471.18478731098,None,472.316100080483,None,None,None,None,,12,001,2023_Jan_19_1552,searchDisc5,2021.2.3,60.004936606701264,
images/exp1b_trial_139_colour3_distractors4_r.png,r,3,3,4,1,,,,,0,93,93,93,,,,,,,,,,,,,,,,,,,,,,,,,,,,,,,,,,,,,,,,,,,472.3323985799798,None,2,0.3877241300069727,472.3323985799798,None,,,,,,,,,,,,,,,,None,None,None,,None,None,472.7681108590041,None,3,1,1.005533558985917,472.7681108590041,None,473.76592594549584,None,None,None,None,,12,001,2023_Jan_19_1552,searchDisc5,2021.2.3,60.004936606701264,
images/exp1b_trial_172_colour3_distractors9_r.png,r,3,3,9,1,,,,,0,94,94,94,,,,,,,,,,,,,,,,,,,,,,,,,,,,,,,,,,,,,,,,,,,473.78238444498857,None,2,0.38772368102218024,473.78238444498857,None,,,,,,,,,,,,,,,,None,None,None,,None,None,474.2179271589848,None,3,1,0.9044971900002565,474.2179271589848,None,475.1159725125035,None,None,None,None,,12,001,2023_Jan_19_1552,searchDisc5,2021.2.3,60.004936606701264,
images/exp1b_trial_240_colour1_distractors4_l.png,l,1,1,4,1,,,,,0,95,95,95,,,,,,,,,,,,,,,,,,,,,,,,,,,,,,,,,,,,,,,,,,,475.13222744499217,None,2,0.5213314889988396,475.13222744499217,None,,,,,,,,,,,,,,,,None,None,None,,None,None,475.7010865669872,None,1,1,1.0882150639954489,475.7010865669872,None,476.782873607488,None,None,None,None,,12,001,2023_Jan_19_1552,searchDisc5,2021.2.3,60.004936606701264,
images/exp1b_trial_165_colour2_distractors1_r.png,r,3,2,1,1,,,,,0,96,96,96,,,,,,,,,,,,,,,,,,,,,,,,,,,,,,,,,,,,,,,,,,,476.7993512249959,None,2,0.40654408300179057,476.7993512249959,None,,,,,,,,,,,,,,,,None,None,None,,None,None,477.2516793359828,None,3,1,0.9206757089996245,477.2516793359828,None,478.1662054024782,None,None,None,None,,12,001,2023_Jan_19_1552,searchDisc5,2021.2.3,60.004936606701264,
images/exp1b_trial_146_colour1_distractors19_l.png,l,1,1,19,1,,,,,0,97,97,97,,,,,,,,,,,,,,,,,,,,,,,,,,,,,,,,,,,,,,,,,,,478.1825516409881,None,2,0.4538383570034057,478.1825516409881,None,,,,,,,,,,,,,,,,None,None,None,,None,None,478.68288669598405,None,1,1,0.8711474239826202,478.68288669598405,None,479.5494539154897,None,None,None,None,,12,001,2023_Jan_19_1552,searchDisc5,2021.2.3,60.004936606701264,
images/exp1b_trial_125_colour3_distractors31_l.png,l,1,3,31,1,,,,,0,98,98,98,,,,,,,,,,,,,,,,,,,,,,,,,,,,,,,,,,,,,,,,,,,479.5656798489799,None,2,0.4209196330048144,479.5656798489799,None,,,,,,,,,,,,,,,,None,None,None,,None,None,480.0345008109871,None,1,1,1.3206662609882187,480.0345008109871,None,481.34957104448404,None,None,None,None,,12,001,2023_Jan_19_1552,searchDisc5,2021.2.3,60.004936606701264,
images/exp1b_trial_130_colour1_distractors9_r.png,r,3,1,9,1,,,,,0,99,99,99,,,,,,,,,,,,,,,,,,,,,,,,,,,,,,,,,,,,,,,,,,,481.3660396859923,None,2,0.43870659900130704,481.3660396859923,None,,,,,,,,,,,,,,,,None,None,None,,None,None,481.85179657000117,None,3,1,0.985444561985787,481.85179657000117,None,482.83280721747724,None,None,None,None,,12,001,2023_Jan_19_1552,searchDisc5,2021.2.3,60.004936606701264,
images/exp1b_trial_226_colour1_distractors9_r.png,r,3,1,9,1,,,,,0,100,100,100,,,,,,,,,,,,,,,,,,,,,,,,,,,,,,,,,,,,,,,,,,,482.8494681659795,None,2,0.456694674998289,482.8494681659795,None,,,,,,,,,,,,,,,,None,None,None,,None,None,483.3497857299808,None,3,1,1.152860336995218,483.3497857299808,None,484.4996289694827,None,None,None,None,,12,001,2023_Jan_19_1552,searchDisc5,2021.2.3,60.004936606701264,
images/exp1b_trial_228_colour1_distractors31_r.png,r,3,1,31,1,,,,,0,101,101,101,,,,,,,,,,,,,,,,,,,,,,,,,,,,,,,,,,,,,,,,,,,484.51634846799425,None,2,0.6727423149859533,484.51634846799425,None,,,,,,,,,,,,,,,,None,None,None,,None,None,485.2329902089841,None,3,1,1.3503074210020714,485.2329902089841,None,486.5829960914998,None,None,None,None,,12,001,2023_Jan_19_1552,searchDisc5,2021.2.3,60.004936606701264,
images/exp1b_trial_241_colour1_distractors9_l.png,l,1,1,9,1,,,,,0,102,102,102,,,,,,,,,,,,,,,,,,,,,,,,,,,,,,,,,,,,,,,,,,,486.59985104898806,None,2,0.4563491580192931,486.59985104898806,None,,,,,,,,,,,,,,,,None,None,None,,None,None,487.10180322799715,None,1,1,0.8880517139914446,487.10180322799715,None,487.98316657148825,None,None,None,None,,12,001,2023_Jan_19_1552,searchDisc5,2021.2.3,60.004936606701264,
images/exp1b_trial_298_colour3_distractors1_r.png,r,3,3,1,1,,,,,0,103,103,103,,,,,,,,,,,,,,,,,,,,,,,,,,,,,,,,,,,,,,,,,,,487.999760450999,None,2,0.35249987500719726,487.999760450999,None,,,,,,,,,,,,,,,,None,None,None,,None,None,488.3999338579888,None,3,1,1.355747761001112,488.3999338579888,None,489.7498459704948,None,None,None,None,,12,001,2023_Jan_19_1552,searchDisc5,2021.2.3,60.004936606701264,
images/exp1b_trial_275_colour1_distractors31_l.png,l,1,1,31,1,,,,,0,104,104,104,,,,,,,,,,,,,,,,,,,,,,,,,,,,,,,,,,,,,,,,,,,489.76635367498966,None,2,0.40452932799234986,489.76635367498966,None,,,,,,,,,,,,,,,,None,None,None,,None,None,490.21865539599094,None,1,1,1.0683324790152255,490.21865539599094,None,491.2830773625028,None,None,None,None,,12,001,2023_Jan_19_1552,searchDisc5,2021.2.3,60.004936606701264,
images/exp1b_trial_313_colour3_distractors1_l.png,l,1,3,1,1,,,,,0,105,105,105,,,,,,,,,,,,,,,,,,,,,,,,,,,,,,,,,,,,,,,,,,,491.29975132798427,None,2,0.4047552470001392,491.29975132798427,None,,,,,,,,,,,,,,,,None,None,None,,None,None,491.7520451239834,None,1,1,0.9377453379856888,491.7520451239834,None,492.6831124864839,None,None,None,None,,12,001,2023_Jan_19_1552,searchDisc5,2021.2.3,60.004936606701264,
images/exp1b_trial_57_colour3_distractors1_l.png,l,1,3,1,1,,,,,0,106,106,106,,,,,,,,,,,,,,,,,,,,,,,,,,,,,,,,,,,,,,,,,,,492.70158815998,None,2,0.5040991230052896,492.70158815998,None,,,,,,,,,,,,,,,,None,None,None,,None,None,493.2520363679796,None,1,1,1.3054667779942974,493.2520363679796,None,494.54905622849765,None,None,None,None,,12,001,2023_Jan_19_1552,searchDisc5,2021.2.3,60.004936606701264,
images/exp1b_trial_197_colour2_distractors1_r.png,r,3,2,1,1,,,,,0,107,107,107,,,,,,,,,,,,,,,,,,,,,,,,,,,,,,,,,,,,,,,,,,,494.5664998150023,None,2,0.40539058498688973,494.5664998150023,None,,,,,,,,,,,,,,,,None,None,None,,None,None,495.01840638398426,None,3,1,0.7713347889948636,495.01840638398426,None,495.78326986449247,None,None,None,None,,12,001,2023_Jan_19_1552,searchDisc5,2021.2.3,60.004936606701264,
images/exp1b_trial_147_colour1_distractors31_l.png,l,1,1,31,1,,,,,0,108,108,108,,,,,,,,,,,,,,,,,,,,,,,,,,,,,,,,,,,,,,,,,,,495.8012986179965,None,2,0.3712639199802652,495.8012986179965,None,,,,,,,,,,,,,,,,None,None,None,,None,None,496.218393180985,None,1,1,1.5694428700080607,496.218393180985,None,497.78332480949757,None,None,None,None,,12,001,2023_Jan_19_1552,searchDisc5,2021.2.3,60.004936606701264,
images/exp1b_trial_54_colour2_distractors9_l.png,l,1,2,9,1,,,,,0,109,109,109,,,,,,,,,,,,,,,,,,,,,,,,,,,,,,,,,,,,,,,,,,,497.79953249698156,None,2,0.3379263220122084,497.79953249698156,None,,,,,,,,,,,,,,,,None,None,None,,None,None,498.1832368449832,None,1,1,1.1876084929972421,498.1832368449832,None,499.3665819934831,None,None,None,None,,12,001,2023_Jan_19_1552,searchDisc5,2021.2.3,60.004936606701264,
images/exp1b_trial_211_colour1_distractors31_l.png,l,1,1,31,1,,,,,0,110,110,110,,,,,,,,,,,,,,,,,,,,,,,,,,,,,,,,,,,,,,,,,,,499.38531637599226,None,2,0.3392345030151773,499.38531637599226,None,,,,,,,,,,,,,,,,None,None,None,,None,None,499.7689331599977,None,1,1,1.1170244539971463,499.7689331599977,None,500.88343928749964,None,None,None,None,,12,001,2023_Jan_19_1552,searchDisc5,2021.2.3,60.004936606701264,
images/exp1b_trial_287_colour0_distractors0_l.png,l,1,0,0,1,,,,,0,111,111,111,,,,,,,,,,,,,,,,,,,,,,,,,,,,,,,,,,,,,,,,,,,500.9000866059796,None,2,0.37117031498928554,500.9000866059796,None,,,,,,,,,,,,,,,,None,None,None,,None,None,501.3169793349807,None,1,1,0.9228334100043867,501.3169793349807,None,502.23356541649264,None,None,None,None,,12,001,2023_Jan_19_1552,searchDisc5,2021.2.3,60.004936606701264,
images/exp1b_trial_55_colour2_distractors19_l.png,l,1,2,19,1,,,,,0,112,112,112,,,,,,,,,,,,,,,,,,,,,,,,,,,,,,,,,,,,,,,,,,,502.2499138469866,None,2,0.33765121398027986,502.2499138469866,None,,,,,,,,,,,,,,,,None,None,None,,None,None,502.63366180000594,None,1,1,0.9203075479890686,502.63366180000594,None,503.5500785284821,None,None,None,None,,12,001,2023_Jan_19_1552,searchDisc5,2021.2.3,60.004936606701264,
images/exp1b_trial_38_colour2_distractors4_r.png,r,3,2,4,1,,,,,0,113,113,113,,,,,,,,,,,,,,,,,,,,,,,,,,,,,,,,,,,,,,,,,,,503.56627148899133,None,2,0.35472552600549534,503.56627148899133,None,,,,,,,,,,,,,,,,None,None,None,,None,None,503.96887063098256,None,3,1,0.9052740409970284,503.96887063098256,None,504.8668137774948,None,None,None,None,,12,001,2023_Jan_19_1552,searchDisc5,2021.2.3,60.004936606701264,
images/exp1b_trial_281_colour3_distractors1_l.png,l,1,3,1,1,,,,,0,114,114,114,,,,,,,,,,,,,,,,,,,,,,,,,,,,,,,,,,,,,,,,,,,504.8833983039949,None,2,0.32103654299862683,504.8833983039949,None,,,,,,,,,,,,,,,,None,None,None,,None,None,505.25027658598265,None,1,1,1.4059935550030787,505.25027658598265,None,506.65032247149793,None,None,None,None,,12,001,2023_Jan_19_1552,searchDisc5,2021.2.3,60.004936606701264,
images/exp1b_trial_153_colour3_distractors1_l.png,l,1,3,1,1,,,,,0,115,115,115,,,,,,,,,,,,,,,,,,,,,,,,,,,,,,,,,,,,,,,,,,,506.6666652599815,None,2,0.35412911701132543,506.6666652599815,None,,,,,,,,,,,,,,,,None,None,None,,None,None,507.06714384799125,None,1,1,0.8560908730141819,507.06714384799125,None,507.9168438734923,None,None,None,None,,12,001,2023_Jan_19_1552,searchDisc5,2021.2.3,60.004936606701264,
images/exp1b_trial_105_colour2_distractors31_r.png,r,3,2,31,1,,,,,0,116,116,116,,,,,,,,,,,,,,,,,,,,,,,,,,,,,,,,,,,,,,,,,,,507.9333605839929,None,2,0.3374651150079444,507.9333605839929,None,,,,,,,,,,,,,,,,None,None,None,,None,None,508.31710230599856,None,3,1,1.036887611990096,508.31710230599856,None,509.3503151814948,None,None,None,None,,12,001,2023_Jan_19_1552,searchDisc5,2021.2.3,60.004936606701264,
images/exp1b_trial_76_colour3_distractors9_r.png,r,3,3,9,1,,,,,0,117,117,117,,,,,,,,,,,,,,,,,,,,,,,,,,,,,,,,,,,,,,,,,,,509.3663911999902,None,2,0.38791566499276087,509.3663911999902,None,,,,,,,,,,,,,,,,None,None,None,,None,None,509.80053317098645,None,3,1,1.3370550370018464,509.80053317098645,None,511.1336144494853,None,None,None,None,,12,001,2023_Jan_19_1552,searchDisc5,2021.2.3,60.004936606701264,
images/exp1b_trial_59_colour3_distractors9_l.png,l,1,3,9,1,,,,,0,118,118,118,,,,,,,,,,,,,,,,,,,,,,,,,,,,,,,,,,,,,,,,,,,511.1526103799988,None,2,0.32124694300000556,511.1526103799988,None,,,,,,,,,,,,,,,,None,None,None,,None,None,511.5195213039988,None,1,1,1.4035367250035051,511.5195213039988,None,512.9165333034907,None,None,None,None,,12,001,2023_Jan_19_1552,searchDisc5,2021.2.3,60.004936606701264,
images/exp1b_trial_87_colour2_distractors19_l.png,l,1,2,19,1,,,,,0,119,119,119,,,,,,,,,,,,,,,,,,,,,,,,,,,,,,,,,,,,,,,,,,,512.9337319199985,None,2,0.34033318297588266,512.9337319199985,None,,,,,,,,,,,,,,,,None,None,None,,None,None,513.3175520139921,None,1,1,1.0518626300035976,513.3175520139921,None,514.3672800454806,None,None,None,None,,12,001,2023_Jan_19_1552,searchDisc5,2021.2.3,60.004936606701264,
images/exp1b_trial_286_colour0_distractors0_r.png,r,3,0,0,1,,,,,0,120,120,120,,,,,,,,,,,,,,,,,,,,,,,,,,,,,,,,,,,,,,,,,,,514.3834613520012,None,2,0.3544938529958017,514.3834613520012,None,,,,,,,,,,,,,,,,None,None,None,,None,None,514.7840609909908,None,3,1,0.9058257720025722,514.7840609909908,None,515.6837302024796,None,None,None,None,,12,001,2023_Jan_19_1552,searchDisc5,2021.2.3,60.004936606701264,
images/exp1b_trial_46_colour3_distractors31_r.png,r,3,3,31,1,,,,,0,121,121,121,,,,,,,,,,,,,,,,,,,,,,,,,,,,,,,,,,,,,,,,,,,515.7004260419926,None,2,0.3379616689926479,515.7004260419926,None,,,,,,,,,,,,,,,,None,None,None,,None,None,516.0836101640016,None,3,1,0.8860378509853035,516.0836101640016,None,516.9671992134972,None,None,None,None,,12,001,2023_Jan_19_1552,searchDisc5,2021.2.3,60.004936606701264,
images/exp1b_trial_49_colour1_distractors9_l.png,l,1,1,9,1,,,,,0,122,122,122,,,,,,,,,,,,,,,,,,,,,,,,,,,,,,,,,,,,,,,,,,,516.9837955909898,None,2,0.28773775801528245,516.9837955909898,None,,,,,,,,,,,,,,,,None,None,None,,None,None,517.3168460539891,None,1,1,1.2714234209852293,517.3168460539891,None,518.5839509954822,None,None,None,None,,12,001,2023_Jan_19_1552,searchDisc5,2021.2.3,60.004936606701264,
images/exp1b_trial_94_colour0_distractors0_r.png,r,3,0,0,1,,,,,0,123,123,123,,,,,,,,,,,,,,,,,,,,,,,,,,,,,,,,,,,,,,,,,,,518.6004079080012,None,2,0.337664781982312,518.6004079080012,None,,,,,,,,,,,,,,,,None,None,None,,None,None,518.9840973779792,None,3,1,0.8225265800138004,518.9840973779792,None,519.8005550814996,None,None,None,None,,12,001,2023_Jan_19_1552,searchDisc5,2021.2.3,60.004936606701264,
images/exp1b_trial_280_colour2_distractors31_l.png,l,1,2,31,1,,,,,0,124,124,124,,,,,,,,,,,,,,,,,,,,,,,,,,,,,,,,,,,,,,,,,,,519.8169663779845,None,2,0.4045945700199809,519.8169663779845,None,,,,,,,,,,,,,,,,None,None,None,,None,None,520.2667820279894,None,1,1,1.1038377200020477,520.2667820279894,None,521.3672802724905,None,None,None,None,,12,001,2023_Jan_19_1552,searchDisc5,2021.2.3,60.004936606701264,
images/exp1b_trial_310_colour2_distractors9_l.png,l,1,2,9,1,,,,,0,125,125,125,,,,,,,,,,,,,,,,,,,,,,,,,,,,,,,,,,,,,,,,,,,521.3838761119987,None,2,0.3544706199900247,521.3838761119987,None,,,,,,,,,,,,,,,,None,None,None,,None,None,521.7841544219991,None,1,1,1.123578800004907,521.7841544219991,None,522.9007231394789,None,None,None,None,,12,001,2023_Jan_19_1552,searchDisc5,2021.2.3,60.004936606701264,
images/exp1b_trial_100_colour1_distractors31_r.png,r,3,1,31,1,,,,,0,126,126,126,,,,,,,,,,,,,,,,,,,,,,,,,,,,,,,,,,,,,,,,,,,522.9169040489942,None,2,0.386120626993943,522.9169040489942,None,,,,,,,,,,,,,,,,None,None,None,,None,None,523.3528719769965,None,3,1,0.8026638660230674,523.3528719769965,None,524.150815974499,None,None,None,None,,12,001,2023_Jan_19_1552,searchDisc5,2021.2.3,60.004936606701264,
images/exp1b_trial_168_colour2_distractors19_r.png,r,3,2,19,1,,,,,0,127,127,127,,,,,,,,,,,,,,,,,,,,,,,,,,,,,,,,,,,,,,,,,,,524.1666686249955,None,2,0.38774404700961895,524.1666686249955,None,,,,,,,,,,,,,,,,None,None,None,,None,None,524.6029891909857,None,3,1,1.30390256899409,524.6029891909857,None,525.9007927844796,None,None,None,None,,12,001,2023_Jan_19_1552,searchDisc5,2021.2.3,60.004936606701264,
images/exp1b_trial_132_colour1_distractors31_r.png,r,3,1,31,1,,,,,0,128,128,128,,,,,,,,,,,,,,,,,,,,,,,,,,,,,,,,,,,,,,,,,,,525.9173456889985,None,2,0.35352263000095263,525.9173456889985,None,,,,,,,,,,,,,,,,None,None,None,,None,None,526.3175249380001,None,3,1,1.0351650569937192,526.3175249380001,None,527.3506586654839,None,None,None,None,,12,001,2023_Jan_19_1552,searchDisc5,2021.2.3,60.004936606701264,
images/exp1b_trial_185_colour3_distractors1_l.png,l,1,3,1,1,,,,,0,129,129,129,,,,,,,,,,,,,,,,,,,,,,,,,,,,,,,,,,,,,,,,,,,527.3668753849925,None,2,0.388192546000937,527.3668753849925,None,,,,,,,,,,,,,,,,None,None,None,,None,None,527.8011052439979,None,1,1,1.3723094709857833,527.8011052439979,None,529.1673520064942,None,None,None,None,,12,001,2023_Jan_19_1552,searchDisc5,2021.2.3,60.004936606701264,
images/exp1b_trial_110_colour3_distractors31_r.png,r,3,3,31,1,,,,,0,130,130,130,,,,,,,,,,,,,,,,,,,,,,,,,,,,,,,,,,,,,,,,,,,529.1862168069929,None,2,0.33766260801348835,529.1862168069929,None,,,,,,,,,,,,,,,,None,None,None,,None,None,529.5697376449825,None,3,1,1.0192180079757236,529.5697376449825,None,530.5843495214795,None,None,None,None,,12,001,2023_Jan_19_1552,searchDisc5,2021.2.3,60.004936606701264,
images/exp1b_trial_26_colour3_distractors4_l.png,l,1,3,4,1,,,,,0,131,131,131,,,,,,,,,,,,,,,,,,,,,,,,,,,,,,,,,,,,,,,,,,,530.6028906809806,None,2,0.38970723198144697,530.6028906809806,None,,,,,,,,,,,,,,,,None,None,None,,None,None,531.0360258199798,None,1,1,0.9694632739992812,531.0360258199798,None,532.0010547514976,None,None,None,None,,12,001,2023_Jan_19_1552,searchDisc5,2021.2.3,60.004936606701264,
images/exp1b_trial_150_colour2_distractors9_l.png,l,1,2,9,1,,,,,0,132,132,132,,,,,,,,,,,,,,,,,,,,,,,,,,,,,,,,,,,,,,,,,,,532.0176195419917,None,2,0.37113968998892233,532.0176195419917,None,,,,,,,,,,,,,,,,None,None,None,,None,None,532.4346306980005,None,1,1,1.1384498350089416,532.4346306980005,None,533.5676484434953,None,None,None,None,,12,001,2023_Jan_19_1552,searchDisc5,2021.2.3,60.004936606701264,
images/exp1b_trial_121_colour3_distractors1_l.png,l,1,3,1,1,,,,,0,133,133,133,,,,,,,,,,,,,,,,,,,,,,,,,,,,,,,,,,,,,,,,,,,533.5843702999991,None,2,0.38803763600299135,533.5843702999991,None,,,,,,,,,,,,,,,,None,None,None,,None,None,534.017840777,None,1,1,1.0712551920150872,534.017840777,None,535.0834735674871,None,None,None,None,,12,001,2023_Jan_19_1552,searchDisc5,2021.2.3,60.004936606701264,
images/exp1b_trial_177_colour1_distractors9_l.png,l,1,1,9,1,,,,,0,134,134,134,,,,,,,,,,,,,,,,,,,,,,,,,,,,,,,,,,,,,,,,,,,535.1008752140042,None,2,0.3719870740023907,535.1008752140042,None,,,,,,,,,,,,,,,,None,None,None,,None,None,535.5176157679816,None,1,1,1.087355146999471,535.5176157679816,None,536.600718388494,None,None,None,None,,12,001,2023_Jan_19_1552,searchDisc5,2021.2.3,60.004936606701264,
images/exp1b_trial_173_colour3_distractors19_r.png,r,3,3,19,1,,,,,0,135,135,135,,,,,,,,,,,,,,,,,,,,,,,,,,,,,,,,,,,,,,,,,,,536.6169428360008,None,2,0.3566107230144553,536.6169428360008,None,,,,,,,,,,,,,,,,None,None,None,,None,None,537.0179706979834,None,3,1,0.8353091310127638,537.0179706979834,None,537.8511200914945,None,None,None,None,,12,001,2023_Jan_19_1552,searchDisc5,2021.2.3,60.004936606701264,
images/exp1b_trial_319_colour0_distractors0_l.png,l,1,0,0,1,,,,,0,136,136,136,,,,,,,,,,,,,,,,,,,,,,,,,,,,,,,,,,,,,,,,,,,537.8696568629821,None,2,0.4066580509825144,537.8696568629821,None,,,,,,,,,,,,,,,,None,None,None,,None,None,538.320145478996,None,1,1,1.0053189600002952,538.320145478996,None,539.3177876914997,None,None,None,None,,12,001,2023_Jan_19_1552,searchDisc5,2021.2.3,60.004936606701264,
images/exp1b_trial_196_colour1_distractors31_r.png,r,3,1,31,1,,,,,0,137,137,137,,,,,,,,,,,,,,,,,,,,,,,,,,,,,,,,,,,,,,,,,,,539.3344521010004,None,2,0.33777309898869134,539.3344521010004,None,,,,,,,,,,,,,,,,None,None,None,,None,None,539.7178144379868,None,3,1,1.76719429899822,539.7178144379868,None,541.4846180614986,None,None,None,None,,12,001,2023_Jan_19_1552,searchDisc5,2021.2.3,60.004936606701264,
images/exp1b_trial_238_colour3_distractors31_r.png,r,3,3,31,1,,,,,0,138,138,138,,,,,,,,,,,,,,,,,,,,,,,,,,,,,,,,,,,,,,,,,,,541.5010361610039,None,2,0.4037276100134477,541.5010361610039,None,,,,,,,,,,,,,,,,None,None,None,,None,None,541.9534416130045,None,3,1,0.952287399006309,541.9534416130045,None,542.9007078875002,None,None,None,None,,12,001,2023_Jan_19_1552,searchDisc5,2021.2.3,60.004936606701264,
images/exp1b_trial_36_colour1_distractors31_r.png,r,3,1,31,1,,,,,0,139,139,139,,,,,,,,,,,,,,,,,,,,,,,,,,,,,,,,,,,,,,,,,,,542.9179694009945,None,2,0.35539940401213244,542.9179694009945,None,,,,,,,,,,,,,,,,None,None,None,,None,None,543.3174887729983,None,3,1,1.0349537860020064,543.3174887729983,None,544.3510492464848,None,None,None,None,,12,001,2023_Jan_19_1552,searchDisc5,2021.2.3,60.004936606701264,
images/exp1b_trial_205_colour3_distractors19_r.png,r,3,3,19,1,,,,,0,140,140,140,,,,,,,,,,,,,,,,,,,,,,,,,,,,,,,,,,,,,,,,,,,544.3672257009894,None,2,0.3380238749959972,544.3672257009894,None,,,,,,,,,,,,,,,,None,None,None,,None,None,544.7517518779787,None,3,1,0.8697147369966842,544.7517518779787,None,545.6180108995031,None,None,None,None,,12,001,2023_Jan_19_1552,searchDisc5,2021.2.3,60.004936606701264,
images/exp1b_trial_60_colour3_distractors19_l.png,l,1,3,19,1,,,,,0,141,141,141,,,,,,,,,,,,,,,,,,,,,,,,,,,,,,,,,,,,,,,,,,,545.634287539986,None,2,0.3878064449818339,545.634287539986,None,,,,,,,,,,,,,,,,None,None,None,,None,None,546.07022869098,None,1,1,1.2369745370233431,546.07022869098,None,547.3012808104831,None,None,None,None,,12,001,2023_Jan_19_1552,searchDisc5,2021.2.3,60.004936606701264,
images/exp1b_trial_28_colour3_distractors19_l.png,l,1,3,19,1,,,,,0,142,142,142,,,,,,,,,,,,,,,,,,,,,,,,,,,,,,,,,,,,,,,,,,,547.3176987539919,None,2,0.3377404850034509,547.3176987539919,None,,,,,,,,,,,,,,,,None,None,None,,None,None,547.7015529619821,None,1,1,0.9360956890159287,547.7015529619821,None,548.6346032644942,None,None,None,None,,12,001,2023_Jan_19_1552,searchDisc5,2021.2.3,60.004936606701264,
images/exp1b_trial_134_colour2_distractors4_r.png,r,3,2,4,1,,,,,0,143,143,143,,,,,,,,,,,,,,,,,,,,,,,,,,,,,,,,,,,,,,,,,,,548.6528577919817,None,2,0.3544037299870979,548.6528577919817,None,,,,,,,,,,,,,,,,None,None,None,,None,None,549.053745985002,None,3,1,0.8390377040195744,549.053745985002,None,549.8846448164986,None,None,None,None,,12,001,2023_Jan_19_1552,searchDisc5,2021.2.3,60.004936606701264,
images/exp1b_trial_166_colour2_distractors4_r.png,r,3,2,4,1,,,,,0,144,144,144,,,,,,,,,,,,,,,,,,,,,,,,,,,,,,,,,,,,,,,,,,,549.9007073440007,None,2,0.3882398559944704,549.9007073440007,None,,,,,,,,,,,,,,,,None,None,None,,None,None,550.3363121220027,None,3,1,1.0380794890224934,550.3363121220027,None,551.3679854034999,None,None,None,None,,12,001,2023_Jan_19_1552,searchDisc5,2021.2.3,60.004936606701264,
images/exp1b_trial_25_colour3_distractors1_l.png,l,1,3,1,1,,,,,0,145,145,145,,,,,,,,,,,,,,,,,,,,,,,,,,,,,,,,,,,,,,,,,,,551.3846804889909,None,2,0.3548278529779054,551.3846804889909,None,,,,,,,,,,,,,,,,None,None,None,,None,None,551.78494783098,None,1,1,1.591351193987066,551.78494783098,None,553.3681609104824,None,None,None,None,,12,001,2023_Jan_19_1552,searchDisc5,2021.2.3,60.004936606701264,
images/exp1b_trial_194_colour1_distractors9_r.png,r,3,1,9,1,,,,,0,146,146,146,,,,,,,,,,,,,,,,,,,,,,,,,,,,,,,,,,,,,,,,,,,553.3849242659926,None,2,0.33527661199332215,553.3849242659926,None,,,,,,,,,,,,,,,,None,None,None,,None,None,553.768042465992,None,3,1,0.8545155790052377,553.768042465992,None,554.6182243754884,None,None,None,None,,12,001,2023_Jan_19_1552,searchDisc5,2021.2.3,60.004936606701264,
images/exp1b_trial_67_colour1_distractors19_r.png,r,3,1,19,1,,,,,0,147,147,147,,,,,,,,,,,,,,,,,,,,,,,,,,,,,,,,,,,,,,,,,,,554.6348283510015,None,2,0.3712121850112453,554.6348283510015,None,,,,,,,,,,,,,,,,None,None,None,,None,None,555.0517035259982,None,3,1,0.8868887179996818,555.0517035259982,None,555.9349950134783,None,None,None,None,,12,001,2023_Jan_19_1552,searchDisc5,2021.2.3,60.004936606701264,
images/exp1b_trial_34_colour1_distractors9_r.png,r,3,1,9,1,,,,,0,148,148,148,,,,,,,,,,,,,,,,,,,,,,,,,,,,,,,,,,,,,,,,,,,555.9510349469783,None,2,0.3698338799877092,555.9510349469783,None,,,,,,,,,,,,,,,,None,None,None,,None,None,556.3705645620066,None,3,1,0.7545575660187751,556.3705645620066,None,557.1179303294775,None,None,None,None,,12,001,2023_Jan_19_1552,searchDisc5,2021.2.3,60.004936606701264,
images/exp1b_trial_45_colour3_distractors19_r.png,r,3,3,19,1,,,,,0,149,149,149,,,,,,,,,,,,,,,,,,,,,,,,,,,,,,,,,,,,,,,,,,,557.1349041649955,None,2,0.37153577999561094,557.1349041649955,None,,,,,,,,,,,,,,,,None,None,None,,None,None,557.5537908129918,None,3,1,0.7359813819930423,557.5537908129918,None,558.2850864124921,None,None,None,None,,12,001,2023_Jan_19_1552,searchDisc5,2021.2.3,60.004936606701264,
images/exp1b_trial_169_colour2_distractors31_r.png,r,3,2,31,1,,,,,0,150,150,150,,,,,,,,,,,,,,,,,,,,,,,,,,,,,,,,,,,,,,,,,,,558.3014191739785,None,2,0.38747775499359705,558.3014191739785,None,,,,,,,,,,,,,,,,None,None,None,,None,None,558.737185187987,None,3,1,1.0702968309924472,558.737185187987,None,559.8016144705034,None,None,None,None,,12,001,2023_Jan_19_1552,searchDisc5,2021.2.3,60.004936606701264,
images/exp1b_trial_316_colour3_distractors19_l.png,l,1,3,19,1,,,,,0,151,151,151,,,,,,,,,,,,,,,,,,,,,,,,,,,,,,,,,,,,,,,,,,,559.8182003819966,None,2,0.3545626309933141,559.8182003819966,None,,,,,,,,,,,,,,,,None,None,None,,None,None,560.220410873997,None,1,1,0.9692324159841519,560.220410873997,None,561.1852457414934,None,None,None,None,,12,001,2023_Jan_19_1552,searchDisc5,2021.2.3,60.004936606701264,
images/exp1b_trial_52_colour2_distractors1_l.png,l,1,2,1,1,,,,,0,152,152,152,,,,,,,,,,,,,,,,,,,,,,,,,,,,,,,,,,,,,,,,,,,561.2013423379976,None,2,0.37071211502188817,561.2013423379976,None,,,,,,,,,,,,,,,,None,None,None,,None,None,561.6184104599815,None,1,1,1.1063874989922624,561.6184104599815,None,562.7184009024786,None,None,None,None,,12,001,2023_Jan_19_1552,searchDisc5,2021.2.3,60.004936606701264,
images/exp1b_trial_131_colour1_distractors19_r.png,r,3,1,19,1,,,,,0,153,153,153,,,,,,,,,,,,,,,,,,,,,,,,,,,,,,,,,,,,,,,,,,,562.7344467839866,None,2,0.304680934001226,562.7344467839866,None,,,,,,,,,,,,,,,,None,None,None,,None,None,563.0855470899842,None,3,1,1.303118940006243,563.0855470899842,None,564.3851347354794,None,None,None,None,,12,001,2023_Jan_19_1552,searchDisc5,2021.2.3,60.004936606701264,
images/exp1b_trial_157_colour3_distractors31_l.png,l,1,3,31,1,,,,,0,154,154,154,,,,,,,,,,,,,,,,,,,,,,,,,,,,,,,,,,,,,,,,,,,564.4017491689883,None,2,0.40652266901452094,564.4017491689883,None,,,,,,,,,,,,,,,,None,None,None,,None,None,564.8537909769802,None,1,1,1.1023017030092888,564.8537909769802,None,565.9519253964972,None,None,None,None,,12,001,2023_Jan_19_1552,searchDisc5,2021.2.3,60.004936606701264,
images/exp1b_trial_300_colour3_distractors9_r.png,r,3,3,9,1,,,,,0,155,155,155,,,,,,,,,,,,,,,,,,,,,,,,,,,,,,,,,,,,,,,,,,,565.9704706390039,None,2,0.38794905800023116,565.9704706390039,None,,,,,,,,,,,,,,,,None,None,None,,None,None,566.4040680000035,None,3,1,0.8210447120072786,566.4040680000035,None,567.2185654085042,None,None,None,None,,12,001,2023_Jan_19_1552,searchDisc5,2021.2.3,60.004936606701264,
images/exp1b_trial_175_colour1_distractors1_l.png,l,1,1,1,1,,,,,0,156,156,156,,,,,,,,,,,,,,,,,,,,,,,,,,,,,,,,,,,,,,,,,,,567.2347073919955,None,2,0.3525867720018141,567.2347073919955,None,,,,,,,,,,,,,,,,None,None,None,,None,None,567.6348234019824,None,1,1,0.9399921940057538,567.6348234019824,None,568.5686123994965,None,None,None,None,,12,001,2023_Jan_19_1552,searchDisc5,2021.2.3,60.004936606701264,
images/exp1b_trial_164_colour1_distractors31_r.png,r,3,1,31,1,,,,,0,157,157,157,,,,,,,,,,,,,,,,,,,,,,,,,,,,,,,,,,,,,,,,,,,568.5846636350034,None,2,0.4068522980087437,568.5846636350034,None,,,,,,,,,,,,,,,,None,None,None,,None,None,569.0375432010042,None,3,1,0.9489237280213274,569.0375432010042,None,569.9844128244877,None,None,None,None,,12,001,2023_Jan_19_1552,searchDisc5,2021.2.3,60.004936606701264,
images/exp1b_trial_180_colour2_distractors1_l.png,l,1,2,1,1,,,,,0,158,158,158,,,,,,,,,,,,,,,,,,,,,,,,,,,,,,,,,,,,,,,,,,,570.0019060479826,None,2,0.4053177780006081,570.0019060479826,None,,,,,,,,,,,,,,,,None,None,None,,None,None,570.4544541659998,None,1,1,2.089504664996639,570.4544541659998,None,572.5355314834887,None,None,None,None,,12,001,2023_Jan_19_1552,searchDisc5,2021.2.3,60.004936606701264,
images/exp1b_trial_47_colour1_distractors1_l.png,l,1,1,1,1,,,,,0,159,159,159,,,,,,,,,,,,,,,,,,,,,,,,,,,,,,,,,,,,,,,,,,,572.5518220849917,None,2,0.38759940199088305,572.5518220849917,None,,,,,,,,,,,,,,,,None,None,None,,None,None,572.9876530469919,None,3,0,1.1221781939966604,572.9876530469919,None,574.1021283084847,None,None,None,None,,12,001,2023_Jan_19_1552,searchDisc5,2021.2.3,60.004936606701264,
images/exp1b_trial_208_colour1_distractors4_l.png,l,1,1,4,1,,,,,0,160,160,160,,,,,,,,,,,,,,,,,,,,,,,,,,,,,,,,,,,,,,,,,,,574.1186358629784,None,2,0.3212100619857665,574.1186358629784,None,,,,,,,,,,,,,,,,None,None,None,,None,None,574.4854951409798,None,3,0,0.8387320219771937,574.4854951409798,None,575.3188614185055,None,None,None,None,,12,001,2023_Jan_19_1552,searchDisc5,2021.2.3,60.004936606701264,
images/exp1b_trial_106_colour3_distractors1_r.png,r,3,3,1,1,,,,,0,161,161,161,,,,,,,,,,,,,,,,,,,,,,,,,,,,,,,,,,,,,,,,,,,575.3354848379968,None,2,0.33793432801030576,575.3354848379968,None,,,,,,,,,,,,,,,,None,None,None,,None,None,575.7189499259985,None,3,1,1.505329695995897,575.7189499259985,None,577.2188583364914,None,None,None,None,,12,001,2023_Jan_19_1552,searchDisc5,2021.2.3,60.004936606701264,
images/exp1b_trial_68_colour1_distractors31_r.png,r,3,1,31,1,,,,,0,162,162,162,,,,,,,,,,,,,,,,,,,,,,,,,,,,,,,,,,,,,,,,,,,577.2355892759806,None,2,0.3041457369981799,577.2355892759806,None,,,,,,,,,,,,,,,,None,None,None,,None,None,577.5858987709798,None,3,1,1.2182147759885993,577.5858987709798,None,578.8020164564805,None,None,None,None,,12,001,2023_Jan_19_1552,searchDisc5,2021.2.3,60.004936606701264,
images/exp1b_trial_98_colour1_distractors9_r.png,r,3,1,9,1,,,,,0,163,163,163,,,,,,,,,,,,,,,,,,,,,,,,,,,,,,,,,,,,,,,,,,,578.8184451359848,None,2,0.40467259599245153,578.8184451359848,None,,,,,,,,,,,,,,,,None,None,None,,None,None,579.2707782789948,None,3,1,0.754785669996636,579.2707782789948,None,580.0190680304804,None,None,None,None,,12,001,2023_Jan_19_1552,searchDisc5,2021.2.3,60.004936606701264,
images/exp1b_trial_292_colour1_distractors31_r.png,r,3,1,31,1,,,,,0,164,164,164,,,,,,,,,,,,,,,,,,,,,,,,,,,,,,,,,,,,,,,,,,,580.0353885259829,None,2,0.38791359099559486,580.0353885259829,None,,,,,,,,,,,,,,,,None,None,None,,None,None,580.4712482279865,None,3,1,0.7352933429938275,580.4712482279865,None,581.2021584204776,None,None,None,None,,12,001,2023_Jan_19_1552,searchDisc5,2021.2.3,60.004936606701264,
images/exp1b_trial_201_colour2_distractors31_r.png,r,3,2,31,1,,,,,0,165,165,165,,,,,,,,,,,,,,,,,,,,,,,,,,,,,,,,,,,,,,,,,,,581.2188890239922,None,2,0.371242140972754,581.2188890239922,None,,,,,,,,,,,,,,,,None,None,None,,None,None,581.6378242119972,None,3,1,1.0199639789934736,581.6378242119972,None,582.6521383494983,None,None,None,None,,12,001,2023_Jan_19_1552,searchDisc5,2021.2.3,60.004936606701264,
images/exp1b_trial_156_colour3_distractors19_l.png,l,1,3,19,1,,,,,0,166,166,166,,,,,,,,,,,,,,,,,,,,,,,,,,,,,,,,,,,,,,,,,,,582.6689179539972,None,2,0.3566909420187585,582.6689179539972,None,,,,,,,,,,,,,,,,None,None,None,,None,None,583.0691344350053,None,3,0,0.802192063012626,583.0691344350053,None,583.8690002374788,None,None,None,None,,12,001,2023_Jan_19_1552,searchDisc5,2021.2.3,60.004936606701264,
images/exp1b_trial_244_colour2_distractors1_l.png,l,1,2,1,1,,,,,0,167,167,167,,,,,,,,,,,,,,,,,,,,,,,,,,,,,,,,,,,,,,,,,,,583.8854629279813,None,2,0.33777627698145807,583.8854629279813,None,,,,,,,,,,,,,,,,None,None,None,,None,None,584.2684856709966,None,1,1,0.8064854560070671,584.2684856709966,None,585.0690504505037,None,None,None,None,,12,001,2023_Jan_19_1552,searchDisc5,2021.2.3,60.004936606701264,
images/exp1b_trial_171_colour3_distractors4_r.png,r,3,3,4,1,,,,,0,168,168,168,,,,,,,,,,,,,,,,,,,,,,,,,,,,,,,,,,,,,,,,,,,585.0879470589862,None,2,0.35389020800357684,585.0879470589862,None,,,,,,,,,,,,,,,,None,None,None,,None,None,585.487528291007,None,3,1,0.7048921400273684,585.487528291007,None,586.1857694464998,None,None,None,None,,12,001,2023_Jan_19_1552,searchDisc5,2021.2.3,60.004936606701264,
images/exp1b_trial_189_colour3_distractors31_l.png,l,1,3,31,1,,,,,0,169,169,169,,,,,,,,,,,,,,,,,,,,,,,,,,,,,,,,,,,,,,,,,,,586.2026207789895,None,2,0.3714810079836752,586.2026207789895,None,,,,,,,,,,,,,,,,None,None,None,,None,None,586.6189840720035,None,1,1,0.7191595479962416,586.6189840720035,None,587.3360051274794,None,None,None,None,,12,001,2023_Jan_19_1552,searchDisc5,2021.2.3,60.004936606701264,
images/exp1b_trial_174_colour3_distractors31_r.png,r,3,3,31,1,,,,,0,170,170,170,,,,,,,,,,,,,,,,,,,,,,,,,,,,,,,,,,,,,,,,,,,587.3523401029815,None,2,0.3709356939943973,587.3523401029815,None,,,,,,,,,,,,,,,,None,None,None,,None,None,587.7694340169837,None,3,1,1.30263759297668,587.7694340169837,None,589.0692127884977,None,None,None,None,,12,001,2023_Jan_19_1552,searchDisc5,2021.2.3,60.004936606701264,
images/exp1b_trial_37_colour2_distractors1_r.png,r,3,2,1,1,,,,,0,171,171,171,,,,,,,,,,,,,,,,,,,,,,,,,,,,,,,,,,,,,,,,,,,589.0857223529893,None,2,0.3045244299864862,589.0857223529893,None,,,,,,,,,,,,,,,,None,None,None,,None,None,589.4359981899906,None,3,1,0.8891463950276375,589.4359981899906,None,590.3192685005051,None,None,None,None,,12,001,2023_Jan_19_1552,searchDisc5,2021.2.3,60.004936606701264,
images/exp1b_trial_127_colour0_distractors0_l.png,l,1,0,0,1,,,,,0,172,172,172,,,,,,,,,,,,,,,,,,,,,,,,,,,,,,,,,,,,,,,,,,,590.3354674589937,None,2,0.33799246000126004,590.3354674589937,None,,,,,,,,,,,,,,,,None,None,None,,None,None,590.7194802869926,None,1,1,0.806307437014766,590.7194802869926,None,591.5195562514855,None,None,None,None,,12,001,2023_Jan_19_1552,searchDisc5,2021.2.3,60.004936606701264,
images/exp1b_trial_135_colour2_distractors9_r.png,r,3,2,9,1,,,,,0,173,173,173,,,,,,,,,,,,,,,,,,,,,,,,,,,,,,,,,,,,,,,,,,,591.5379238709866,None,2,0.33772204801789485,591.5379238709866,None,,,,,,,,,,,,,,,,None,None,None,,None,None,591.9209820099932,None,3,1,0.7383918779960368,591.9209820099932,None,592.6528453224892,None,None,None,None,,12,001,2023_Jan_19_1552,searchDisc5,2021.2.3,60.004936606701264,
images/exp1b_trial_129_colour1_distractors4_r.png,r,3,1,4,1,,,,,0,174,174,174,,,,,,,,,,,,,,,,,,,,,,,,,,,,,,,,,,,,,,,,,,,592.6692228259926,None,2,0.30419054700178094,592.6692228259926,None,,,,,,,,,,,,,,,,None,None,None,,None,None,593.0189914679795,None,3,1,1.0741388040187303,593.0189914679795,None,594.0860143754835,None,None,None,None,,12,001,2023_Jan_19_1552,searchDisc5,2021.2.3,60.004936606701264,
images/exp1b_trial_77_colour3_distractors19_r.png,r,3,3,19,1,,,,,0,175,175,175,,,,,,,,,,,,,,,,,,,,,,,,,,,,,,,,,,,,,,,,,,,594.1024569089932,None,2,0.33550837900838815,594.1024569089932,None,,,,,,,,,,,,,,,,None,None,None,,None,None,594.486407852004,None,3,1,0.9530741990020033,594.486407852004,None,595.436028175478,None,None,None,None,,12,001,2023_Jan_19_1552,searchDisc5,2021.2.3,60.004936606701264,
images/exp1b_trial_187_colour3_distractors9_l.png,l,1,3,9,1,,,,,0,176,176,176,,,,,,,,,,,,,,,,,,,,,,,,,,,,,,,,,,,,,,,,,,,595.4520301479788,None,2,0.47566291701514274,595.4520301479788,None,,,,,,,,,,,,,,,,None,None,None,,None,None,595.9695774090069,None,3,0,0.949670349014923,595.9695774090069,None,596.9193534474907,None,None,None,None,,12,001,2023_Jan_19_1552,searchDisc5,2021.2.3,60.004936606701264,
images/exp1b_trial_216_colour2_distractors31_l.png,l,1,2,31,1,,,,,0,177,177,177,,,,,,,,,,,,,,,,,,,,,,,,,,,,,,,,,,,,,,,,,,,596.9354883619817,None,2,0.3872206519881729,596.9354883619817,None,,,,,,,,,,,,,,,,None,None,None,,None,None,597.3692484789935,None,1,1,1.5211975140264258,597.3692484789935,None,598.8861746975017,None,None,None,None,,12,001,2023_Jan_19_1552,searchDisc5,2021.2.3,60.004936606701264,
images/exp1b_trial_42_colour3_distractors1_r.png,r,3,3,1,1,,,,,0,178,178,178,,,,,,,,,,,,,,,,,,,,,,,,,,,,,,,,,,,,,,,,,,,598.9046758059994,None,2,0.3707354530051816,598.9046758059994,None,,,,,,,,,,,,,,,,None,None,None,,None,None,599.3212193890067,None,3,1,0.8052498449978884,599.3212193890067,None,600.118808445477,None,None,None,None,,12,001,2023_Jan_19_1552,searchDisc5,2021.2.3,60.004936606701264,
images/exp1b_trial_183_colour2_distractors19_l.png,l,1,2,19,1,,,,,0,179,179,179,,,,,,,,,,,,,,,,,,,,,,,,,,,,,,,,,,,,,,,,,,,600.1359526279848,None,2,0.38815436299773864,600.1359526279848,None,,,,,,,,,,,,,,,,None,None,None,,None,None,600.5717677059874,None,3,0,2.1042089510010555,600.5717677059874,None,602.6695034494769,None,None,None,None,,12,001,2023_Jan_19_1552,searchDisc5,2021.2.3,60.004936606701264,
images/exp1b_trial_256_colour1_distractors1_r.png,r,3,1,1,1,,,,,0,180,180,180,,,,,,,,,,,,,,,,,,,,,,,,,,,,,,,,,,,,,,,,,,,602.6882676949899,None,2,0.4878455169964582,602.6882676949899,None,,,,,,,,,,,,,,,,None,None,None,,None,None,603.2218196959875,None,3,1,1.4893140489875805,603.2218196959875,None,604.7029051314894,None,None,None,None,,12,001,2023_Jan_19_1552,searchDisc5,2021.2.3,60.004936606701264,
images/exp1b_trial_50_colour1_distractors19_l.png,l,1,1,19,1,,,,,0,181,181,181,,,,,,,,,,,,,,,,,,,,,,,,,,,,,,,,,,,,,,,,,,,604.7190443440049,None,2,0.3699434860027395,604.7190443440049,None,,,,,,,,,,,,,,,,None,None,None,,None,None,605.1365802999935,None,1,1,1.2382488599978387,605.1365802999935,None,606.369634337505,None,None,None,None,,12,001,2023_Jan_19_1552,searchDisc5,2021.2.3,60.004936606701264,
images/exp1b_trial_33_colour1_distractors4_r.png,r,3,1,4,1,,,,,0,182,182,182,,,,,,,,,,,,,,,,,,,,,,,,,,,,,,,,,,,,,,,,,,,606.3857969219971,None,2,0.3358385240135249,606.3857969219971,None,,,,,,,,,,,,,,,,None,None,None,,None,None,606.7717417739914,None,3,1,1.0053681790013798,606.7717417739914,None,607.7697059344937,None,None,None,None,,12,001,2023_Jan_19_1552,searchDisc5,2021.2.3,60.004936606701264,
images/exp1b_trial_179_colour1_distractors31_l.png,l,1,1,31,1,,,,,0,183,183,183,,,,,,,,,,,,,,,,,,,,,,,,,,,,,,,,,,,,,,,,,,,607.7861162589979,None,2,0.3729947129904758,607.7861162589979,None,,,,,,,,,,,,,,,,None,None,None,,None,None,608.2051775110012,None,3,0,0.9170930389955174,608.2051775110012,None,609.1198607734841,None,None,None,None,,12,001,2023_Jan_19_1552,searchDisc5,2021.2.3,60.004936606701264,
images/exp1b_trial_84_colour2_distractors1_l.png,l,1,2,1,1,,,,,0,184,184,184,,,,,,,,,,,,,,,,,,,,,,,,,,,,,,,,,,,,,,,,,,,609.1361938969931,None,2,0.389754873001948,609.1361938969931,None,,,,,,,,,,,,,,,,None,None,None,,None,None,609.5714654529875,None,1,1,0.7706720840069465,609.5714654529875,None,610.3364189175045,None,None,None,None,,12,001,2023_Jan_19_1552,searchDisc5,2021.2.3,60.004936606701264,
images/exp1b_trial_15_colour1_distractors1_l.png,l,1,1,1,1,,,,,0,185,185,185,,,,,,,,,,,,,,,,,,,,,,,,,,,,,,,,,,,,,,,,,,,610.3551003139874,None,2,0.3547664029756561,610.3551003139874,None,,,,,,,,,,,,,,,,None,None,None,,None,None,610.7557223390031,None,3,0,1.772799157013651,610.7557223390031,None,612.520037133494,None,None,None,None,,12,001,2023_Jan_19_1552,searchDisc5,2021.2.3,60.004936606701264,
images/exp1b_trial_218_colour3_distractors4_l.png,l,1,3,4,1,,,,,0,186,186,186,,,,,,,,,,,,,,,,,,,,,,,,,,,,,,,,,,,,,,,,,,,612.5381282389862,None,2,0.3711834219866432,612.5381282389862,None,,,,,,,,,,,,,,,,None,None,None,,None,None,612.9555173109984,None,1,1,0.8551099759934004,612.9555173109984,None,613.8032207825017,None,None,None,None,,12,001,2023_Jan_19_1552,searchDisc5,2021.2.3,60.004936606701264,
images/exp1b_trial_144_colour1_distractors4_l.png,l,1,1,4,1,,,,,0,187,187,187,,,,,,,,,,,,,,,,,,,,,,,,,,,,,,,,,,,,,,,,,,,613.8195673269802,None,2,0.320501531008631,613.8195673269802,None,,,,,,,,,,,,,,,,None,None,None,,None,None,614.1886538240069,None,3,0,0.7553079680074006,614.1886538240069,None,614.9358721194876,None,None,None,None,,12,001,2023_Jan_19_1552,searchDisc5,2021.2.3,60.004936606701264,
images/exp1b_trial_225_colour1_distractors4_r.png,r,3,1,4,1,,,,,0,188,188,188,,,,,,,,,,,,,,,,,,,,,,,,,,,,,,,,,,,,,,,,,,,614.9531961159955,None,2,0.44075302200508304,614.9531961159955,None,,,,,,,,,,,,,,,,None,None,None,,None,None,615.4369150369894,None,3,1,0.9365919030096848,615.4369150369894,None,616.3700076714886,None,None,None,None,,12,001,2023_Jan_19_1552,searchDisc5,2021.2.3,60.004936606701264,
images/exp1b_trial_159_colour0_distractors0_l.png,l,1,0,0,1,,,,,0,189,189,189,,,,,,,,,,,,,,,,,,,,,,,,,,,,,,,,,,,,,,,,,,,616.3865968799801,None,2,0.35393704200396314,616.3865968799801,None,,,,,,,,,,,,,,,,None,None,None,,None,None,616.788276072999,None,3,0,0.7734003080113325,616.788276072999,None,617.5533136454906,None,None,None,None,,12,001,2023_Jan_19_1552,searchDisc5,2021.2.3,60.004936606701264,
images/exp1b_trial_307_colour1_distractors31_l.png,l,1,1,31,1,,,,,0,190,190,190,,,,,,,,,,,,,,,,,,,,,,,,,,,,,,,,,,,,,,,,,,,617.5693964670063,None,2,0.32116749600390904,617.5693964670063,None,,,,,,,,,,,,,,,,None,None,None,,None,None,617.9369162689836,None,3,0,0.9191742650000378,617.9369162689836,None,618.8534649304784,None,None,None,None,,12,001,2023_Jan_19_1552,searchDisc5,2021.2.3,60.004936606701264,
images/exp1b_trial_62_colour0_distractors0_r.png,r,3,0,0,1,,,,,0,191,191,191,,,,,,,,,,,,,,,,,,,,,,,,,,,,,,,,,,,,,,,,,,,618.8694385169947,None,2,0.3377787249919493,618.8694385169947,None,,,,,,,,,,,,,,,,None,None,None,,None,None,619.2535737519793,None,1,0,1.2060595680086408,619.2535737519793,None,620.453491405482,None,None,None,None,,12,001,2023_Jan_19_1552,searchDisc5,2021.2.3,60.004936606701264,
images/exp1b_trial_18_colour1_distractors19_l.png,l,1,1,19,1,,,,,0,192,192,192,,,,,,,,,,,,,,,,,,,,,,,,,,,,,,,,,,,,,,,,,,,620.4718826989993,None,2,2.0709926479903515,620.4718826989993,None,,,,,,,,,,,,,,,,None,None,None,,None,None,622.5870298089867,None,1,1,1.3380144620023202,622.5870298089867,None,623.9202109094913,None,None,None,None,,12,001,2023_Jan_19_1552,searchDisc5,2021.2.3,60.004936606701264,
images/exp1b_trial_158_colour0_distractors0_r.png,r,3,0,0,1,,,,,0,193,193,193,,,,,,,,,,,,,,,,,,,,,,,,,,,,,,,,,,,,,,,,,,,623.9361873089802,None,2,0.43812988299760036,623.9361873089802,None,,,,,,,,,,,,,,,,None,None,None,,None,None,624.4223540599924,None,3,1,0.7708681359945331,624.4223540599924,None,625.1869324364961,None,None,None,None,,12,001,2023_Jan_19_1552,searchDisc5,2021.2.3,60.004936606701264,
images/exp1b_trial_85_colour2_distractors4_l.png,l,1,2,4,1,,,,,0,194,194,194,,,,,,,,,,,,,,,,,,,,,,,,,,,,,,,,,,,,,,,,,,,625.2055571379897,None,2,0.423269816004904,625.2055571379897,None,,,,,,,,,,,,,,,,None,None,None,,None,None,625.6702655399858,None,1,1,1.0033366690040566,625.6702655399858,None,626.6702154974773,None,None,None,None,,12,001,2023_Jan_19_1552,searchDisc5,2021.2.3,60.004936606701264,
images/exp1b_trial_65_colour1_distractors4_r.png,r,3,1,4,1,,,,,0,195,195,195,,,,,,,,,,,,,,,,,,,,,,,,,,,,,,,,,,,,,,,,,,,626.6868124789908,None,2,0.3714562019740697,626.6868124789908,None,,,,,,,,,,,,,,,,None,None,None,,None,None,627.1056820009835,None,3,1,0.7886529649840668,627.1056820009835,None,627.8869655504968,None,None,None,None,,12,001,2023_Jan_19_1552,searchDisc5,2021.2.3,60.004936606701264,
images/exp1b_trial_318_colour0_distractors0_r.png,r,3,0,0,1,,,,,0,196,196,196,,,,,,,,,,,,,,,,,,,,,,,,,,,,,,,,,,,,,,,,,,,627.903593933006,None,2,0.3718620400177315,627.903593933006,None,,,,,,,,,,,,,,,,None,None,None,,None,None,628.3205900710018,None,3,1,0.7381271669873968,628.3205900710018,None,629.0529644074995,None,None,None,None,,12,001,2023_Jan_19_1552,searchDisc5,2021.2.3,60.004936606701264,
images/exp1b_trial_80_colour1_distractors4_l.png,l,1,1,4,1,,,,,0,197,197,197,,,,,,,,,,,,,,,,,,,,,,,,,,,,,,,,,,,,,,,,,,,629.071576827002,None,2,0.3550312379957177,629.071576827002,None,,,,,,,,,,,,,,,,None,None,None,,None,None,629.4729486510041,None,1,1,1.4558947540062945,629.4729486510041,None,630.9204293124931,None,None,None,None,,12,001,2023_Jan_19_1552,searchDisc5,2021.2.3,60.004936606701264,
images/exp1b_trial_86_colour2_distractors9_l.png,l,1,2,9,1,,,,,0,198,198,198,,,,,,,,,,,,,,,,,,,,,,,,,,,,,,,,,,,,,,,,,,,630.9365826089925,None,2,0.28781677602091804,630.9365826089925,None,,,,,,,,,,,,,,,,None,None,None,,None,None,631.2702532830008,None,3,0,0.8382497739803512,631.2702532830008,None,632.1038713754824,None,None,None,None,,12,001,2023_Jan_19_1552,searchDisc5,2021.2.3,60.004936606701264,
images/exp1b_trial_149_colour2_distractors4_l.png,l,1,2,4,1,,,,,0,199,199,199,,,,,,,,,,,,,,,,,,,,,,,,,,,,,,,,,,,,,,,,,,,632.1203575769905,None,2,0.8545118290057871,632.1203575769905,None,,,,,,,,,,,,,,,,None,None,None,,None,None,633.0200072099979,None,1,1,1.4384527890069876,633.0200072099979,None,634.4540457395051,None,None,None,None,,12,001,2023_Jan_19_1552,searchDisc5,2021.2.3,60.004936606701264,
images/exp1b_trial_167_colour2_distractors9_r.png,r,3,2,9,1,,,,,0,200,200,200,,,,,,,,,,,,,,,,,,,,,,,,,,,,,,,,,,,,,,,,,,,634.4725283150037,None,2,0.3730635700048879,634.4725283150037,None,,,,,,,,,,,,,,,,None,None,None,,None,None,634.8888989529805,None,3,1,0.9360307050228585,634.8888989529805,None,635.8204272324947,None,None,None,None,,12,001,2023_Jan_19_1552,searchDisc5,2021.2.3,60.004936606701264,
images/exp1b_trial_72_colour2_distractors19_r.png,r,3,2,19,1,,,,,0,201,201,201,,,,,,,,,,,,,,,,,,,,,,,,,,,,,,,,,,,,,,,,,,,635.8389953720034,None,2,0.33761058302479796,635.8389953720034,None,,,,,,,,,,,,,,,,None,None,None,,None,None,636.2229965809966,None,3,1,1.35412593500223,636.2229965809966,None,637.5705219764932,None,None,None,None,,12,001,2023_Jan_19_1552,searchDisc5,2021.2.3,60.004936606701264,
images/exp1b_trial_41_colour2_distractors31_r.png,r,3,2,31,1,,,,,0,202,202,202,,,,,,,,,,,,,,,,,,,,,,,,,,,,,,,,,,,,,,,,,,,637.5888697709888,None,2,0.47336912201717496,637.5888697709888,None,,,,,,,,,,,,,,,,None,None,None,,None,None,638.1056593880057,None,3,1,1.3177619939961005,638.1056593880057,None,639.4204925965023,None,None,None,None,,12,001,2023_Jan_19_1552,searchDisc5,2021.2.3,60.004936606701264,
images/exp1b_trial_115_colour1_distractors31_l.png,l,1,1,31,1,,,,,0,203,203,203,,,,,,,,,,,,,,,,,,,,,,,,,,,,,,,,,,,,,,,,,,,639.4369032539835,None,2,0.3879876940045506,639.4369032539835,None,,,,,,,,,,,,,,,,None,None,None,,None,None,639.8728918579873,None,1,1,0.8195890880015213,639.8728918579873,None,640.6871623344923,None,None,None,None,,12,001,2023_Jan_19_1552,searchDisc5,2021.2.3,60.004936606701264,
images/exp1b_trial_193_colour1_distractors4_r.png,r,3,1,4,1,,,,,0,204,204,204,,,,,,,,,,,,,,,,,,,,,,,,,,,,,,,,,,,,,,,,,,,640.7038698660035,None,2,0.40568271500524133,640.7038698660035,None,,,,,,,,,,,,,,,,None,None,None,,None,None,641.156391114986,None,3,1,0.8194286770012695,641.156391114986,None,641.9703493814886,None,None,None,None,,12,001,2023_Jan_19_1552,searchDisc5,2021.2.3,60.004936606701264,
images/exp1b_trial_22_colour2_distractors9_l.png,l,1,2,9,1,,,,,0,205,205,205,,,,,,,,,,,,,,,,,,,,,,,,,,,,,,,,,,,,,,,,,,,641.9869726210018,None,2,0.3873877830046695,641.9869726210018,None,,,,,,,,,,,,,,,,None,None,None,,None,None,642.4230022989796,None,1,1,1.1051432759850286,642.4230022989796,None,643.5201455764909,None,None,None,None,,12,001,2023_Jan_19_1552,searchDisc5,2021.2.3,60.004936606701264,
images/exp1b_trial_114_colour1_distractors19_l.png,l,1,1,19,1,,,,,0,206,206,206,,,,,,,,,,,,,,,,,,,,,,,,,,,,,,,,,,,,,,,,,,,643.5393620639807,None,2,0.37383087098714896,643.5393620639807,None,,,,,,,,,,,,,,,,None,None,None,,None,None,643.9556722559792,None,1,1,1.1841755809728056,643.9556722559792,None,645.137404792491,None,None,None,None,,12,001,2023_Jan_19_1552,searchDisc5,2021.2.3,60.004936606701264,
images/exp1b_trial_89_colour3_distractors1_l.png,l,1,3,1,1,,,,,0,207,207,207,,,,,,,,,,,,,,,,,,,,,,,,,,,,,,,,,,,,,,,,,,,645.155672125984,None,2,0.520998847001465,645.155672125984,None,,,,,,,,,,,,,,,,None,None,None,,None,None,645.7229746269877,None,3,0,1.7063842799980193,645.7229746269877,None,647.4209640984918,None,None,None,None,,12,001,2023_Jan_19_1552,searchDisc5,2021.2.3,60.004936606701264,
images/exp1b_trial_191_colour0_distractors0_l.png,l,1,0,0,1,,,,,0,208,208,208,,,,,,,,,,,,,,,,,,,,,,,,,,,,,,,,,,,,,,,,,,,647.4373934619944,None,2,0.4738254510157276,647.4373934619944,None,,,,,,,,,,,,,,,,None,None,None,,None,None,647.9563010999991,None,1,1,1.5699807229975704,647.9563010999991,None,649.5208977385046,None,None,None,None,,12,001,2023_Jan_19_1552,searchDisc5,2021.2.3,60.004936606701264,
images/exp1b_trial_214_colour2_distractors9_l.png,l,1,2,9,1,,,,,0,209,209,209,,,,,,,,,,,,,,,,,,,,,,,,,,,,,,,,,,,,,,,,,,,649.537612257991,None,2,0.40415165599551983,649.537612257991,None,,,,,,,,,,,,,,,,None,None,None,,None,None,649.98979366399,None,1,1,0.854645849991357,649.98979366399,None,650.8373109084932,None,None,None,None,,12,001,2023_Jan_19_1552,searchDisc5,2021.2.3,60.004936606701264,
images/exp1b_trial_284_colour3_distractors19_l.png,l,1,3,19,1,,,,,0,210,210,210,,,,,,,,,,,,,,,,,,,,,,,,,,,,,,,,,,,,,,,,,,,650.8555557499931,None,2,0.3716380929981824,650.8555557499931,None,,,,,,,,,,,,,,,,None,None,None,,None,None,651.2731207349862,None,1,1,0.969685733987717,651.2731207349862,None,652.2376947754965,None,None,None,None,,12,001,2023_Jan_19_1552,searchDisc5,2021.2.3,60.004936606701264,
images/exp1b_trial_254_colour0_distractors0_r.png,r,3,0,0,1,,,,,0,211,211,211,,,,,,,,,,,,,,,,,,,,,,,,,,,,,,,,,,,,,,,,,,,652.254268485005,None,2,0.38732100700144656,652.254268485005,None,,,,,,,,,,,,,,,,None,None,None,,None,None,652.6899154160055,None,3,1,0.7247414519952144,652.6899154160055,None,653.4043254904827,None,None,None,None,,12,001,2023_Jan_19_1552,searchDisc5,2021.2.3,60.004936606701264,
images/exp1b_trial_276_colour2_distractors1_l.png,l,1,2,1,1,,,,,0,212,212,212,,,,,,,,,,,,,,,,,,,,,,,,,,,,,,,,,,,,,,,,,,,653.4202833979798,None,2,0.41987344599328935,653.4202833979798,None,,,,,,,,,,,,,,,,None,None,None,,None,None,653.8899230819952,None,1,1,0.956477867992362,653.8899230819952,None,654.8378370534774,None,None,None,None,,12,001,2023_Jan_19_1552,searchDisc5,2021.2.3,60.004936606701264,
images/exp1b_trial_282_colour3_distractors4_l.png,l,1,3,4,1,,,,,0,213,213,213,,,,,,,,,,,,,,,,,,,,,,,,,,,,,,,,,,,,,,,,,,,654.8544519119896,None,2,0.3207235280133318,654.8544519119896,None,,,,,,,,,,,,,,,,None,None,None,,None,None,655.2212361809798,None,1,1,0.9548681679880247,655.2212361809798,None,656.1710273614881,None,None,None,None,,12,001,2023_Jan_19_1552,searchDisc5,2021.2.3,60.004936606701264,
images/exp1b_trial_279_colour2_distractors19_l.png,l,1,2,19,1,,,,,0,214,214,214,,,,,,,,,,,,,,,,,,,,,,,,,,,,,,,,,,,,,,,,,,,656.18763566899,None,2,0.2879632190160919,656.18763566899,None,,,,,,,,,,,,,,,,None,None,None,,None,None,656.5212150689913,None,1,1,1.9880021569842938,656.5212150689913,None,658.504450987486,None,None,None,None,,12,001,2023_Jan_19_1552,searchDisc5,2021.2.3,60.004936606701264,
images/exp1b_trial_295_colour2_distractors9_r.png,r,3,2,9,1,,,,,0,215,215,215,,,,,,,,,,,,,,,,,,,,,,,,,,,,,,,,,,,,,,,,,,,658.5210856960039,None,2,0.3209435559983831,658.5210856960039,None,,,,,,,,,,,,,,,,None,None,None,,None,None,658.8880081929965,None,3,1,0.9048248459876049,658.8880081929965,None,659.7879504044977,None,None,None,None,,12,001,2023_Jan_19_1552,searchDisc5,2021.2.3,60.004936606701264,
images/exp1b_trial_8_colour2_distractors19_r.png,r,3,2,19,1,,,,,0,216,216,216,,,,,,,,,,,,,,,,,,,,,,,,,,,,,,,,,,,,,,,,,,,659.8036785879813,None,2,0.4565923619957175,659.8036785879813,None,,,,,,,,,,,,,,,,None,None,None,,None,None,660.306940238981,None,3,1,1.7519617800135165,660.306940238981,None,662.0544774974842,None,None,None,None,,12,001,2023_Jan_19_1552,searchDisc5,2021.2.3,60.004936606701264,
images/exp1b_trial_162_colour1_distractors9_r.png,r,3,1,9,1,,,,,0,217,217,217,,,,,,,,,,,,,,,,,,,,,,,,,,,,,,,,,,,,,,,,,,,662.0707765709958,None,2,0.40670563900494017,662.0707765709958,None,,,,,,,,,,,,,,,,None,None,None,,None,None,662.5236002529855,None,3,1,1.1187265960033983,662.5236002529855,None,663.637854129498,None,None,None,None,,12,001,2023_Jan_19_1552,searchDisc5,2021.2.3,60.004936606701264,
images/exp1b_trial_251_colour3_distractors9_l.png,l,1,3,9,1,,,,,0,218,218,218,,,,,,,,,,,,,,,,,,,,,,,,,,,,,,,,,,,,,,,,,,,663.6541452879901,None,2,0.3379359539831057,663.6541452879901,None,,,,,,,,,,,,,,,,None,None,None,,None,None,664.0381778659939,None,1,1,1.3042203789809719,664.0381778659939,None,665.3380151064921,None,None,None,None,,12,001,2023_Jan_19_1552,searchDisc5,2021.2.3,60.004936606701264,
images/exp1b_trial_21_colour2_distractors4_l.png,l,1,2,4,1,,,,,0,219,219,219,,,,,,,,,,,,,,,,,,,,,,,,,,,,,,,,,,,,,,,,,,,665.3546289259975,None,2,0.4231263730034698,665.3546289259975,None,,,,,,,,,,,,,,,,None,None,None,,None,None,665.8237531589984,None,1,1,1.0552480129990727,665.8237531589984,None,666.8712975114904,None,None,None,None,,12,001,2023_Jan_19_1552,searchDisc5,2021.2.3,60.004936606701264,
images/exp1b_trial_283_colour3_distractors9_l.png,l,1,3,9,1,,,,,0,220,220,220,,,,,,,,,,,,,,,,,,,,,,,,,,,,,,,,,,,,,,,,,,,666.8878691830032,None,2,0.40287220900063403,666.8878691830032,None,,,,,,,,,,,,,,,,None,None,None,,None,None,667.3398030840035,None,1,1,1.1880072239728179,667.3398030840035,None,668.5216509764869,None,None,None,None,,12,001,2023_Jan_19_1552,searchDisc5,2021.2.3,60.004936606701264,
images/exp1b_trial_136_colour2_distractors19_r.png,r,3,2,19,1,,,,,0,221,221,221,,,,,,,,,,,,,,,,,,,,,,,,,,,,,,,,,,,,,,,,,,,668.5402614570048,None,2,0.4063519540068228,668.5402614570048,None,,,,,,,,,,,,,,,,None,None,None,,None,None,668.9904378200008,None,3,1,0.769076329015661,668.9904378200008,None,669.7549626084947,None,None,None,None,,12,001,2023_Jan_19_1552,searchDisc5,2021.2.3,60.004936606701264,
images/exp1b_trial_4_colour1_distractors31_r.png,r,3,1,31,1,,,,,0,222,222,222,,,,,,,,,,,,,,,,,,,,,,,,,,,,,,,,,,,,,,,,,,,669.7739062430046,None,2,0.38933587199426256,669.7739062430046,None,,,,,,,,,,,,,,,,None,None,None,,None,None,670.2064894209907,None,3,1,1.685162901005242,670.2064894209907,None,671.8881674315053,None,None,None,None,,12,001,2023_Jan_19_1552,searchDisc5,2021.2.3,60.004936606701264,
images/exp1b_trial_184_colour2_distractors31_l.png,l,1,2,31,1,,,,,0,223,223,223,,,,,,,,,,,,,,,,,,,,,,,,,,,,,,,,,,,,,,,,,,,671.9066194689949,None,2,0.3878814310010057,671.9066194689949,None,,,,,,,,,,,,,,,,None,None,None,,None,None,672.3403932859947,None,1,1,0.9843282109941356,672.3403932859947,None,673.3209448484849,None,None,None,None,,12,001,2023_Jan_19_1552,searchDisc5,2021.2.3,60.004936606701264,
images/exp1b_trial_306_colour1_distractors19_l.png,l,1,1,19,1,,,,,0,224,224,224,,,,,,,,,,,,,,,,,,,,,,,,,,,,,,,,,,,,,,,,,,,673.3379757369985,None,2,0.3718520410184283,673.3379757369985,None,,,,,,,,,,,,,,,,None,None,None,,None,None,673.7570352040057,None,1,1,1.2699502379982732,673.7570352040057,None,675.0216423634993,None,None,None,None,,12,001,2023_Jan_19_1552,searchDisc5,2021.2.3,60.004936606701264,
