ImageFile,targ_side,correctAnswer,colour,distNo,targetType,trials_2.thisRepN,trials_2.thisTrialN,trials_2.thisN,trials_2.thisIndex,trials.thisRepN,trials.thisTrialN,trials.thisN,trials.thisIndex,text_6.started,text_6.stopped,buttonBox.keys,buttonBox.rt,buttonBox.started,buttonBox.stopped,text_7.started,text_7.stopped,buttonBox_3.keys,buttonBox_3.rt,buttonBox_3.started,buttonBox_3.stopped,text_8.started,text_8.stopped,buttonBox_4.keys,buttonBox_4.rt,buttonBox_4.started,buttonBox_4.stopped,text_9.started,text_9.stopped,buttonBox_5.keys,buttonBox_5.rt,buttonBox_5.started,buttonBox_5.stopped,text_2.started,text_2.stopped,buttonBox_6.keys,buttonBox_6.rt,buttonBox_6.started,buttonBox_6.stopped,text_5.started,text_5.stopped,buttonBox_7.keys,buttonBox_7.rt,image_2.started,image_2.stopped,image_3.started,image_3.stopped,buttonBox_8.keys,buttonBox_8.rt,buttonBox_8.started,buttonBox_8.stopped,polygon.started,polygon.stopped,buttonBox_9.keys,buttonBox_9.rt,buttonBox_9.started,buttonBox_9.stopped,image.started,image.stopped,buttonBox_10.keys,buttonBox_10.corr,buttonBox_10.rt,buttonBox_10.started,buttonBox_10.stopped,text_4.started,text_4.stopped,text.started,text.stopped,buttonBox_11.keys,buttonBox_11.rt,buttonBox_11.started,buttonBox_11.stopped,targetTypeInstruction.started,targetTypeInstruction.stopped,buttonBox_2.keys,buttonBox_2.rt,buttonBox_2.started,buttonBox_2.stopped,dispStimuli.started,dispStimuli.stopped,buttonBox_12.keys,buttonBox_12.corr,buttonBox_12.rt,buttonBox_12.started,buttonBox_12.stopped,breakMessage.started,breakMessage.stopped,buttonBox_13.keys,buttonBox_13.started,buttonBox_13.stopped,buttonBox_13.rt,participant,session,date,expName,psychopyVersion,frameRate,
,,,,,,,,,,,,,,31.574120637989836,None,2,124.41794019000372,31.574120637989836,None,,,,,,,,,,,,,,,,,,,,,,,,,,,,,,,,,,,,,,,,,,,,,,,,,,,,,,,,,,,,,,,,,,,,,,,,,,,,,15,001,2023_Jan_20_1246,searchDisc5,2021.2.3,59.990877071066365,
,,,,,,,,,,,,,,,,,,,,155.99175951900543,None,2,15.71675184299238,155.99175951900543,None,,,,,,,,,,,,,,,,,,,,,,,,,,,,,,,,,,,,,,,,,,,,,,,,,,,,,,,,,,,,,,,,,,,,,,,15,001,2023_Jan_20_1246,searchDisc5,2021.2.3,59.990877071066365,
,,,,,,,,,,,,,,,,,,,,,,,,,,171.71091883198824,None,2,10.097985509986756,171.71091883198824,None,,,,,,,,,,,,,,,,,,,,,,,,,,,,,,,,,,,,,,,,,,,,,,,,,,,,,,,,,,,,,,,,,15,001,2023_Jan_20_1246,searchDisc5,2021.2.3,59.990877071066365,
,,,,,,,,,,,,,,,,,,,,,,,,,,,,,,,,181.8112212989945,None,2,4.529092757002218,181.8112212989945,None,,,,,,,,,,,,,,,,,,,,,,,,,,,,,,,,,,,,,,,,,,,,,,,,,,,,,,,,,,,15,001,2023_Jan_20_1246,searchDisc5,2021.2.3,59.990877071066365,
,,,,,,,,,,,,,,,,,,,,,,,,,,,,,,,,,,,,,,186.3447693969938,None,2,14.61520403198665,187.3279941289802,None,,,,,,,,,,,,,,,,,,,,,,,,,,,,,,,,,,,,,,,,,,,,,,,,,,,,,15,001,2023_Jan_20_1246,searchDisc5,2021.2.3,59.990877071066365,
,,,,,,,,,,,,,,,,,,,,,,,,,,,,,,,,,,,,,,,,,,,,201.94286052600364,None,2,11.798417391983094,,,,,,,,,,,,,,,,,,,,,,,,,,,,,,,,,,,,,,,,,,,,,,,,,15,001,2023_Jan_20_1246,searchDisc5,2021.2.3,59.990877071066365,
,,,,,,,,,,,,,,,,,,,,,,,,,,,,,,,,,,,,,,,,,,,,,,,,216.74344573699636,None,216.74344573699636,None,2,8.514464302978013,216.74344573699636,None,,,,,,,,,,,,,,,,,,,,,,,,,,,,,,,,,,,,,,,,,15,001,2023_Jan_20_1246,searchDisc5,2021.2.3,59.990877071066365,
Practice arrays/exp1a_trial_10_colour3_distractors1_r.png,r,3,,,,0,0,0,4,,,,,,,,,,,,,,,,,,,,,,,,,,,,,,,,,,,,,,,,,,,,,,,225.276355709997,None,2,10.238295060000382,225.276355709997,None,235.57723356300266,None,3,1,1.4901549149944913,235.57723356300266,None,237.06057130597765,None,,,,,,,,,,,,,,,,,,,,,,,,,,15,001,2023_Jan_20_1246,searchDisc5,2021.2.3,59.990877071066365,
Practice arrays/exp1a_trial_27_colour3_distractors9_l.png,l,1,,,,0,1,1,12,,,,,,,,,,,,,,,,,,,,,,,,,,,,,,,,,,,,,,,,,,,,,,,239.06275276400265,None,2,3.4804463050095364,239.06275276400265,None,242.59630388297956,None,1,1,2.304473672993481,242.59630388297956,None,244.89397062099306,None,,,,,,,,,,,,,,,,,,,,,,,,,,15,001,2023_Jan_20_1246,searchDisc5,2021.2.3,59.990877071066365,
Practice arrays/exp1a_trial_23_colour2_distractors19_l.png,l,1,,,,0,2,2,10,,,,,,,,,,,,,,,,,,,,,,,,,,,,,,,,,,,,,,,,,,,,,,,246.89633226400474,None,2,2.7814152899954934,246.89633226400474,None,249.72778857598314,None,3,0,3.1488276179879904,249.72778857598314,None,252.87730294300127,None,,,,,,,,,,,,,,,,,,,,,,,,,,15,001,2023_Jan_20_1246,searchDisc5,2021.2.3,59.990877071066365,
Practice arrays/exp1a_trial_16_colour1_distractors4_l.png,l,1,,,,0,3,3,13,,,,,,,,,,,,,,,,,,,,,,,,,,,,,,,,,,,,,,,,,,,,,,,254.8797636779782,None,2,0.9803802350070328,254.8797636779782,None,255.91152723200503,None,1,1,1.271471186017152,255.91152723200503,None,257.17800186100067,None,,,,,,,,,,,,,,,,,,,,,,,,,,15,001,2023_Jan_20_1246,searchDisc5,2021.2.3,59.990877071066365,
Practice arrays/exp1a_trial_7_colour2_distractors9_r.png,r,3,,,,0,4,4,2,,,,,,,,,,,,,,,,,,,,,,,,,,,,,,,,,,,,,,,,,,,,,,,259.1798574819986,None,2,0.780960600997787,259.1798574819986,None,260.01145016099326,None,3,1,0.8542472400004044,260.01145016099326,None,260.86136287500267,None,,,,,,,,,,,,,,,,,,,,,,,,,,15,001,2023_Jan_20_1246,searchDisc5,2021.2.3,59.990877071066365,
Practice arrays/exp1a_trial_30_colour0_distractors0_r.png,r,3,,,,0,5,5,14,,,,,,,,,,,,,,,,,,,,,,,,,,,,,,,,,,,,,,,,,,,,,,,262.86302331800107,None,2,0.4632351420004852,262.86302331800107,None,263.37811996098026,None,3,1,0.6236609870102257,263.37811996098026,None,263.99466885300353,None,,,,,,,,,,,,,,,,,,,,,,,,,,15,001,2023_Jan_20_1246,searchDisc5,2021.2.3,59.990877071066365,
Practice arrays/exp1a_trial_1_colour1_distractors4_r.png,r,3,,,,0,6,6,1,,,,,,,,,,,,,,,,,,,,,,,,,,,,,,,,,,,,,,,,,,,,,,,265.9966435940005,None,2,0.5806535090086982,265.9966435940005,None,266.6280696009926,None,3,1,0.9709496750147082,266.6280696009926,None,267.59460396599025,None,,,,,,,,,,,,,,,,,,,,,,,,,,15,001,2023_Jan_20_1246,searchDisc5,2021.2.3,59.990877071066365,
Practice arrays/exp1a_trial_8_colour2_distractors19_r.png,r,3,,,,0,7,7,3,,,,,,,,,,,,,,,,,,,,,,,,,,,,,,,,,,,,,,,,,,,,,,,269.59661090100417,None,2,0.5158103099965956,269.59661090100417,None,270.16394874299294,None,3,1,1.066408291022526,270.16394874299294,None,271.22818178200396,None,,,,,,,,,,,,,,,,,,,,,,,,,,15,001,2023_Jan_20_1246,searchDisc5,2021.2.3,59.990877071066365,
Practice arrays/exp1a_trial_21_colour2_distractors4_l.png,l,1,,,,0,8,8,9,,,,,,,,,,,,,,,,,,,,,,,,,,,,,,,,,,,,,,,,,,,,,,,273.2303622479958,None,2,0.4817161820246838,273.2303622479958,None,273.76386999498936,None,1,1,0.7686275780142751,273.76386999498936,None,274.5283982339897,None,,,,,,,,,,,,,,,,,,,,,,,,,,15,001,2023_Jan_20_1246,searchDisc5,2021.2.3,59.990877071066365,
Practice arrays/exp1a_trial_17_colour1_distractors9_l.png,l,1,,,,0,9,9,7,,,,,,,,,,,,,,,,,,,,,,,,,,,,,,,,,,,,,,,,,,,,,,,276.5298762389866,None,2,0.4638264020031784,276.5298762389866,None,277.04527939198306,None,1,1,1.1203577299893368,277.04527939198306,None,278.16159306900227,None,,,,,,,,,,,,,,,,,,,,,,,,,,15,001,2023_Jan_20_1246,searchDisc5,2021.2.3,59.990877071066365,
Practice arrays/exp1a_trial_31_colour0_distractors0_l.png,l,1,,,,0,10,10,15,,,,,,,,,,,,,,,,,,,,,,,,,,,,,,,,,,,,,,,,,,,,,,,280.16348157598986,None,2,0.39725893302238546,280.16348157598986,None,280.6120104889851,None,1,1,0.6898315520083997,280.6120104889851,None,281.2951593489852,None,,,,,,,,,,,,,,,,,,,,,,,,,,15,001,2023_Jan_20_1246,searchDisc5,2021.2.3,59.990877071066365,
Practice arrays/exp1a_trial_25_colour3_distractors1_l.png,l,1,,,,0,11,11,11,,,,,,,,,,,,,,,,,,,,,,,,,,,,,,,,,,,,,,,,,,,,,,,283.29703949097893,None,2,0.5636096349917352,283.29703949097893,None,283.91199888600386,None,1,1,0.8699865049857181,283.91199888600386,None,284.7784990289947,None,,,,,,,,,,,,,,,,,,,,,,,,,,15,001,2023_Jan_20_1246,searchDisc5,2021.2.3,59.990877071066365,
Practice arrays/exp1a_trial_18_colour1_distractors19_l.png,l,1,,,,0,12,12,8,,,,,,,,,,,,,,,,,,,,,,,,,,,,,,,,,,,,,,,,,,,,,,,286.78027117598685,None,2,0.44812542299041525,286.78027117598685,None,287.28102630298235,None,1,1,1.2511874210031237,287.28102630298235,None,288.5285833340022,None,,,,,,,,,,,,,,,,,,,,,,,,,,15,001,2023_Jan_20_1246,searchDisc5,2021.2.3,59.990877071066365,
Practice arrays/exp1a_trial_14_colour3_distractors31_r.png,r,3,,,,0,13,13,6,,,,,,,,,,,,,,,,,,,,,,,,,,,,,,,,,,,,,,,,,,,,,,,290.53052124899114,None,2,0.6302669159776997,290.53052124899114,None,291.2120763739804,None,3,1,0.6508535899920389,291.2120763739804,None,291.8620600999857,None,,,,,,,,,,,,,,,,,,,,,,,,,,15,001,2023_Jan_20_1246,searchDisc5,2021.2.3,59.990877071066365,
Practice arrays/exp1a_trial_0_colour1_distractors1_r.png,r,3,,,,0,14,14,0,,,,,,,,,,,,,,,,,,,,,,,,,,,,,,,,,,,,,,,,,,,,,,,293.8642927699839,None,2,0.38316132698673755,293.8642927699839,None,294.2956599839963,None,3,1,1.0693940540077165,294.2956599839963,None,295.36210993799614,None,,,,,,,,,,,,,,,,,,,,,,,,,,15,001,2023_Jan_20_1246,searchDisc5,2021.2.3,59.990877071066365,
Practice arrays/exp1a_trial_12_colour3_distractors9_r.png,r,3,,,,0,15,15,5,,,,,,,,,,,,,,,,,,,,,,,,,,,,,,,,,,,,,,,,,,,,,,,297.3637794039969,None,2,0.46383752100518905,297.3637794039969,None,297.88065419500344,None,3,1,0.6848208839946892,297.88065419500344,None,298.5622848769999,None,,,,,,,,,,,,,,,,,,,,,,,,,,15,001,2023_Jan_20_1246,searchDisc5,2021.2.3,59.990877071066365,
,,,,,,,,,,,,,,,,,,,,,,,,,,,,,,,,,,,,,,,,,,,,,,,,,,,,,,,,,,,,,,,,,,,,,,,300.64766615000553,None,2,9.765372020978248,301.63110666399007,None,,,,,,,,,,,,,,,,,,,,15,001,2023_Jan_20_1246,searchDisc5,2021.2.3,59.990877071066365,
images/exp2a_trial_257_colour1_distractors4_r.png,r,3,1,4,0,,,,,0,0,0,0,,,,,,,,,,,,,,,,,,,,,,,,,,,,,,,,,,,,,,,,,,,325.3124356989865,None,2,3.495622993010329,325.3124356989865,None,,,,,,,,,,,,,,,,311.98126503798994,None,2,11.333823963010218,313.9812002010003,None,328.87269197398564,None,3,1,0.8300424659973942,328.87269197398564,None,329.7135678809834,None,None,None,None,,15,001,2023_Jan_20_1246,searchDisc5,2021.2.3,59.990877071066365,
images/exp2c_trial_229_colour2_distractors1_r.png,r,3,2,1,0,,,,,0,1,1,1,,,,,,,,,,,,,,,,,,,,,,,,,,,,,,,,,,,,,,,,,,,329.7315369709977,None,2,0.672034857008839,329.7315369709977,None,,,,,,,,,,,,,,,,None,None,None,,None,None,330.446467664995,None,3,1,0.68688607000513,330.446467664995,None,331.1298707939917,None,None,None,None,,15,001,2023_Jan_20_1246,searchDisc5,2021.2.3,59.990877071066365,
images/exp1a_trial_288_colour1_distractors1_r.png,r,3,1,1,0,,,,,0,2,2,2,,,,,,,,,,,,,,,,,,,,,,,,,,,,,,,,,,,,,,,,,,,331.1484899079951,None,2,0.5560335270129144,331.1484899079951,None,,,,,,,,,,,,,,,,None,None,None,,None,None,331.7483807950048,None,3,1,0.6033963940280955,331.7483807950048,None,332.34670070099526,None,None,None,None,,15,001,2023_Jan_20_1246,searchDisc5,2021.2.3,59.990877071066365,
images/exp2a_trial_285_colour3_distractors31_l.png,l,1,3,31,0,,,,,0,3,3,3,,,,,,,,,,,,,,,,,,,,,,,,,,,,,,,,,,,,,,,,,,,332.36458875099197,None,2,0.4545512829790823,332.36458875099197,None,,,,,,,,,,,,,,,,None,None,None,,None,None,332.863290623005,None,1,1,0.9193412770109717,332.863290623005,None,333.78005859198163,None,None,None,None,,15,001,2023_Jan_20_1246,searchDisc5,2021.2.3,59.990877071066365,
images/exp2b_trial_82_colour1_distractors19_l.png,l,1,1,19,0,,,,,0,4,4,4,,,,,,,,,,,,,,,,,,,,,,,,,,,,,,,,,,,,,,,,,,,333.7981214269821,None,2,0.9389249310188461,333.7981214269821,None,,,,,,,,,,,,,,,,None,None,None,,None,None,334.77950988098746,None,1,1,0.7515031450020615,334.77950988098746,None,335.529999540979,None,None,None,None,,15,001,2023_Jan_20_1246,searchDisc5,2021.2.3,59.990877071066365,
images/exp2b_trial_318_colour0_distractors0_r.png,r,3,0,0,0,,,,,0,5,5,5,,,,,,,,,,,,,,,,,,,,,,,,,,,,,,,,,,,,,,,,,,,335.5463984480011,None,2,0.3705383480119053,335.5463984480011,None,,,,,,,,,,,,,,,,None,None,None,,None,None,335.96517548698466,None,3,1,0.5414836260024458,335.96517548698466,None,336.49666749997994,None,None,None,None,,15,001,2023_Jan_20_1246,searchDisc5,2021.2.3,59.990877071066365,
images/exp2a_trial_84_colour2_distractors1_l.png,l,1,2,1,0,,,,,0,6,6,6,,,,,,,,,,,,,,,,,,,,,,,,,,,,,,,,,,,,,,,,,,,336.5147612479923,None,2,0.39020835698465817,336.5147612479923,None,,,,,,,,,,,,,,,,None,None,None,,None,None,336.9484394869942,None,1,1,0.8856130770000163,336.9484394869942,None,337.8301608499954,None,None,None,None,,15,001,2023_Jan_20_1246,searchDisc5,2021.2.3,59.990877071066365,
images/exp1a_trial_38_colour2_distractors4_r.png,r,3,2,4,0,,,,,0,7,7,7,,,,,,,,,,,,,,,,,,,,,,,,,,,,,,,,,,,,,,,,,,,337.84664447800606,None,2,0.3707610070123337,337.84664447800606,None,,,,,,,,,,,,,,,,None,None,None,,None,None,338.26360861200374,None,3,1,0.6554420680040494,338.26360861200374,None,338.91342254100016,None,None,None,None,,15,001,2023_Jan_20_1246,searchDisc5,2021.2.3,59.990877071066365,
images/exp2b_trial_179_colour1_distractors31_l.png,l,1,1,31,0,,,,,0,8,8,8,,,,,,,,,,,,,,,,,,,,,,,,,,,,,,,,,,,,,,,,,,,338.9299346539774,None,2,0.3721660670125857,338.9299346539774,None,,,,,,,,,,,,,,,,None,None,None,,None,None,339.34658018298796,None,1,1,1.7824707399995532,339.34658018298796,None,341.12980956899116,None,None,None,None,,15,001,2023_Jan_20_1246,searchDisc5,2021.2.3,59.990877071066365,
images/exp2b_trial_208_colour1_distractors4_l.png,l,1,1,4,0,,,,,0,9,9,9,,,,,,,,,,,,,,,,,,,,,,,,,,,,,,,,,,,,,,,,,,,341.1467390919861,None,2,0.3727657310082577,341.1467390919861,None,,,,,,,,,,,,,,,,None,None,None,,None,None,341.56309903998044,None,1,1,0.7206302550039254,341.56309903998044,None,342.28029940699923,None,None,None,None,,15,001,2023_Jan_20_1246,searchDisc5,2021.2.3,59.990877071066365,
images/exp2a_trial_13_colour3_distractors19_r.png,r,3,3,19,0,,,,,0,10,10,10,,,,,,,,,,,,,,,,,,,,,,,,,,,,,,,,,,,,,,,,,,,342.296682819986,None,2,0.3376725260168314,342.296682819986,None,,,,,,,,,,,,,,,,None,None,None,,None,None,342.6803301679902,None,3,1,0.6205025969829876,342.6803301679902,None,343.2969489019946,None,None,None,None,,15,001,2023_Jan_20_1246,searchDisc5,2021.2.3,59.990877071066365,
images/exp2b_trial_126_colour0_distractors0_r.png,r,3,0,0,0,,,,,0,11,11,11,,,,,,,,,,,,,,,,,,,,,,,,,,,,,,,,,,,,,,,,,,,343.3133225539932,None,2,0.38757583498954773,343.3133225539932,None,,,,,,,,,,,,,,,,None,None,None,,None,None,343.74634556498495,None,3,1,0.5397659520094749,343.74634556498495,None,344.2803354410047,None,None,None,None,,15,001,2023_Jan_20_1246,searchDisc5,2021.2.3,59.990877071066365,
images/exp2c_trial_288_colour1_distractors1_r.png,r,3,1,1,0,,,,,0,12,12,12,,,,,,,,,,,,,,,,,,,,,,,,,,,,,,,,,,,,,,,,,,,344.2984360260016,None,2,0.3898587030125782,344.2984360260016,None,,,,,,,,,,,,,,,,None,None,None,,None,None,344.7318938919925,None,3,1,0.4876536439987831,344.7318938919925,None,345.21367203398256,None,None,None,None,,15,001,2023_Jan_20_1246,searchDisc5,2021.2.3,59.990877071066365,
images/exp2b_trial_158_colour0_distractors0_r.png,r,3,0,0,0,,,,,0,13,13,13,,,,,,,,,,,,,,,,,,,,,,,,,,,,,,,,,,,,,,,,,,,345.23019055099576,None,2,0.3045116129796952,345.23019055099576,None,,,,,,,,,,,,,,,,None,None,None,,None,None,345.57966290198965,None,3,1,0.5061378999962471,345.57966290198965,None,346.07992596997644,None,None,None,None,,15,001,2023_Jan_20_1246,searchDisc5,2021.2.3,59.990877071066365,
images/exp2b_trial_223_colour0_distractors0_l.png,l,1,0,0,0,,,,,0,14,14,14,,,,,,,,,,,,,,,,,,,,,,,,,,,,,,,,,,,,,,,,,,,346.09634559898404,None,2,0.3045613589929417,346.09634559898404,None,,,,,,,,,,,,,,,,None,None,None,,None,None,346.4464337329846,None,1,1,0.5568300969898701,346.4464337329846,None,346.99704082499954,None,None,None,None,,15,001,2023_Jan_20_1246,searchDisc5,2021.2.3,59.990877071066365,
images/exp2c_trial_161_colour1_distractors4_r.png,r,3,1,4,0,,,,,0,15,15,15,,,,,,,,,,,,,,,,,,,,,,,,,,,,,,,,,,,,,,,,,,,347.0134771379817,None,2,0.2868159049830865,347.0134771379817,None,,,,,,,,,,,,,,,,None,None,None,,None,None,347.3470743049984,None,3,1,0.5065470770059619,347.3470743049984,None,347.84698363699715,None,None,None,None,,15,001,2023_Jan_20_1246,searchDisc5,2021.2.3,59.990877071066365,
images/exp2a_trial_9_colour2_distractors31_r.png,r,3,2,31,0,,,,,0,16,16,16,,,,,,,,,,,,,,,,,,,,,,,,,,,,,,,,,,,,,,,,,,,347.86348432998057,None,2,0.25654155600932427,347.86348432998057,None,,,,,,,,,,,,,,,,None,None,None,,None,None,348.1639584249933,None,3,1,0.694384453992825,348.1639584249933,None,348.863940059999,None,None,None,None,,15,001,2023_Jan_20_1246,searchDisc5,2021.2.3,59.990877071066365,
images/exp2c_trial_38_colour2_distractors4_r.png,r,3,2,4,0,,,,,0,17,17,17,,,,,,,,,,,,,,,,,,,,,,,,,,,,,,,,,,,,,,,,,,,348.88183653799933,None,2,0.2541666130127851,348.88183653799933,None,,,,,,,,,,,,,,,,None,None,None,,None,None,349.1801240469795,None,3,1,0.5182134499773383,349.1801240469795,None,349.6963415730046,None,None,None,None,,15,001,2023_Jan_20_1246,searchDisc5,2021.2.3,59.990877071066365,
images/exp2b_trial_206_colour3_distractors31_r.png,r,3,3,31,0,,,,,0,18,18,18,,,,,,,,,,,,,,,,,,,,,,,,,,,,,,,,,,,,,,,,,,,349.7135135550052,None,2,0.17171090401825495,349.7135135550052,None,,,,,,,,,,,,,,,,None,None,None,,None,None,349.93084450700553,None,3,1,0.6885833090054803,349.93084450700553,None,350.6138166219811,None,None,None,None,,15,001,2023_Jan_20_1246,searchDisc5,2021.2.3,59.990877071066365,
images/exp1a_trial_223_colour0_distractors0_l.png,l,1,0,0,0,,,,,0,19,19,19,,,,,,,,,,,,,,,,,,,,,,,,,,,,,,,,,,,,,,,,,,,350.63039572999696,None,2,0.18658662398229353,350.63039572999696,None,,,,,,,,,,,,,,,,None,None,None,,None,None,350.86572379799327,None,1,1,0.6401788629882503,350.86572379799327,None,351.4972867539967,None,None,None,None,,15,001,2023_Jan_20_1246,searchDisc5,2021.2.3,59.990877071066365,
images/exp2b_trial_91_colour3_distractors9_l.png,l,1,3,9,0,,,,,0,20,20,20,,,,,,,,,,,,,,,,,,,,,,,,,,,,,,,,,,,,,,,,,,,351.51364569200086,None,2,0.2728339429886546,351.51364569200086,None,,,,,,,,,,,,,,,,None,None,None,,None,None,351.83270925597753,None,1,1,0.7364183639874682,351.83270925597753,None,352.5640003089851,None,None,None,None,,15,001,2023_Jan_20_1246,searchDisc5,2021.2.3,59.990877071066365,
images/exp2b_trial_54_colour2_distractors9_l.png,l,1,2,9,0,,,,,0,21,21,21,,,,,,,,,,,,,,,,,,,,,,,,,,,,,,,,,,,,,,,,,,,352.580131589988,None,2,0.22261345401057042,352.580131589988,None,,,,,,,,,,,,,,,,None,None,None,,None,None,352.84928159200354,None,1,1,0.5211321240058169,352.84928159200354,None,353.363901769981,None,None,None,None,,15,001,2023_Jan_20_1246,searchDisc5,2021.2.3,59.990877071066365,
images/exp1a_trial_60_colour3_distractors19_l.png,l,1,3,19,0,,,,,0,22,22,22,,,,,,,,,,,,,,,,,,,,,,,,,,,,,,,,,,,,,,,,,,,353.38199136499316,None,2,0.23774251801660284,353.38199136499316,None,,,,,,,,,,,,,,,,None,None,None,,None,None,353.6641800189973,None,1,1,0.699065505003091,353.6641800189973,None,354.3639419959858,None,None,None,None,,15,001,2023_Jan_20_1246,searchDisc5,2021.2.3,59.990877071066365,
images/exp2b_trial_148_colour2_distractors1_l.png,l,1,2,1,0,,,,,0,23,23,23,,,,,,,,,,,,,,,,,,,,,,,,,,,,,,,,,,,,,,,,,,,354.38029244798236,None,2,0.256342020991724,354.38029244798236,None,,,,,,,,,,,,,,,,None,None,None,,None,None,354.6800443819957,None,1,1,0.5208352570189163,354.6800443819957,None,355.1972258089867,None,None,None,None,,15,001,2023_Jan_20_1246,searchDisc5,2021.2.3,59.990877071066365,
images/exp2b_trial_255_colour0_distractors0_l.png,l,1,0,0,0,,,,,0,24,24,24,,,,,,,,,,,,,,,,,,,,,,,,,,,,,,,,,,,,,,,,,,,355.2133975769975,None,2,0.23788584602880292,355.2133975769975,None,,,,,,,,,,,,,,,,None,None,None,,None,None,355.49739949798095,None,1,1,0.45696623300318606,355.49739949798095,None,355.9473122319963,None,None,None,None,,15,001,2023_Jan_20_1246,searchDisc5,2021.2.3,59.990877071066365,
images/exp2c_trial_204_colour3_distractors9_r.png,r,3,3,9,0,,,,,0,25,25,25,,,,,,,,,,,,,,,,,,,,,,,,,,,,,,,,,,,,,,,,,,,355.9632769289892,None,2,0.1872336090018507,355.9632769289892,None,,,,,,,,,,,,,,,,None,None,None,,None,None,356.1987515609944,None,3,1,0.9877787129953504,356.1987515609944,None,357.1805871229793,None,None,None,None,,15,001,2023_Jan_20_1246,searchDisc5,2021.2.3,59.990877071066365,
images/exp2c_trial_124_colour3_distractors19_l.png,l,1,3,19,0,,,,,0,26,26,26,,,,,,,,,,,,,,,,,,,,,,,,,,,,,,,,,,,,,,,,,,,357.196734475001,None,2,0.2545937320101075,357.196734475001,None,,,,,,,,,,,,,,,,None,None,None,,None,None,357.4973900759942,None,1,1,1.0204083930002525,357.4973900759942,None,358.51411263199986,None,None,None,None,,15,001,2023_Jan_20_1246,searchDisc5,2021.2.3,59.990877071066365,
images/exp2a_trial_311_colour2_distractors19_l.png,l,1,2,19,0,,,,,0,27,27,27,,,,,,,,,,,,,,,,,,,,,,,,,,,,,,,,,,,,,,,,,,,358.53025157598313,None,2,0.35446386100375094,358.53025157598313,None,,,,,,,,,,,,,,,,None,None,None,,None,None,358.93072712398134,None,1,1,1.4835941170167644,358.93072712398134,None,360.4143287539831,None,None,None,None,,15,001,2023_Jan_20_1246,searchDisc5,2021.2.3,59.990877071066365,
images/exp2b_trial_176_colour1_distractors4_l.png,l,1,1,4,0,,,,,0,28,28,28,,,,,,,,,,,,,,,,,,,,,,,,,,,,,,,,,,,,,,,,,,,360.43042770799366,None,2,0.30412123500718735,360.43042770799366,None,,,,,,,,,,,,,,,,None,None,None,,None,None,360.78076784699806,None,1,1,0.6539333219989203,360.78076784699806,None,361.4309691969887,None,None,None,None,,15,001,2023_Jan_20_1246,searchDisc5,2021.2.3,59.990877071066365,
images/exp2b_trial_135_colour2_distractors9_r.png,r,3,2,9,0,,,,,0,29,29,29,,,,,,,,,,,,,,,,,,,,,,,,,,,,,,,,,,,,,,,,,,,361.4469699979818,None,2,0.2064016780059319,361.4469699979818,None,,,,,,,,,,,,,,,,None,None,None,,None,None,361.6992445499927,None,3,1,0.6687803429958876,361.6992445499927,None,362.3634951780026,None,None,None,None,,15,001,2023_Jan_20_1246,searchDisc5,2021.2.3,59.990877071066365,
images/exp2c_trial_89_colour3_distractors1_l.png,l,1,3,1,0,,,,,0,30,30,30,,,,,,,,,,,,,,,,,,,,,,,,,,,,,,,,,,,,,,,,,,,362.38054848098545,None,2,0.20630308301770128,362.38054848098545,None,,,,,,,,,,,,,,,,None,None,None,,None,None,362.63294004500494,None,1,1,0.7882621479802765,362.63294004500494,None,363.41436845699207,None,None,None,None,,15,001,2023_Jan_20_1246,searchDisc5,2021.2.3,59.990877071066365,
images/exp2c_trial_49_colour1_distractors9_l.png,l,1,1,9,0,,,,,0,31,31,31,,,,,,,,,,,,,,,,,,,,,,,,,,,,,,,,,,,,,,,,,,,363.43062795800506,None,2,0.8731903519947082,363.43062795800506,None,,,,,,,,,,,,,,,,None,None,None,,None,None,364.34772193498793,None,1,1,0.7704887480067555,364.34772193498793,None,365.11431894198756,None,None,None,None,,15,001,2023_Jan_20_1246,searchDisc5,2021.2.3,59.990877071066365,
images/exp2a_trial_65_colour1_distractors4_r.png,r,3,1,4,0,,,,,0,32,32,32,,,,,,,,,,,,,,,,,,,,,,,,,,,,,,,,,,,,,,,,,,,365.13070628399146,None,2,0.23718593499506824,365.13070628399146,None,,,,,,,,,,,,,,,,None,None,None,,None,None,365.4145010569773,None,3,1,0.5732584760116879,365.4145010569773,None,365.98092079000196,None,None,None,None,,15,001,2023_Jan_20_1246,searchDisc5,2021.2.3,59.990877071066365,
images/exp2b_trial_184_colour2_distractors31_l.png,l,1,2,31,0,,,,,0,33,33,33,,,,,,,,,,,,,,,,,,,,,,,,,,,,,,,,,,,,,,,,,,,365.9970812779793,None,2,0.1884570980037097,365.9970812779793,None,,,,,,,,,,,,,,,,None,None,None,,None,None,366.2329690619954,None,1,1,1.3353128739981912,366.2329690619954,None,367.5644210349768,None,None,None,None,,15,001,2023_Jan_20_1246,searchDisc5,2021.2.3,59.990877071066365,
images/exp2c_trial_199_colour2_distractors9_r.png,r,3,2,9,0,,,,,0,34,34,34,,,,,,,,,,,,,,,,,,,,,,,,,,,,,,,,,,,,,,,,,,,367.58072187699145,None,2,0.13748570400639437,367.58072187699145,None,,,,,,,,,,,,,,,,None,None,None,,None,None,367.76567672699457,None,3,1,0.8050121270061936,367.76567672699457,None,368.56449704099794,None,None,None,None,,15,001,2023_Jan_20_1246,searchDisc5,2021.2.3,59.990877071066365,
images/exp2c_trial_167_colour2_distractors9_r.png,r,3,2,9,0,,,,,0,35,35,35,,,,,,,,,,,,,,,,,,,,,,,,,,,,,,,,,,,,,,,,,,,368.5807414430019,None,2,0.18760646801092662,368.5807414430019,None,,,,,,,,,,,,,,,,None,None,None,,None,None,368.8164021949924,None,3,1,0.7716501319955569,368.8164021949924,None,369.58106263098887,None,None,None,None,,15,001,2023_Jan_20_1246,searchDisc5,2021.2.3,59.990877071066365,
images/exp1a_trial_264_colour2_distractors19_r.png,r,3,2,19,0,,,,,0,36,36,36,,,,,,,,,,,,,,,,,,,,,,,,,,,,,,,,,,,,,,,,,,,369.5994481999951,None,2,0.4378956040018238,369.5994481999951,None,,,,,,,,,,,,,,,,None,None,None,,None,None,370.08088116999716,None,3,1,1.3354442589916289,370.08088116999716,None,371.41438029599374,None,None,None,None,,15,001,2023_Jan_20_1246,searchDisc5,2021.2.3,59.990877071066365,
images/exp2a_trial_143_colour1_distractors1_l.png,l,1,1,1,0,,,,,0,37,37,37,,,,,,,,,,,,,,,,,,,,,,,,,,,,,,,,,,,,,,,,,,,371.43104070599657,None,2,0.6044766750128474,371.43104070599657,None,,,,,,,,,,,,,,,,None,None,None,,None,None,372.0811478099786,None,1,1,0.656477193988394,372.0811478099786,None,372.7310478069761,None,None,None,None,,15,001,2023_Jan_20_1246,searchDisc5,2021.2.3,59.990877071066365,
images/exp2c_trial_57_colour3_distractors1_l.png,l,1,3,1,0,,,,,0,38,38,38,,,,,,,,,,,,,,,,,,,,,,,,,,,,,,,,,,,,,,,,,,,372.74735880998196,None,2,0.48760716000106186,372.74735880998196,None,,,,,,,,,,,,,,,,None,None,None,,None,None,373.28049573500175,None,1,1,0.5897844230057672,373.28049573500175,None,373.8644950899819,None,None,None,None,,15,001,2023_Jan_20_1246,searchDisc5,2021.2.3,59.990877071066365,
images/exp2c_trial_163_colour1_distractors19_r.png,r,3,1,19,0,,,,,0,39,39,39,,,,,,,,,,,,,,,,,,,,,,,,,,,,,,,,,,,,,,,,,,,373.88296376299695,None,2,0.654330215009395,373.88296376299695,None,,,,,,,,,,,,,,,,None,None,None,,None,None,374.5814270239789,None,3,1,0.5040297740197275,374.5814270239789,None,375.0810886239982,None,None,None,None,,15,001,2023_Jan_20_1246,searchDisc5,2021.2.3,59.990877071066365,
images/exp1a_trial_298_colour3_distractors1_r.png,r,3,3,1,0,,,,,0,40,40,40,,,,,,,,,,,,,,,,,,,,,,,,,,,,,,,,,,,,,,,,,,,375.0975230879849,None,2,0.45678792300168425,375.0975230879849,None,,,,,,,,,,,,,,,,None,None,None,,None,None,375.5979580739804,None,3,1,0.8038969600165728,375.5979580739804,None,376.3979859500017,None,None,None,None,,15,001,2023_Jan_20_1246,searchDisc5,2021.2.3,59.990877071066365,
images/exp1a_trial_271_colour1_distractors1_l.png,l,1,1,1,0,,,,,0,41,41,41,,,,,,,,,,,,,,,,,,,,,,,,,,,,,,,,,,,,,,,,,,,376.4144236049906,None,2,0.37099369801580906,376.4144236049906,None,,,,,,,,,,,,,,,,None,None,None,,None,None,376.83129047899274,None,1,1,1.7223656619898975,376.83129047899274,None,378.5470969299844,None,None,None,None,,15,001,2023_Jan_20_1246,searchDisc5,2021.2.3,59.990877071066365,
images/exp1a_trial_108_colour3_distractors9_r.png,r,3,3,9,0,,,,,0,42,42,42,,,,,,,,,,,,,,,,,,,,,,,,,,,,,,,,,,,,,,,,,,,378.56654751399765,None,2,0.4232069580175448,378.56654751399765,None,,,,,,,,,,,,,,,,None,None,None,,None,None,379.03083488400443,None,3,1,0.5524414769897703,379.03083488400443,None,379.5812135069922,None,None,None,None,,15,001,2023_Jan_20_1246,searchDisc5,2021.2.3,59.990877071066365,
images/exp2a_trial_26_colour3_distractors4_l.png,l,1,3,4,0,,,,,0,43,43,43,,,,,,,,,,,,,,,,,,,,,,,,,,,,,,,,,,,,,,,,,,,379.59748179197777,None,2,0.27344215198536403,379.59748179197777,None,,,,,,,,,,,,,,,,None,None,None,,None,None,379.91394178097835,None,1,1,0.539303220983129,379.91394178097835,None,380.44812959599074,None,None,None,None,,15,001,2023_Jan_20_1246,searchDisc5,2021.2.3,59.990877071066365,
images/exp2c_trial_141_colour3_distractors19_r.png,r,3,3,19,0,,,,,0,44,44,44,,,,,,,,,,,,,,,,,,,,,,,,,,,,,,,,,,,,,,,,,,,380.4665781669901,None,2,0.21870536997448653,380.4665781669901,None,,,,,,,,,,,,,,,,None,None,None,,None,None,380.73131332799676,None,3,1,0.9540918180136941,380.73131332799676,None,381.68133499398243,None,None,None,None,,15,001,2023_Jan_20_1246,searchDisc5,2021.2.3,59.990877071066365,
images/exp1a_trial_164_colour1_distractors31_r.png,r,3,1,31,0,,,,,0,45,45,45,,,,,,,,,,,,,,,,,,,,,,,,,,,,,,,,,,,,,,,,,,,381.6976408699993,None,2,0.17106344498461112,381.6976408699993,None,,,,,,,,,,,,,,,,None,None,None,,None,None,381.91595060398686,None,3,1,1.4843174059933517,381.91595060398686,None,383.39823379798906,None,None,None,None,,15,001,2023_Jan_20_1246,searchDisc5,2021.2.3,59.990877071066365,
images/exp2a_trial_293_colour2_distractors1_r.png,r,3,2,1,0,,,,,0,46,46,46,,,,,,,,,,,,,,,,,,,,,,,,,,,,,,,,,,,,,,,,,,,383.41434713598574,None,2,0.20430918000056408,383.41434713598574,None,,,,,,,,,,,,,,,,None,None,None,,None,None,383.6668065599806,None,3,1,0.6388574129960034,383.6668065599806,None,384.2980310350016,None,None,None,None,,15,001,2023_Jan_20_1246,searchDisc5,2021.2.3,59.990877071066365,
images/exp2b_trial_273_colour1_distractors9_l.png,l,1,1,9,0,,,,,0,47,47,47,,,,,,,,,,,,,,,,,,,,,,,,,,,,,,,,,,,,,,,,,,,384.31457947799936,None,2,0.187453340011416,384.31457947799936,None,,,,,,,,,,,,,,,,None,None,None,,None,None,384.55008471399196,None,1,1,0.671865935990354,384.55008471399196,None,385.214705954981,None,None,None,None,,15,001,2023_Jan_20_1246,searchDisc5,2021.2.3,59.990877071066365,
images/exp1a_trial_184_colour2_distractors31_l.png,l,1,2,31,0,,,,,0,48,48,48,,,,,,,,,,,,,,,,,,,,,,,,,,,,,,,,,,,,,,,,,,,385.23136292397976,None,2,0.18935853100265376,385.23136292397976,None,,,,,,,,,,,,,,,,None,None,None,,None,None,385.4666539769969,None,1,1,0.7321652210084721,385.4666539769969,None,386.1979100880038,None,None,None,None,,15,001,2023_Jan_20_1246,searchDisc5,2021.2.3,59.990877071066365,
images/exp2c_trial_299_colour3_distractors4_r.png,r,3,3,4,0,,,,,0,49,49,49,,,,,,,,,,,,,,,,,,,,,,,,,,,,,,,,,,,,,,,,,,,386.21471389499493,None,2,0.1713168270071037,386.21471389499493,None,,,,,,,,,,,,,,,,None,None,None,,None,None,386.4334413970064,None,3,1,0.6724489479965996,386.4334413970064,None,387.09799544598206,None,None,None,None,,15,001,2023_Jan_20_1246,searchDisc5,2021.2.3,59.990877071066365,
images/exp1a_trial_70_colour2_distractors4_r.png,r,3,2,4,0,,,,,0,50,50,50,,,,,,,,,,,,,,,,,,,,,,,,,,,,,,,,,,,,,,,,,,,387.11412433200167,None,2,0.1874734300072305,387.11412433200167,None,,,,,,,,,,,,,,,,None,None,None,,None,None,387.3496947279782,None,3,1,0.5890258569852449,387.3496947279782,None,387.93171303597626,None,None,None,None,,15,001,2023_Jan_20_1246,searchDisc5,2021.2.3,59.990877071066365,
images/exp2b_trial_55_colour2_distractors19_l.png,l,1,2,19,0,,,,,0,51,51,51,,,,,,,,,,,,,,,,,,,,,,,,,,,,,,,,,,,,,,,,,,,387.94768995500635,None,2,0.17248217001906596,387.94768995500635,None,,,,,,,,,,,,,,,,None,None,None,,None,None,388.1661915089935,None,1,1,0.554076003987575,388.1661915089935,None,388.71486784899605,None,None,None,None,,15,001,2023_Jan_20_1246,searchDisc5,2021.2.3,59.990877071066365,
images/exp2a_trial_137_colour2_distractors31_r.png,r,3,2,31,0,,,,,0,52,52,52,,,,,,,,,,,,,,,,,,,,,,,,,,,,,,,,,,,,,,,,,,,388.7315872509789,None,2,0.22399279801174998,388.7315872509789,None,,,,,,,,,,,,,,,,None,None,None,,None,None,389.0055878479907,None,3,1,0.8092341640149243,389.0055878479907,None,389.81511139899374,None,None,None,None,,15,001,2023_Jan_20_1246,searchDisc5,2021.2.3,59.990877071066365,
images/exp1a_trial_110_colour3_distractors31_r.png,r,3,3,31,0,,,,,0,53,53,53,,,,,,,,,,,,,,,,,,,,,,,,,,,,,,,,,,,,,,,,,,,389.8316073459864,None,2,0.17070776101900265,389.8316073459864,None,,,,,,,,,,,,,,,,None,None,None,,None,None,390.0500648949819,None,3,1,0.8494664269965142,390.0500648949819,None,390.89768169198067,None,None,None,None,,15,001,2023_Jan_20_1246,searchDisc5,2021.2.3,59.990877071066365,
images/exp2a_trial_5_colour2_distractors1_r.png,r,3,2,1,0,,,,,0,54,54,54,,,,,,,,,,,,,,,,,,,,,,,,,,,,,,,,,,,,,,,,,,,390.9168405669916,None,2,0.17402207100531086,390.9168405669916,None,,,,,,,,,,,,,,,,None,None,None,,None,None,391.1329927939805,None,3,1,0.5697387580003124,391.1329927939805,None,391.6977681100019,None,None,None,None,,15,001,2023_Jan_20_1246,searchDisc5,2021.2.3,59.990877071066365,
images/exp2c_trial_81_colour1_distractors9_l.png,l,1,1,9,0,,,,,0,55,55,55,,,,,,,,,,,,,,,,,,,,,,,,,,,,,,,,,,,,,,,,,,,391.71470712299924,None,2,0.13784627700806595,391.71470712299924,None,,,,,,,,,,,,,,,,None,None,None,,None,None,391.8980923789786,None,1,1,0.6731428400089499,391.8980923789786,None,392.5650259529997,None,None,None,None,,15,001,2023_Jan_20_1246,searchDisc5,2021.2.3,59.990877071066365,
images/exp2a_trial_315_colour3_distractors9_l.png,l,1,3,9,0,,,,,0,56,56,56,,,,,,,,,,,,,,,,,,,,,,,,,,,,,,,,,,,,,,,,,,,392.580743590981,None,2,0.17095727098057978,392.580743590981,None,,,,,,,,,,,,,,,,None,None,None,,None,None,392.79757834700285,None,1,1,0.7213648689794354,392.79757834700285,None,393.51499962900414,None,None,None,None,,15,001,2023_Jan_20_1246,searchDisc5,2021.2.3,59.990877071066365,
images/exp2c_trial_46_colour3_distractors31_r.png,r,3,3,31,0,,,,,0,57,57,57,,,,,,,,,,,,,,,,,,,,,,,,,,,,,,,,,,,,,,,,,,,393.5310717969842,None,2,0.17301231299643405,393.5310717969842,None,,,,,,,,,,,,,,,,None,None,None,,None,None,393.75038265099283,None,3,1,0.8178077480115462,393.75038265099283,None,394.5650517359958,None,None,None,None,,15,001,2023_Jan_20_1246,searchDisc5,2021.2.3,59.990877071066365,
images/exp2c_trial_186_colour3_distractors4_l.png,l,1,3,4,0,,,,,0,58,58,58,,,,,,,,,,,,,,,,,,,,,,,,,,,,,,,,,,,,,,,,,,,394.5814391459862,None,2,0.17136306199245155,394.5814391459862,None,,,,,,,,,,,,,,,,None,None,None,,None,None,394.80069812198053,None,1,1,1.1059165259939618,394.80069812198053,None,395.8984941429866,None,None,None,None,,15,001,2023_Jan_20_1246,searchDisc5,2021.2.3,59.990877071066365,
images/exp2a_trial_152_colour2_distractors31_l.png,l,1,2,31,0,,,,,0,59,59,59,,,,,,,,,,,,,,,,,,,,,,,,,,,,,,,,,,,,,,,,,,,395.9147054310015,None,2,0.4395774500153493,395.9147054310015,None,,,,,,,,,,,,,,,,None,None,None,,None,None,396.3977047840017,None,1,1,0.8930704660015181,396.3977047840017,None,397.2985620669846,None,None,None,None,,15,001,2023_Jan_20_1246,searchDisc5,2021.2.3,59.990877071066365,
images/exp1a_trial_191_colour0_distractors0_l.png,l,1,0,0,0,,,,,0,60,60,60,,,,,,,,,,,,,,,,,,,,,,,,,,,,,,,,,,,,,,,,,,,397.3145069979946,None,2,1.4878089409903623,397.3145069979946,None,,,,,,,,,,,,,,,,None,None,None,,None,None,398.85060044098645,None,1,1,0.6568665680242702,398.85060044098645,None,399.49850162497603,None,None,None,None,,15,001,2023_Jan_20_1246,searchDisc5,2021.2.3,59.990877071066365,
images/exp2a_trial_34_colour1_distractors9_r.png,r,3,1,9,0,,,,,0,61,61,61,,,,,,,,,,,,,,,,,,,,,,,,,,,,,,,,,,,,,,,,,,,399.5150164249935,None,2,0.4228243090037722,399.5150164249935,None,,,,,,,,,,,,,,,,None,None,None,,None,None,399.98378487100126,None,3,1,0.604720825998811,399.98378487100126,None,400.5820268309966,None,None,None,None,,15,001,2023_Jan_20_1246,searchDisc5,2021.2.3,59.990877071066365,
images/exp2b_trial_256_colour1_distractors1_r.png,r,3,1,1,0,,,,,0,62,62,62,,,,,,,,,,,,,,,,,,,,,,,,,,,,,,,,,,,,,,,,,,,400.5998985519982,None,2,0.46864868301781826,400.5998985519982,None,,,,,,,,,,,,,,,,None,None,None,,None,None,401.11528379199444,None,3,1,0.7069925620162394,401.11528379199444,None,401.8150551109924,None,None,None,None,,15,001,2023_Jan_20_1246,searchDisc5,2021.2.3,59.990877071066365,
images/exp2b_trial_120_colour2_distractors31_l.png,l,1,2,31,0,,,,,0,63,63,63,,,,,,,,,,,,,,,,,,,,,,,,,,,,,,,,,,,,,,,,,,,401.83159014600096,None,2,0.3046917070169002,401.83159014600096,None,,,,,,,,,,,,,,,,None,None,None,,None,None,402.1819332999876,None,1,1,0.7369336289993953,402.1819332999876,None,402.91551202900007,None,None,None,None,,15,001,2023_Jan_20_1246,searchDisc5,2021.2.3,59.990877071066365,
images/exp2c_trial_90_colour3_distractors4_l.png,l,1,3,4,0,,,,,0,64,64,64,,,,,,,,,,,,,,,,,,,,,,,,,,,,,,,,,,,,,,,,,,,402.9316240149783,None,2,0.4417235259898007,402.9316240149783,None,,,,,,,,,,,,,,,,None,None,None,,None,None,403.41499897898757,None,1,1,0.5849615350016393,403.41499897898757,None,403.99877645698723,None,None,None,None,,15,001,2023_Jan_20_1246,searchDisc5,2021.2.3,59.990877071066365,
images/exp2c_trial_197_colour2_distractors1_r.png,r,3,2,1,0,,,,,0,65,65,65,,,,,,,,,,,,,,,,,,,,,,,,,,,,,,,,,,,,,,,,,,,404.0151451230049,None,2,0.2717255600146018,404.0151451230049,None,,,,,,,,,,,,,,,,None,None,None,,None,None,404.3319266909966,None,3,1,0.5055628069967497,404.3319266909966,None,404.83197059698284,None,None,None,None,,15,001,2023_Jan_20_1246,searchDisc5,2021.2.3,59.990877071066365,
images/exp1a_trial_180_colour2_distractors1_l.png,l,1,2,1,0,,,,,0,66,66,66,,,,,,,,,,,,,,,,,,,,,,,,,,,,,,,,,,,,,,,,,,,404.850402327982,None,2,0.22092434501973912,404.850402327982,None,,,,,,,,,,,,,,,,None,None,None,,None,None,405.11540687200613,None,1,1,0.7067481340200175,405.11540687200613,None,405.815524993994,None,None,None,None,,15,001,2023_Jan_20_1246,searchDisc5,2021.2.3,59.990877071066365,
images/exp2a_trial_100_colour1_distractors31_r.png,r,3,1,31,0,,,,,0,67,67,67,,,,,,,,,,,,,,,,,,,,,,,,,,,,,,,,,,,,,,,,,,,405.83167513197986,None,2,0.32304794498486444,405.83167513197986,None,,,,,,,,,,,,,,,,None,None,None,,None,None,406.19840690799174,None,3,1,1.350454127008561,406.19840690799174,None,407.54877127698853,None,None,None,None,,15,001,2023_Jan_20_1246,searchDisc5,2021.2.3,59.990877071066365,
images/exp1a_trial_152_colour2_distractors31_l.png,l,1,2,31,0,,,,,0,68,68,68,,,,,,,,,,,,,,,,,,,,,,,,,,,,,,,,,,,,,,,,,,,407.5650645059941,None,2,1.371052189002512,407.5650645059941,None,,,,,,,,,,,,,,,,None,None,None,,None,None,408.98144331399817,None,1,1,0.7507507810078096,408.98144331399817,None,409.73206715298,None,None,None,None,,15,001,2023_Jan_20_1246,searchDisc5,2021.2.3,59.990877071066365,
images/exp2b_trial_38_colour2_distractors4_r.png,r,3,2,4,0,,,,,0,69,69,69,,,,,,,,,,,,,,,,,,,,,,,,,,,,,,,,,,,,,,,,,,,409.74846582100145,None,2,0.6208032529975753,409.74846582100145,None,,,,,,,,,,,,,,,,None,None,None,,None,None,410.41519132599933,None,3,1,0.4565114669967443,410.41519132599933,None,410.86542901897917,None,None,None,None,,15,001,2023_Jan_20_1246,searchDisc5,2021.2.3,59.990877071066365,
images/exp2a_trial_53_colour2_distractors4_l.png,l,1,2,4,0,,,,,0,70,70,70,,,,,,,,,,,,,,,,,,,,,,,,,,,,,,,,,,,,,,,,,,,410.8819948309974,None,2,0.4733544730115682,410.8819948309974,None,,,,,,,,,,,,,,,,None,None,None,,None,None,411.39871615500306,None,1,1,0.5851276610046625,411.39871615500306,None,411.98194817000183,None,None,None,None,,15,001,2023_Jan_20_1246,searchDisc5,2021.2.3,59.990877071066365,
images/exp2c_trial_7_colour2_distractors9_r.png,r,3,2,9,0,,,,,0,71,71,71,,,,,,,,,,,,,,,,,,,,,,,,,,,,,,,,,,,,,,,,,,,411.998574222991,None,2,0.44011746198520996,411.998574222991,None,,,,,,,,,,,,,,,,None,None,None,,None,None,412.48457786798826,None,3,1,0.5194795909919776,412.48457786798826,None,412.9990130009886,None,None,None,None,,15,001,2023_Jan_20_1246,searchDisc5,2021.2.3,59.990877071066365,
images/exp2b_trial_143_colour1_distractors1_l.png,l,1,1,1,0,,,,,0,72,72,72,,,,,,,,,,,,,,,,,,,,,,,,,,,,,,,,,,,,,,,,,,,413.01702031699824,None,2,0.38971481399494223,413.01702031699824,None,,,,,,,,,,,,,,,,None,None,None,,None,None,413.450914608984,None,1,1,0.5057614750112407,413.450914608984,None,413.9489094969816,None,None,None,None,,15,001,2023_Jan_20_1246,searchDisc5,2021.2.3,59.990877071066365,
images/exp2a_trial_282_colour3_distractors4_l.png,l,1,3,4,0,,,,,0,73,73,73,,,,,,,,,,,,,,,,,,,,,,,,,,,,,,,,,,,,,,,,,,,413.9652036089974,None,2,0.38746306201210245,413.9652036089974,None,,,,,,,,,,,,,,,,None,None,None,,None,None,414.40093020998756,None,1,1,0.6058020360069349,414.40093020998756,None,414.9991352300043,None,None,None,None,,15,001,2023_Jan_20_1246,searchDisc5,2021.2.3,59.990877071066365,
images/exp2b_trial_40_colour2_distractors19_r.png,r,3,2,19,0,,,,,0,74,74,74,,,,,,,,,,,,,,,,,,,,,,,,,,,,,,,,,,,,,,,,,,,415.01771856000414,None,2,0.3886580769903958,415.01771856000414,None,,,,,,,,,,,,,,,,None,None,None,,None,None,415.4509201399924,None,3,1,0.5180928249901626,415.4509201399924,None,415.9656071300036,None,None,None,None,,15,001,2023_Jan_20_1246,searchDisc5,2021.2.3,59.990877071066365,
images/exp2c_trial_28_colour3_distractors19_l.png,l,1,3,19,0,,,,,0,75,75,75,,,,,,,,,,,,,,,,,,,,,,,,,,,,,,,,,,,,,,,,,,,415.983924856002,None,2,0.40672441400238313,415.983924856002,None,,,,,,,,,,,,,,,,None,None,None,,None,None,416.4323642999807,None,1,1,1.201270999998087,416.4323642999807,None,417.6317315209948,None,None,None,None,,15,001,2023_Jan_20_1246,searchDisc5,2021.2.3,59.990877071066365,
images/exp1a_trial_54_colour2_distractors9_l.png,l,1,2,9,0,,,,,0,76,76,76,,,,,,,,,,,,,,,,,,,,,,,,,,,,,,,,,,,,,,,,,,,417.6512094339996,None,2,0.39061645200126804,417.6512094339996,None,,,,,,,,,,,,,,,,None,None,None,,None,None,418.08191031299066,None,1,1,0.5016144560067914,418.08191031299066,None,418.5824857399915,None,None,None,None,,15,001,2023_Jan_20_1246,searchDisc5,2021.2.3,59.990877071066365,
images/exp1a_trial_319_colour0_distractors0_l.png,l,1,0,0,0,,,,,0,77,77,77,,,,,,,,,,,,,,,,,,,,,,,,,,,,,,,,,,,,,,,,,,,418.5984226699802,None,2,0.37090505397645757,418.5984226699802,None,,,,,,,,,,,,,,,,None,None,None,,None,None,419.0171137659927,None,1,1,0.43995140597689897,419.0171137659927,None,419.44919701098695,None,None,None,None,,15,001,2023_Jan_20_1246,searchDisc5,2021.2.3,59.990877071066365,
images/exp2b_trial_111_colour1_distractors1_l.png,l,1,1,1,0,,,,,0,78,78,78,,,,,,,,,,,,,,,,,,,,,,,,,,,,,,,,,,,,,,,,,,,419.46541591198184,None,2,0.3376910549995955,419.46541591198184,None,,,,,,,,,,,,,,,,None,None,None,,None,None,419.8487312399957,None,1,1,1.0046186989929993,419.8487312399957,None,420.84938972298403,None,None,None,None,,15,001,2023_Jan_20_1246,searchDisc5,2021.2.3,59.990877071066365,
images/exp2a_trial_52_colour2_distractors1_l.png,l,1,2,1,0,,,,,0,79,79,79,,,,,,,,,,,,,,,,,,,,,,,,,,,,,,,,,,,,,,,,,,,420.8654304269876,None,2,0.5208085250051226,420.8654304269876,None,,,,,,,,,,,,,,,,None,None,None,,None,None,421.43451011599973,None,1,1,0.4562458220170811,421.43451011599973,None,421.8824268349912,None,None,None,None,,15,001,2023_Jan_20_1246,searchDisc5,2021.2.3,59.990877071066365,
images/exp2a_trial_148_colour2_distractors1_l.png,l,1,2,1,0,,,,,0,80,80,80,,,,,,,,,,,,,,,,,,,,,,,,,,,,,,,,,,,,,,,,,,,421.8986035109847,None,2,0.40458943200064823,421.8986035109847,None,,,,,,,,,,,,,,,,None,None,None,,None,None,422.3503740830056,None,1,1,0.5399121889786329,422.3503740830056,None,422.88244992599937,None,None,None,None,,15,001,2023_Jan_20_1246,searchDisc5,2021.2.3,59.990877071066365,
images/exp2b_trial_150_colour2_distractors9_l.png,l,1,2,9,0,,,,,0,81,81,81,,,,,,,,,,,,,,,,,,,,,,,,,,,,,,,,,,,,,,,,,,,422.90101304498967,None,2,0.35394146700855345,422.90101304498967,None,,,,,,,,,,,,,,,,None,None,None,,None,None,423.301370606001,None,1,1,0.5227823400055058,423.301370606001,None,423.8160661649948,None,None,None,None,,15,001,2023_Jan_20_1246,searchDisc5,2021.2.3,59.990877071066365,
images/exp2c_trial_91_colour3_distractors9_l.png,l,1,3,9,0,,,,,0,82,82,82,,,,,,,,,,,,,,,,,,,,,,,,,,,,,,,,,,,,,,,,,,,423.83420487798867,None,2,0.3894913859840017,423.83420487798867,None,,,,,,,,,,,,,,,,None,None,None,,None,None,424.2677172620024,None,1,1,1.2049285870161839,424.2677172620024,None,425.4658905399905,None,None,None,None,,15,001,2023_Jan_20_1246,searchDisc5,2021.2.3,59.990877071066365,
images/exp2b_trial_77_colour3_distractors19_r.png,r,3,3,19,0,,,,,0,83,83,83,,,,,,,,,,,,,,,,,,,,,,,,,,,,,,,,,,,,,,,,,,,425.4817883060023,None,2,0.369265051005641,425.4817883060023,None,,,,,,,,,,,,,,,,None,None,None,,None,None,425.8985282499925,None,3,1,0.5538086029991973,425.8985282499925,None,426.4492018779914,None,None,None,None,,15,001,2023_Jan_20_1246,searchDisc5,2021.2.3,59.990877071066365,
images/exp2b_trial_97_colour1_distractors4_r.png,r,3,1,4,0,,,,,0,84,84,84,,,,,,,,,,,,,,,,,,,,,,,,,,,,,,,,,,,,,,,,,,,426.46772582799895,None,2,0.3210719579947181,426.46772582799895,None,,,,,,,,,,,,,,,,None,None,None,,None,None,426.83245440700557,None,3,1,0.6227665909973439,426.83245440700557,None,427.44939392697995,None,None,None,None,,15,001,2023_Jan_20_1246,searchDisc5,2021.2.3,59.990877071066365,
images/exp1a_trial_282_colour3_distractors4_l.png,l,1,3,4,0,,,,,0,85,85,85,,,,,,,,,,,,,,,,,,,,,,,,,,,,,,,,,,,,,,,,,,,427.46786131098634,None,2,0.33758809498976916,427.46786131098634,None,,,,,,,,,,,,,,,,None,None,None,,None,None,427.85129913999117,None,1,1,0.6052414540026803,427.85129913999117,None,428.44938924498854,None,None,None,None,,15,001,2023_Jan_20_1246,searchDisc5,2021.2.3,59.990877071066365,
images/exp1a_trial_309_colour2_distractors4_l.png,l,1,2,4,0,,,,,0,86,86,86,,,,,,,,,,,,,,,,,,,,,,,,,,,,,,,,,,,,,,,,,,,428.4655389119871,None,2,0.38764720800099894,428.4655389119871,None,,,,,,,,,,,,,,,,None,None,None,,None,None,428.90084494199255,None,1,1,0.5553501200047322,428.90084494199255,None,429.4491675979865,None,None,None,None,,15,001,2023_Jan_20_1246,searchDisc5,2021.2.3,59.990877071066365,
images/exp2c_trial_96_colour1_distractors1_r.png,r,3,1,1,0,,,,,0,87,87,87,,,,,,,,,,,,,,,,,,,,,,,,,,,,,,,,,,,,,,,,,,,429.46543351898436,None,2,0.35533487098291516,429.46543351898436,None,,,,,,,,,,,,,,,,None,None,None,,None,None,429.8653189899924,None,3,1,0.5555339189886581,429.8653189899924,None,430.4160581829841,None,None,None,None,,15,001,2023_Jan_20_1246,searchDisc5,2021.2.3,59.990877071066365,
images/exp2b_trial_46_colour3_distractors31_r.png,r,3,3,31,0,,,,,0,88,88,88,,,,,,,,,,,,,,,,,,,,,,,,,,,,,,,,,,,,,,,,,,,430.43423402198823,None,2,0.33791732499958016,430.43423402198823,None,,,,,,,,,,,,,,,,None,None,None,,None,None,430.8180425129831,None,1,0,0.5532644799968693,430.8180425129831,None,431.36610648598287,None,None,None,None,,15,001,2023_Jan_20_1246,searchDisc5,2021.2.3,59.990877071066365,
images/exp2a_trial_122_colour3_distractors4_l.png,l,1,3,4,0,,,,,0,89,89,89,,,,,,,,,,,,,,,,,,,,,,,,,,,,,,,,,,,,,,,,,,,431.382403984986,None,2,0.7208605000050738,431.382403984986,None,,,,,,,,,,,,,,,,None,None,None,,None,None,432.1496009679977,None,1,1,0.5063813329907134,432.1496009679977,None,432.649513341987,None,None,None,None,,15,001,2023_Jan_20_1246,searchDisc5,2021.2.3,59.990877071066365,
images/exp2c_trial_281_colour3_distractors1_l.png,l,1,3,1,0,,,,,0,90,90,90,,,,,,,,,,,,,,,,,,,,,,,,,,,,,,,,,,,,,,,,,,,432.6658481929917,None,2,0.337704213015968,432.6658481929917,None,,,,,,,,,,,,,,,,None,None,None,,None,None,433.04941327599226,None,1,1,0.9563809109968133,433.04941327599226,None,433.9994032929884,None,None,None,None,,15,001,2023_Jan_20_1246,searchDisc5,2021.2.3,59.990877071066365,
images/exp1a_trial_126_colour0_distractors0_r.png,r,3,0,0,0,,,,,0,91,91,91,,,,,,,,,,,,,,,,,,,,,,,,,,,,,,,,,,,,,,,,,,,434.01775619899854,None,2,0.38967358198715374,434.01775619899854,None,,,,,,,,,,,,,,,,None,None,None,,None,None,434.4514246659819,None,3,1,0.5544529299950227,434.4514246659819,None,434.9995836019865,None,None,None,None,,15,001,2023_Jan_20_1246,searchDisc5,2021.2.3,59.990877071066365,
images/exp2a_trial_250_colour3_distractors4_l.png,l,1,3,4,0,,,,,0,92,92,92,,,,,,,,,,,,,,,,,,,,,,,,,,,,,,,,,,,,,,,,,,,435.0156718969811,None,2,0.4063364939938765,435.0156718969811,None,,,,,,,,,,,,,,,,None,None,None,,None,None,435.46810474499944,None,1,1,0.47064169999794103,435.46810474499944,None,435.9328779599804,None,None,None,None,,15,001,2023_Jan_20_1246,searchDisc5,2021.2.3,59.990877071066365,
images/exp2b_trial_129_colour1_distractors4_r.png,r,3,1,4,0,,,,,0,93,93,93,,,,,,,,,,,,,,,,,,,,,,,,,,,,,,,,,,,,,,,,,,,435.94937142697745,None,2,0.37059982199571095,435.94937142697745,None,,,,,,,,,,,,,,,,None,None,None,,None,None,436.3663327950053,None,3,1,0.7559814029955305,436.3663327950053,None,437.1162911139894,None,None,None,None,,15,001,2023_Jan_20_1246,searchDisc5,2021.2.3,59.990877071066365,
images/exp1a_trial_196_colour1_distractors31_r.png,r,3,1,31,0,,,,,0,94,94,94,,,,,,,,,,,,,,,,,,,,,,,,,,,,,,,,,,,,,,,,,,,437.1323998319858,None,2,0.3211655659833923,437.1323998319858,None,,,,,,,,,,,,,,,,None,None,None,,None,None,437.49946299599833,None,3,1,1.383679104008479,437.49946299599833,None,438.8829727829783,None,None,None,None,,15,001,2023_Jan_20_1246,searchDisc5,2021.2.3,59.990877071066365,
images/exp2b_trial_221_colour3_distractors31_l.png,l,1,3,31,0,,,,,0,95,95,95,,,,,,,,,,,,,,,,,,,,,,,,,,,,,,,,,,,,,,,,,,,438.8989352170029,None,2,0.42107528101769276,438.8989352170029,None,,,,,,,,,,,,,,,,None,None,None,,None,None,439.36827025498496,None,1,1,0.7359291189932264,439.36827025498496,None,440.09893682497784,None,None,None,None,,15,001,2023_Jan_20_1246,searchDisc5,2021.2.3,59.990877071066365,
images/exp1a_trial_44_colour3_distractors9_r.png,r,3,3,9,0,,,,,0,96,96,96,,,,,,,,,,,,,,,,,,,,,,,,,,,,,,,,,,,,,,,,,,,440.1161830609781,None,2,0.3885257990041282,440.1161830609781,None,,,,,,,,,,,,,,,,None,None,None,,None,None,440.5516548839805,None,3,1,0.7389864789729472,440.5516548839805,None,441.2830332699872,None,None,None,None,,15,001,2023_Jan_20_1246,searchDisc5,2021.2.3,59.990877071066365,
images/exp1a_trial_290_colour1_distractors9_r.png,r,3,1,9,0,,,,,0,97,97,97,,,,,,,,,,,,,,,,,,,,,,,,,,,,,,,,,,,,,,,,,,,441.2995871260064,None,2,0.2863874000031501,441.2995871260064,None,,,,,,,,,,,,,,,,None,None,None,,None,None,441.63230858699535,None,3,1,1.0707107849884778,441.63230858699535,None,442.69973282298304,None,None,None,None,,15,001,2023_Jan_20_1246,searchDisc5,2021.2.3,59.990877071066365,
images/exp1a_trial_141_colour3_distractors19_r.png,r,3,3,19,0,,,,,0,98,98,98,,,,,,,,,,,,,,,,,,,,,,,,,,,,,,,,,,,,,,,,,,,442.7162000859971,None,2,0.3876419689913746,442.7162000859971,None,,,,,,,,,,,,,,,,None,None,None,,None,None,443.1514472120034,None,3,1,0.7178436660033185,443.1514472120034,None,443.8658330179809,None,None,None,None,,15,001,2023_Jan_20_1246,searchDisc5,2021.2.3,59.990877071066365,
images/exp2a_trial_160_colour1_distractors1_r.png,r,3,1,1,0,,,,,0,99,99,99,,,,,,,,,,,,,,,,,,,,,,,,,,,,,,,,,,,,,,,,,,,443.8827911289991,None,2,0.6384025449806359,443.8827911289991,None,,,,,,,,,,,,,,,,None,None,None,,None,None,444.56601267599035,None,3,1,0.6401653419889044,444.56601267599035,None,445.1999981769826,None,None,None,None,,15,001,2023_Jan_20_1246,searchDisc5,2021.2.3,59.990877071066365,
images/exp2b_trial_314_colour3_distractors4_l.png,l,1,3,4,0,,,,,0,100,100,100,,,,,,,,,,,,,,,,,,,,,,,,,,,,,,,,,,,,,,,,,,,445.21610242998577,None,2,0.47011290199588984,445.21610242998577,None,,,,,,,,,,,,,,,,None,None,None,,None,None,445.73309232498286,None,1,1,0.6067665940208826,445.73309232498286,None,446.3332436159893,None,None,None,None,,15,001,2023_Jan_20_1246,searchDisc5,2021.2.3,59.990877071066365,
images/exp2b_trial_284_colour3_distractors19_l.png,l,1,3,19,0,,,,,0,101,101,101,,,,,,,,,,,,,,,,,,,,,,,,,,,,,,,,,,,,,,,,,,,446.35165260598296,None,2,0.47081394100678153,446.35165260598296,None,,,,,,,,,,,,,,,,None,None,None,,None,None,446.8664423379814,None,1,1,0.6708008210116532,446.8664423379814,None,447.5331383009965,None,None,None,None,,15,001,2023_Jan_20_1246,searchDisc5,2021.2.3,59.990877071066365,
images/exp1a_trial_225_colour1_distractors4_r.png,r,3,1,4,0,,,,,0,102,102,102,,,,,,,,,,,,,,,,,,,,,,,,,,,,,,,,,,,,,,,,,,,447.54922746898956,None,2,0.45466232698527165,447.54922746898956,None,,,,,,,,,,,,,,,,None,None,None,,None,None,448.05188053500024,None,3,1,0.6389705119945575,448.05188053500024,None,448.68335259799494,None,None,None,None,,15,001,2023_Jan_20_1246,searchDisc5,2021.2.3,59.990877071066365,
images/exp1a_trial_153_colour3_distractors1_l.png,l,1,3,1,0,,,,,0,103,103,103,,,,,,,,,,,,,,,,,,,,,,,,,,,,,,,,,,,,,,,,,,,448.69975940999575,None,2,0.4209163679915946,448.69975940999575,None,,,,,,,,,,,,,,,,None,None,None,,None,None,449.1684886159783,None,1,1,0.4564103920129128,449.1684886159783,None,449.6166987659875,None,None,None,None,,15,001,2023_Jan_20_1246,searchDisc5,2021.2.3,59.990877071066365,
images/exp2c_trial_40_colour2_distractors19_r.png,r,3,2,19,0,,,,,0,104,104,104,,,,,,,,,,,,,,,,,,,,,,,,,,,,,,,,,,,,,,,,,,,449.6350945059967,None,2,0.3542649640003219,449.6350945059967,None,,,,,,,,,,,,,,,,None,None,None,,None,None,450.0351673339901,None,3,1,0.7372079959895927,450.0351673339901,None,450.76653356297754,None,None,None,None,,15,001,2023_Jan_20_1246,searchDisc5,2021.2.3,59.990877071066365,
images/exp2b_trial_266_colour3_distractors1_r.png,r,3,3,1,0,,,,,0,105,105,105,,,,,,,,,,,,,,,,,,,,,,,,,,,,,,,,,,,,,,,,,,,450.78318758899695,None,2,0.37282479598070495,450.78318758899695,None,,,,,,,,,,,,,,,,None,None,None,,None,None,451.20197791600367,None,3,1,0.7382846539840102,451.20197791600367,None,451.93317653099655,None,None,None,None,,15,001,2023_Jan_20_1246,searchDisc5,2021.2.3,59.990877071066365,
images/exp1a_trial_148_colour2_distractors1_l.png,l,1,2,1,0,,,,,0,106,106,106,,,,,,,,,,,,,,,,,,,,,,,,,,,,,,,,,,,,,,,,,,,451.9497276949987,None,2,0.3712698140006978,451.9497276949987,None,,,,,,,,,,,,,,,,None,None,None,,None,None,452.36601414199686,None,1,1,0.4905631949950475,452.36601414199686,None,452.8500477419933,None,None,None,None,,15,001,2023_Jan_20_1246,searchDisc5,2021.2.3,59.990877071066365,
images/exp2c_trial_69_colour2_distractors1_r.png,r,3,2,1,0,,,,,0,107,107,107,,,,,,,,,,,,,,,,,,,,,,,,,,,,,,,,,,,,,,,,,,,452.86672069798806,None,2,0.4032100180047564,452.86672069798806,None,,,,,,,,,,,,,,,,None,None,None,,None,None,453.3182297379826,None,3,1,0.5700414089951664,453.3182297379826,None,453.88333786899454,None,None,None,None,,15,001,2023_Jan_20_1246,searchDisc5,2021.2.3,59.990877071066365,
images/exp2c_trial_185_colour3_distractors1_l.png,l,1,3,1,0,,,,,0,108,108,108,,,,,,,,,,,,,,,,,,,,,,,,,,,,,,,,,,,,,,,,,,,453.8995908279903,None,2,0.4044597859901842,453.8995908279903,None,,,,,,,,,,,,,,,,None,None,None,,None,None,454.35150281799724,None,1,1,0.5898340200074017,454.35150281799724,None,454.9334293449996,None,None,None,None,,15,001,2023_Jan_20_1246,searchDisc5,2021.2.3,59.990877071066365,
images/exp2b_trial_68_colour1_distractors31_r.png,r,3,1,31,0,,,,,0,109,109,109,,,,,,,,,,,,,,,,,,,,,,,,,,,,,,,,,,,,,,,,,,,454.9496621330036,None,2,0.37080796298687346,454.9496621330036,None,,,,,,,,,,,,,,,,None,None,None,,None,None,455.36844529397786,None,3,1,0.8869344390113838,455.36844529397786,None,456.25017980099653,None,None,None,None,,15,001,2023_Jan_20_1246,searchDisc5,2021.2.3,59.990877071066365,
images/exp1a_trial_20_colour2_distractors1_l.png,l,1,2,1,0,,,,,0,110,110,110,,,,,,,,,,,,,,,,,,,,,,,,,,,,,,,,,,,,,,,,,,,456.2660735769896,None,2,0.5543123890238348,456.2660735769896,None,,,,,,,,,,,,,,,,None,None,None,,None,None,456.86845933899167,None,1,1,0.6399382100207731,456.86845933899167,None,457.5001152679964,None,None,None,None,,15,001,2023_Jan_20_1246,searchDisc5,2021.2.3,59.990877071066365,
images/exp1a_trial_115_colour1_distractors31_l.png,l,1,1,31,0,,,,,0,111,111,111,,,,,,,,,,,,,,,,,,,,,,,,,,,,,,,,,,,,,,,,,,,457.5156713309989,None,2,0.3373154290020466,457.5156713309989,None,,,,,,,,,,,,,,,,None,None,None,,None,None,457.9000621699961,None,1,1,2.1349292779923417,457.9000621699961,None,460.033472861984,None,None,None,None,,15,001,2023_Jan_20_1246,searchDisc5,2021.2.3,59.990877071066365,
images/exp2a_trial_232_colour2_distractors19_r.png,r,3,2,19,0,,,,,0,112,112,112,,,,,,,,,,,,,,,,,,,,,,,,,,,,,,,,,,,,,,,,,,,460.0517070089991,None,2,0.9713480240025092,460.0517070089991,None,,,,,,,,,,,,,,,,None,None,None,,None,None,461.067238928983,None,3,1,0.8488084890122991,461.067238928983,None,461.91689512497976,None,None,None,None,,15,001,2023_Jan_20_1246,searchDisc5,2021.2.3,59.990877071066365,
images/exp1a_trial_163_colour1_distractors19_r.png,r,3,1,19,0,,,,,0,113,113,113,,,,,,,,,,,,,,,,,,,,,,,,,,,,,,,,,,,,,,,,,,,461.93301428097766,None,2,0.5044484919926617,461.93301428097766,None,,,,,,,,,,,,,,,,None,None,None,,None,None,462.48360136098927,None,3,1,0.7868038029992022,462.48360136098927,None,463.26703834400394,None,None,None,None,,15,001,2023_Jan_20_1246,searchDisc5,2021.2.3,59.990877071066365,
images/exp2b_trial_85_colour2_distractors4_l.png,l,1,2,4,0,,,,,0,114,114,114,,,,,,,,,,,,,,,,,,,,,,,,,,,,,,,,,,,,,,,,,,,463.28330475400435,None,2,0.5877052890136838,463.28330475400435,None,,,,,,,,,,,,,,,,None,None,None,,None,None,463.91906957598985,None,1,1,0.5870298069785349,463.91906957598985,None,464.5001940999995,None,None,None,None,,15,001,2023_Jan_20_1246,searchDisc5,2021.2.3,59.990877071066365,
images/exp1a_trial_261_colour2_distractors1_r.png,r,3,2,1,0,,,,,0,115,115,115,,,,,,,,,,,,,,,,,,,,,,,,,,,,,,,,,,,,,,,,,,,464.51669995399425,None,2,0.42360279100830667,464.51669995399425,None,,,,,,,,,,,,,,,,None,None,None,,None,None,464.98291611199966,None,3,1,0.5208542809996288,464.98291611199966,None,465.5006562389957,None,None,None,None,,15,001,2023_Jan_20_1246,searchDisc5,2021.2.3,59.990877071066365,
images/exp2b_trial_119_colour2_distractors19_l.png,l,1,2,19,0,,,,,0,116,116,116,,,,,,,,,,,,,,,,,,,,,,,,,,,,,,,,,,,,,,,,,,,465.5169581009832,None,2,0.38940861701848917,465.5169581009832,None,,,,,,,,,,,,,,,,None,None,None,,None,None,465.9519899789884,None,1,1,0.6023767360020429,465.9519899789884,None,466.5503259799792,None,None,None,None,,15,001,2023_Jan_20_1246,searchDisc5,2021.2.3,59.990877071066365,
images/exp2b_trial_70_colour2_distractors4_r.png,r,3,2,4,0,,,,,0,117,117,117,,,,,,,,,,,,,,,,,,,,,,,,,,,,,,,,,,,,,,,,,,,466.5688443099789,None,2,0.4064836500037927,466.5688443099789,None,,,,,,,,,,,,,,,,None,None,None,,None,None,467.01901908699074,None,3,1,0.47019660100340843,467.01901908699074,None,467.48363301798815,None,None,None,None,,15,001,2023_Jan_20_1246,searchDisc5,2021.2.3,59.990877071066365,
images/exp2a_trial_80_colour1_distractors4_l.png,l,1,1,4,0,,,,,0,118,118,118,,,,,,,,,,,,,,,,,,,,,,,,,,,,,,,,,,,,,,,,,,,467.50025723100407,None,2,0.3881248400139157,467.50025723100407,None,,,,,,,,,,,,,,,,None,None,None,,None,None,467.93607360398164,None,1,1,0.6220289749908261,467.93607360398164,None,468.5499503109953,None,None,None,None,,15,001,2023_Jan_20_1246,searchDisc5,2021.2.3,59.990877071066365,
images/exp2a_trial_211_colour1_distractors31_l.png,l,1,1,31,0,,,,,0,119,119,119,,,,,,,,,,,,,,,,,,,,,,,,,,,,,,,,,,,,,,,,,,,468.56825752498116,None,2,0.39021146201412193,468.56825752498116,None,,,,,,,,,,,,,,,,None,None,None,,None,None,469.00246089999564,None,1,1,0.5681249610206578,469.00246089999564,None,469.5671419679769,None,None,None,None,,15,001,2023_Jan_20_1246,searchDisc5,2021.2.3,59.990877071066365,
images/exp1a_trial_265_colour2_distractors31_r.png,r,3,2,31,0,,,,,0,120,120,120,,,,,,,,,,,,,,,,,,,,,,,,,,,,,,,,,,,,,,,,,,,469.58352580599603,None,2,0.3878415869839955,469.58352580599603,None,,,,,,,,,,,,,,,,None,None,None,,None,None,470.01882056100294,None,3,1,0.6835463430033997,470.01882056100294,None,470.7004617099941,None,None,None,None,,15,001,2023_Jan_20_1246,searchDisc5,2021.2.3,59.990877071066365,
images/exp2b_trial_106_colour3_distractors1_r.png,r,3,3,1,0,,,,,0,121,121,121,,,,,,,,,,,,,,,,,,,,,,,,,,,,,,,,,,,,,,,,,,,470.7185160809895,None,2,0.23795867699664086,470.7185160809895,None,,,,,,,,,,,,,,,,None,None,None,,None,None,471.0002821550006,None,3,1,0.7228525439859368,471.0002821550006,None,471.7171284369891,None,None,None,None,,15,001,2023_Jan_20_1246,searchDisc5,2021.2.3,59.990877071066365,
images/exp2a_trial_144_colour1_distractors4_l.png,l,1,1,4,0,,,,,0,122,122,122,,,,,,,,,,,,,,,,,,,,,,,,,,,,,,,,,,,,,,,,,,,471.73311171800015,None,2,0.27114107899251394,471.73311171800015,None,,,,,,,,,,,,,,,,None,None,None,,None,None,472.04969001500285,None,1,1,1.0227945359947626,472.04969001500285,None,473.06729137400396,None,None,None,None,,15,001,2023_Jan_20_1246,searchDisc5,2021.2.3,59.990877071066365,
images/exp1a_trial_14_colour3_distractors31_r.png,r,3,3,31,0,,,,,0,123,123,123,,,,,,,,,,,,,,,,,,,,,,,,,,,,,,,,,,,,,,,,,,,473.0833982320037,None,2,0.5043778889812529,473.0833982320037,None,,,,,,,,,,,,,,,,None,None,None,,None,None,473.6332555129775,None,3,1,0.6674936930066906,473.6332555129775,None,474.3005242580024,None,None,None,None,,15,001,2023_Jan_20_1246,searchDisc5,2021.2.3,59.990877071066365,
images/exp2b_trial_279_colour2_distractors19_l.png,l,1,2,19,0,,,,,0,124,124,124,,,,,,,,,,,,,,,,,,,,,,,,,,,,,,,,,,,,,,,,,,,474.3167020789988,None,2,0.35439404999488033,474.3167020789988,None,,,,,,,,,,,,,,,,None,None,None,,None,None,474.71936686499976,None,1,1,0.8372086900053546,474.71936686499976,None,475.5505958699854,None,None,None,None,,15,001,2023_Jan_20_1246,searchDisc5,2021.2.3,59.990877071066365,
images/exp2b_trial_245_colour2_distractors4_l.png,l,1,2,4,0,,,,,0,125,125,125,,,,,,,,,,,,,,,,,,,,,,,,,,,,,,,,,,,,,,,,,,,475.5671100799809,None,2,0.18990329900407232,475.5671100799809,None,,,,,,,,,,,,,,,,None,None,None,,None,None,475.80263965399354,None,1,1,0.8371792749967426,475.80263965399354,None,476.63396912799215,None,None,None,None,,15,001,2023_Jan_20_1246,searchDisc5,2021.2.3,59.990877071066365,
images/exp2b_trial_50_colour1_distractors19_l.png,l,1,1,19,0,,,,,0,126,126,126,,,,,,,,,,,,,,,,,,,,,,,,,,,,,,,,,,,,,,,,,,,476.650249659986,None,2,0.13771251298021525,476.650249659986,None,,,,,,,,,,,,,,,,None,None,None,,None,None,476.8353699949803,None,1,1,0.9378340920084156,476.8353699949803,None,477.767281675979,None,None,None,None,,15,001,2023_Jan_20_1246,searchDisc5,2021.2.3,59.990877071066365,
images/exp2b_trial_133_colour2_distractors1_r.png,r,3,2,1,0,,,,,0,127,127,127,,,,,,,,,,,,,,,,,,,,,,,,,,,,,,,,,,,,,,,,,,,477.7855361989932,None,2,0.13979024600121193,477.7855361989932,None,,,,,,,,,,,,,,,,None,None,None,,None,None,477.96960350999143,None,3,1,0.6549244030029513,477.96960350999143,None,478.6174696459842,None,None,None,None,,15,001,2023_Jan_20_1246,searchDisc5,2021.2.3,59.990877071066365,
images/exp1a_trial_171_colour3_distractors4_r.png,r,3,3,4,0,,,,,0,128,128,128,,,,,,,,,,,,,,,,,,,,,,,,,,,,,,,,,,,,,,,,,,,478.6337488029967,None,2,0.23977212500176392,478.6337488029967,None,,,,,,,,,,,,,,,,None,None,None,,None,None,478.91760866498225,None,3,1,0.6694633929873817,478.91760866498225,None,479.5842587709834,None,None,None,None,,15,001,2023_Jan_20_1246,searchDisc5,2021.2.3,59.990877071066365,
images/exp2c_trial_263_colour2_distractors9_r.png,r,3,2,9,0,,,,,0,129,129,129,,,,,,,,,,,,,,,,,,,,,,,,,,,,,,,,,,,,,,,,,,,479.6006680819846,None,2,0.1876763390027918,479.6006680819846,None,,,,,,,,,,,,,,,,None,None,None,,None,None,479.8362048789859,None,3,1,1.1546491839981172,479.8362048789859,None,480.9839470569917,None,None,None,None,,15,001,2023_Jan_20_1246,searchDisc5,2021.2.3,59.990877071066365,
images/exp2b_trial_234_colour3_distractors1_r.png,r,3,3,1,0,,,,,0,130,130,130,,,,,,,,,,,,,,,,,,,,,,,,,,,,,,,,,,,,,,,,,,,481.0002913099888,None,2,0.3870202680118382,481.0002913099888,None,,,,,,,,,,,,,,,,None,None,None,,None,None,481.4359732839803,None,3,1,0.7063224109879229,481.4359732839803,None,482.1341585009999,None,None,None,None,,15,001,2023_Jan_20_1246,searchDisc5,2021.2.3,59.990877071066365,
images/exp2b_trial_304_colour1_distractors4_l.png,l,1,1,4,0,,,,,0,131,131,131,,,,,,,,,,,,,,,,,,,,,,,,,,,,,,,,,,,,,,,,,,,482.1522724859824,None,2,0.17265634599607438,482.1522724859824,None,,,,,,,,,,,,,,,,None,None,None,,None,None,482.3689846629859,None,1,1,0.6545223469729535,482.3689846629859,None,483.01747974398893,None,None,None,None,,15,001,2023_Jan_20_1246,searchDisc5,2021.2.3,59.990877071066365,
images/exp2a_trial_41_colour2_distractors31_r.png,r,3,2,31,0,,,,,0,132,132,132,,,,,,,,,,,,,,,,,,,,,,,,,,,,,,,,,,,,,,,,,,,483.03396542198607,None,2,0.2546418870042544,483.03396542198607,None,,,,,,,,,,,,,,,,None,None,None,,None,None,483.3340793539828,None,3,1,0.8991084419831168,483.3340793539828,None,484.23453718599046,None,None,None,None,,15,001,2023_Jan_20_1246,searchDisc5,2021.2.3,59.990877071066365,
images/exp2c_trial_308_colour2_distractors1_l.png,l,1,2,1,0,,,,,0,133,133,133,,,,,,,,,,,,,,,,,,,,,,,,,,,,,,,,,,,,,,,,,,,484.25064230899443,None,2,0.16872582299401984,484.25064230899443,None,,,,,,,,,,,,,,,,None,None,None,,None,None,484.4694748869806,None,1,1,0.6064967840211466,484.4694748869806,None,485.06767687100216,None,None,None,None,,15,001,2023_Jan_20_1246,searchDisc5,2021.2.3,59.990877071066365,
images/exp2a_trial_106_colour3_distractors1_r.png,r,3,3,1,0,,,,,0,134,134,134,,,,,,,,,,,,,,,,,,,,,,,,,,,,,,,,,,,,,,,,,,,485.0840768869966,None,2,0.40665208201971836,485.0840768869966,None,,,,,,,,,,,,,,,,None,None,None,,None,None,485.53627265099203,None,3,1,0.9369281649996992,485.53627265099203,None,486.46769192498175,None,None,None,None,,15,001,2023_Jan_20_1246,searchDisc5,2021.2.3,59.990877071066365,
images/exp2c_trial_24_colour2_distractors31_l.png,l,1,2,31,0,,,,,0,135,135,135,,,,,,,,,,,,,,,,,,,,,,,,,,,,,,,,,,,,,,,,,,,486.48633168198285,None,2,0.3227440739865415,486.48633168198285,None,,,,,,,,,,,,,,,,None,None,None,,None,None,486.85292692598887,None,1,1,0.5847493770124856,486.85292692598887,None,487.4345316379971,None,None,None,None,,15,001,2023_Jan_20_1246,searchDisc5,2021.2.3,59.990877071066365,
images/exp2c_trial_80_colour1_distractors4_l.png,l,1,1,4,0,,,,,0,136,136,136,,,,,,,,,,,,,,,,,,,,,,,,,,,,,,,,,,,,,,,,,,,487.45064698299393,None,2,0.3704303739941679,487.45064698299393,None,,,,,,,,,,,,,,,,None,None,None,,None,None,487.8693613669893,None,1,1,0.6075436740065925,487.8693613669893,None,488.46791795199385,None,None,None,None,,15,001,2023_Jan_20_1246,searchDisc5,2021.2.3,59.990877071066365,
images/exp1a_trial_43_colour3_distractors4_r.png,r,3,3,4,0,,,,,0,137,137,137,,,,,,,,,,,,,,,,,,,,,,,,,,,,,,,,,,,,,,,,,,,488.4841814909887,None,2,0.3543256839911919,488.4841814909887,None,,,,,,,,,,,,,,,,None,None,None,,None,None,488.8862155159877,None,3,1,0.6221963139832951,488.8862155159877,None,489.5010092179931,None,None,None,None,,15,001,2023_Jan_20_1246,searchDisc5,2021.2.3,59.990877071066365,
images/exp1a_trial_194_colour1_distractors9_r.png,r,3,1,9,0,,,,,0,138,138,138,,,,,,,,,,,,,,,,,,,,,,,,,,,,,,,,,,,,,,,,,,,489.5189996669942,None,2,0.3896927549794782,489.5189996669942,None,,,,,,,,,,,,,,,,None,None,None,,None,None,489.95228369999677,None,3,1,0.7857513519993518,489.95228369999677,None,490.73408110198795,None,None,None,None,,15,001,2023_Jan_20_1246,searchDisc5,2021.2.3,59.990877071066365,
images/exp1a_trial_217_colour3_distractors1_l.png,l,1,3,1,0,,,,,0,139,139,139,,,,,,,,,,,,,,,,,,,,,,,,,,,,,,,,,,,,,,,,,,,490.7505017389776,None,2,0.28804069699253887,490.7505017389776,None,,,,,,,,,,,,,,,,None,None,None,,None,None,491.0846349200001,None,3,0,0.022705474024405703,491.0846349200001,None,491.10150942599864,None,None,None,None,,15,001,2023_Jan_20_1246,searchDisc5,2021.2.3,59.990877071066365,
images/exp2b_trial_42_colour3_distractors1_r.png,r,3,3,1,0,,,,,0,140,140,140,,,,,,,,,,,,,,,,,,,,,,,,,,,,,,,,,,,,,,,,,,,491.1173999719904,None,2,1.422386029997142,491.1173999719904,None,,,,,,,,,,,,,,,,None,None,None,,None,None,492.58576149499277,None,3,1,0.6873969779990148,492.58576149499277,None,493.2679352519975,None,None,None,None,,15,001,2023_Jan_20_1246,searchDisc5,2021.2.3,59.990877071066365,
images/exp1a_trial_231_colour2_distractors9_r.png,r,3,2,9,0,,,,,0,141,141,141,,,,,,,,,,,,,,,,,,,,,,,,,,,,,,,,,,,,,,,,,,,493.28583145700395,None,2,0.6217269369808491,493.28583145700395,None,,,,,,,,,,,,,,,,None,None,None,,None,None,493.95112960698316,None,3,1,0.8029791839944664,493.95112960698316,None,494.7510785529797,None,None,None,None,,15,001,2023_Jan_20_1246,searchDisc5,2021.2.3,59.990877071066365,
images/exp2b_trial_155_colour3_distractors9_l.png,l,1,3,9,0,,,,,0,142,142,142,,,,,,,,,,,,,,,,,,,,,,,,,,,,,,,,,,,,,,,,,,,494.7675317719986,None,2,0.42241274198750034,494.7675317719986,None,,,,,,,,,,,,,,,,None,None,None,,None,None,495.2361450739845,None,1,1,0.5867844070016872,495.2361450739845,None,495.8177385520015,None,None,None,None,,15,001,2023_Jan_20_1246,searchDisc5,2021.2.3,59.990877071066365,
images/exp2a_trial_180_colour2_distractors1_l.png,l,1,2,1,0,,,,,0,143,143,143,,,,,,,,,,,,,,,,,,,,,,,,,,,,,,,,,,,,,,,,,,,495.83429155600606,None,2,0.42335391000960954,495.83429155600606,None,,,,,,,,,,,,,,,,None,None,None,,None,None,496.30322781199357,None,1,1,0.5205129199894145,496.30322781199357,None,496.81790985400437,None,None,None,None,,15,001,2023_Jan_20_1246,searchDisc5,2021.2.3,59.990877071066365,
images/exp1a_trial_73_colour2_distractors31_r.png,r,3,2,31,0,,,,,0,144,144,144,,,,,,,,,,,,,,,,,,,,,,,,,,,,,,,,,,,,,,,,,,,496.8360733529844,None,2,0.37013501097681,496.8360733529844,None,,,,,,,,,,,,,,,,None,None,None,,None,None,497.2533632949926,None,3,1,0.5496804750000592,497.2533632949926,None,497.8012660139997,None,None,None,None,,15,001,2023_Jan_20_1246,searchDisc5,2021.2.3,59.990877071066365,
images/exp2c_trial_171_colour3_distractors4_r.png,r,3,3,4,0,,,,,0,145,145,145,,,,,,,,,,,,,,,,,,,,,,,,,,,,,,,,,,,,,,,,,,,497.8185282119957,None,2,0.4055823000089731,497.8185282119957,None,,,,,,,,,,,,,,,,None,None,None,,None,None,498.2712740099814,None,3,1,0.7714124850172084,498.2712740099814,None,499.03465709399313,None,None,None,None,,15,001,2023_Jan_20_1246,searchDisc5,2021.2.3,59.990877071066365,
images/exp2a_trial_230_colour2_distractors4_r.png,r,3,2,4,0,,,,,0,146,146,146,,,,,,,,,,,,,,,,,,,,,,,,,,,,,,,,,,,,,,,,,,,499.0521390379872,None,2,0.370906960015418,499.0521390379872,None,,,,,,,,,,,,,,,,None,None,None,,None,None,499.4700838889985,None,3,1,0.7702060709998477,499.4700838889985,None,500.23466378299634,None,None,None,None,,15,001,2023_Jan_20_1246,searchDisc5,2021.2.3,59.990877071066365,
images/exp2b_trial_289_colour1_distractors4_r.png,r,3,1,4,0,,,,,0,147,147,147,,,,,,,,,,,,,,,,,,,,,,,,,,,,,,,,,,,,,,,,,,,500.2518629889819,None,2,0.7545348349958658,500.2518629889819,None,,,,,,,,,,,,,,,,None,None,None,,None,None,501.0523221039912,None,3,1,0.555005625996273,501.0523221039912,None,501.60111142899257,None,None,None,None,,15,001,2023_Jan_20_1246,searchDisc5,2021.2.3,59.990877071066365,
images/exp2c_trial_236_colour3_distractors9_r.png,r,3,3,9,0,,,,,0,148,148,148,,,,,,,,,,,,,,,,,,,,,,,,,,,,,,,,,,,,,,,,,,,501.6185133050021,None,2,0.3214560030028224,501.6185133050021,None,,,,,,,,,,,,,,,,None,None,None,,None,None,501.9845799479808,None,3,1,0.8382301509846002,501.9845799479808,None,502.81820472097604,None,None,None,None,,15,001,2023_Jan_20_1246,searchDisc5,2021.2.3,59.990877071066365,
images/exp2a_trial_123_colour3_distractors9_l.png,l,1,3,9,0,,,,,0,149,149,149,,,,,,,,,,,,,,,,,,,,,,,,,,,,,,,,,,,,,,,,,,,502.83527988399146,None,2,0.28916079699411057,502.83527988399146,None,,,,,,,,,,,,,,,,None,None,None,,None,None,503.1681817630015,None,1,1,0.6551325210020877,503.1681817630015,None,503.8181677159795,None,None,None,None,,15,001,2023_Jan_20_1246,searchDisc5,2021.2.3,59.990877071066365,
images/exp1a_trial_281_colour3_distractors1_l.png,l,1,3,1,0,,,,,0,150,150,150,,,,,,,,,,,,,,,,,,,,,,,,,,,,,,,,,,,,,,,,,,,503.83369946398307,None,2,0.371412774984492,503.83369946398307,None,,,,,,,,,,,,,,,,None,None,None,,None,None,504.25430627699825,None,1,1,0.6217241029953584,504.25430627699825,None,504.86814607299164,None,None,None,None,,15,001,2023_Jan_20_1246,searchDisc5,2021.2.3,59.990877071066365,
images/exp2a_trial_30_colour0_distractors0_r.png,r,3,0,0,0,,,,,0,151,151,151,,,,,,,,,,,,,,,,,,,,,,,,,,,,,,,,,,,,,,,,,,,504.88677228899905,None,2,0.4088415059959516,504.88677228899905,None,,,,,,,,,,,,,,,,None,None,None,,None,None,505.33581122898613,None,3,1,0.6363759060041048,505.33581122898613,None,505.968213675986,None,None,None,None,,15,001,2023_Jan_20_1246,searchDisc5,2021.2.3,59.990877071066365,
images/exp1a_trial_214_colour2_distractors9_l.png,l,1,2,9,0,,,,,0,152,152,152,,,,,,,,,,,,,,,,,,,,,,,,,,,,,,,,,,,,,,,,,,,505.98452221398475,None,2,0.36967151798307896,505.98452221398475,None,,,,,,,,,,,,,,,,None,None,None,,None,None,506.4038892700046,None,1,1,0.6742683290212881,506.4038892700046,None,507.0711667939962,None,None,None,None,,15,001,2023_Jan_20_1246,searchDisc5,2021.2.3,59.990877071066365,
images/exp1a_trial_7_colour2_distractors9_r.png,r,3,2,9,0,,,,,0,153,153,153,,,,,,,,,,,,,,,,,,,,,,,,,,,,,,,,,,,,,,,,,,,507.0839881360007,None,2,0.36761603300692514,507.0839881360007,None,,,,,,,,,,,,,,,,None,None,None,,None,None,507.502606139984,None,3,1,0.5384068629937246,507.502606139984,None,508.0350807309791,None,None,None,None,,15,001,2023_Jan_20_1246,searchDisc5,2021.2.3,59.990877071066365,
images/exp2c_trial_313_colour3_distractors1_l.png,l,1,3,1,0,,,,,0,154,154,154,,,,,,,,,,,,,,,,,,,,,,,,,,,,,,,,,,,,,,,,,,,508.0514385229908,None,2,0.44043553099618293,508.0514385229908,None,,,,,,,,,,,,,,,,None,None,None,,None,None,508.53792028699536,None,1,1,0.6030139119829983,508.53792028699536,None,509.13489421399424,None,None,None,None,,15,001,2023_Jan_20_1246,searchDisc5,2021.2.3,59.990877071066365,
images/exp1a_trial_154_colour3_distractors4_l.png,l,1,3,4,0,,,,,0,155,155,155,,,,,,,,,,,,,,,,,,,,,,,,,,,,,,,,,,,,,,,,,,,509.1521891260054,None,2,0.3712826840055641,509.1521891260054,None,,,,,,,,,,,,,,,,None,None,None,,None,None,509.56930769397877,None,1,1,0.7543969149992336,509.56930769397877,None,510.3174262189772,None,None,None,None,,15,001,2023_Jan_20_1246,searchDisc5,2021.2.3,59.990877071066365,
images/exp2a_trial_188_colour3_distractors19_l.png,l,1,3,19,0,,,,,0,156,156,156,,,,,,,,,,,,,,,,,,,,,,,,,,,,,,,,,,,,,,,,,,,510.3347562709823,None,2,0.3394027579925023,510.3347562709823,None,,,,,,,,,,,,,,,,None,None,None,,None,None,510.71854334298405,None,1,1,0.9370496080082376,510.71854334298405,None,511.6517091789923,None,None,None,None,,15,001,2023_Jan_20_1246,searchDisc5,2021.2.3,59.990877071066365,
images/exp2b_trial_49_colour1_distractors9_l.png,l,1,1,9,0,,,,,0,157,157,157,,,,,,,,,,,,,,,,,,,,,,,,,,,,,,,,,,,,,,,,,,,511.6688802439894,None,2,0.354505480005173,511.6688802439894,None,,,,,,,,,,,,,,,,None,None,None,,None,None,512.0684972879826,None,1,1,0.9051769309735391,512.0684972879826,None,512.9685623909812,None,None,None,None,,15,001,2023_Jan_20_1246,searchDisc5,2021.2.3,59.990877071066365,
images/exp1a_trial_40_colour2_distractors19_r.png,r,3,2,19,0,,,,,0,158,158,158,,,,,,,,,,,,,,,,,,,,,,,,,,,,,,,,,,,,,,,,,,,512.9849337199994,None,2,0.32067504100268707,512.9849337199994,None,,,,,,,,,,,,,,,,None,None,None,,None,None,513.3517776759982,None,3,1,0.6872329140023794,513.3517776759982,None,514.0355857869785,None,None,None,None,,15,001,2023_Jan_20_1246,searchDisc5,2021.2.3,59.990877071066365,
images/exp2c_trial_200_colour2_distractors19_r.png,r,3,2,19,0,,,,,0,159,159,159,,,,,,,,,,,,,,,,,,,,,,,,,,,,,,,,,,,,,,,,,,,514.0513710340019,None,2,0.42011778699816205,514.0513710340019,None,,,,,,,,,,,,,,,,None,None,None,,None,None,514.5213411909936,None,3,1,0.6021154199843295,514.5213411909936,None,515.1185022569902,None,None,None,None,,15,001,2023_Jan_20_1246,searchDisc5,2021.2.3,59.990877071066365,
images/exp2a_trial_202_colour3_distractors1_r.png,r,3,3,1,0,,,,,0,160,160,160,,,,,,,,,,,,,,,,,,,,,,,,,,,,,,,,,,,,,,,,,,,515.1350153279782,None,2,0.15620825299993157,515.1350153279782,None,,,,,,,,,,,,,,,,None,None,None,,None,None,515.3376328459999,None,3,1,0.7378172850003466,515.3376328459999,None,516.0684317059989,None,None,None,None,,15,001,2023_Jan_20_1246,searchDisc5,2021.2.3,59.990877071066365,
images/exp1a_trial_74_colour3_distractors1_r.png,r,3,3,1,0,,,,,0,161,161,161,,,,,,,,,,,,,,,,,,,,,,,,,,,,,,,,,,,,,,,,,,,516.0851884419972,None,2,0.1870165730069857,516.0851884419972,None,,,,,,,,,,,,,,,,None,None,None,,None,None,516.3216211169783,None,3,1,0.7757455260143615,516.3216211169783,None,517.0851937309839,None,None,None,None,,15,001,2023_Jan_20_1246,searchDisc5,2021.2.3,59.990877071066365,
images/exp2a_trial_35_colour1_distractors19_r.png,r,3,1,19,0,,,,,0,162,162,162,,,,,,,,,,,,,,,,,,,,,,,,,,,,,,,,,,,,,,,,,,,517.101800606004,None,2,0.4220411939895712,517.101800606004,None,,,,,,,,,,,,,,,,None,None,None,,None,None,517.5685353549779,None,3,1,0.9195511939760763,517.5685353549779,None,518.486228080996,None,None,None,None,,15,001,2023_Jan_20_1246,searchDisc5,2021.2.3,59.990877071066365,
images/exp2b_trial_201_colour2_distractors31_r.png,r,3,2,31,0,,,,,0,163,163,163,,,,,,,,,,,,,,,,,,,,,,,,,,,,,,,,,,,,,,,,,,,518.5039334269823,None,2,0.6859177309961524,518.5039334269823,None,,,,,,,,,,,,,,,,None,None,None,,None,None,519.237275099993,None,3,1,0.5868510229920503,519.237275099993,None,519.8182019099826,None,None,None,None,,15,001,2023_Jan_20_1246,searchDisc5,2021.2.3,59.990877071066365,
images/exp2b_trial_197_colour2_distractors1_r.png,r,3,2,1,0,,,,,0,164,164,164,,,,,,,,,,,,,,,,,,,,,,,,,,,,,,,,,,,,,,,,,,,519.8355412829842,None,2,0.38749582099262625,519.8355412829842,None,,,,,,,,,,,,,,,,None,None,None,,None,None,520.2710787479882,None,3,1,0.5069130070041865,520.2710787479882,None,520.7680493430001,None,None,None,None,,15,001,2023_Jan_20_1246,searchDisc5,2021.2.3,59.990877071066365,
images/exp2c_trial_78_colour3_distractors31_r.png,r,3,3,31,0,,,,,0,165,165,165,,,,,,,,,,,,,,,,,,,,,,,,,,,,,,,,,,,,,,,,,,,520.7862136740005,None,2,0.40518494200659916,520.7862136740005,None,,,,,,,,,,,,,,,,None,None,None,,None,None,521.2375325739849,None,3,1,0.7360400640172884,521.2375325739849,None,521.9686101649771,None,None,None,None,,15,001,2023_Jan_20_1246,searchDisc5,2021.2.3,59.990877071066365,
images/exp2c_trial_158_colour0_distractors0_r.png,r,3,0,0,0,,,,,0,166,166,166,,,,,,,,,,,,,,,,,,,,,,,,,,,,,,,,,,,,,,,,,,,521.9877513730025,None,2,0.37435365401324816,521.9877513730025,None,,,,,,,,,,,,,,,,None,None,None,,None,None,522.4019649059919,None,3,1,0.5205736399802845,522.4019649059919,None,522.9186425909924,None,None,None,None,,15,001,2023_Jan_20_1246,searchDisc5,2021.2.3,59.990877071066365,
images/exp1a_trial_297_colour2_distractors31_r.png,r,3,2,31,0,,,,,0,167,167,167,,,,,,,,,,,,,,,,,,,,,,,,,,,,,,,,,,,,,,,,,,,522.9359491629875,None,2,0.37106065699481405,522.9359491629875,None,,,,,,,,,,,,,,,,None,None,None,,None,None,523.3542943389912,None,3,1,0.5012752900074702,523.3542943389912,None,523.8528360179974,None,None,None,None,,15,001,2023_Jan_20_1246,searchDisc5,2021.2.3,59.990877071066365,
images/exp2c_trial_117_colour2_distractors4_l.png,l,1,2,4,0,,,,,0,168,168,168,,,,,,,,,,,,,,,,,,,,,,,,,,,,,,,,,,,,,,,,,,,523.8685479699925,None,2,0.3204373820044566,523.8685479699925,None,,,,,,,,,,,,,,,,None,None,None,,None,None,524.2382398289919,None,1,1,0.7226905070128851,524.2382398289919,None,524.9521702139813,None,None,None,None,,15,001,2023_Jan_20_1246,searchDisc5,2021.2.3,59.990877071066365,
images/exp2b_trial_114_colour1_distractors19_l.png,l,1,1,19,0,,,,,0,169,169,169,,,,,,,,,,,,,,,,,,,,,,,,,,,,,,,,,,,,,,,,,,,524.9689073489862,None,2,0.29009739999310113,524.9689073489862,None,,,,,,,,,,,,,,,,None,None,None,,None,None,525.3027666579874,None,1,1,0.751242419006303,525.3027666579874,None,526.0521251279919,None,None,None,None,,15,001,2023_Jan_20_1246,searchDisc5,2021.2.3,59.990877071066365,
images/exp2b_trial_274_colour1_distractors19_l.png,l,1,1,19,0,,,,,0,170,170,170,,,,,,,,,,,,,,,,,,,,,,,,,,,,,,,,,,,,,,,,,,,526.0687032669957,None,2,0.2878312559914775,526.0687032669957,None,,,,,,,,,,,,,,,,None,None,None,,None,None,526.4053431889915,None,1,1,0.637092217017198,526.4053431889915,None,527.0352344839833,None,None,None,None,,15,001,2023_Jan_20_1246,searchDisc5,2021.2.3,59.990877071066365,
images/exp1a_trial_167_colour2_distractors9_r.png,r,3,2,9,0,,,,,0,171,171,171,,,,,,,,,,,,,,,,,,,,,,,,,,,,,,,,,,,,,,,,,,,527.0518977860047,None,2,0.30658885298180394,527.0518977860047,None,,,,,,,,,,,,,,,,None,None,None,,None,None,527.4025054659869,None,3,1,0.5856347589869983,527.4025054659869,None,527.9852250919852,None,None,None,None,,15,001,2023_Jan_20_1246,searchDisc5,2021.2.3,59.990877071066365,
images/exp1a_trial_192_colour1_distractors1_r.png,r,3,1,1,0,,,,,0,172,172,172,,,,,,,,,,,,,,,,,,,,,,,,,,,,,,,,,,,,,,,,,,,528.0019963499799,None,2,0.37127166701247916,528.0019963499799,None,,,,,,,,,,,,,,,,None,None,None,,None,None,528.4204416459834,None,3,1,0.6561546339944471,528.4204416459834,None,529.0688937159779,None,None,None,None,,15,001,2023_Jan_20_1246,searchDisc5,2021.2.3,59.990877071066365,
images/exp2b_trial_144_colour1_distractors4_l.png,l,1,1,4,0,,,,,0,173,173,173,,,,,,,,,,,,,,,,,,,,,,,,,,,,,,,,,,,,,,,,,,,529.0858599389903,None,2,0.5048920490080491,529.0858599389903,None,,,,,,,,,,,,,,,,None,None,None,,None,None,529.6376016569848,None,1,1,0.5721777739818208,529.6376016569848,None,530.2022404309886,None,None,None,None,,15,001,2023_Jan_20_1246,searchDisc5,2021.2.3,59.990877071066365,
images/exp1a_trial_49_colour1_distractors9_l.png,l,1,1,9,0,,,,,0,174,174,174,,,,,,,,,,,,,,,,,,,,,,,,,,,,,,,,,,,,,,,,,,,530.2186568239995,None,2,0.42121820102329366,530.2186568239995,None,,,,,,,,,,,,,,,,None,None,None,,None,None,530.6864560649847,None,1,1,1.1225951520027593,530.6864560649847,None,531.8031329059799,None,None,None,None,,15,001,2023_Jan_20_1246,searchDisc5,2021.2.3,59.990877071066365,
images/exp2a_trial_194_colour1_distractors9_r.png,r,3,1,9,0,,,,,0,175,175,175,,,,,,,,,,,,,,,,,,,,,,,,,,,,,,,,,,,,,,,,,,,531.8207415879879,None,2,0.43711264297598973,531.8207415879879,None,,,,,,,,,,,,,,,,None,None,None,,None,None,532.3025988430018,None,3,1,0.5375286790076643,532.3025988430018,None,532.8349210729997,None,None,None,None,,15,001,2023_Jan_20_1246,searchDisc5,2021.2.3,59.990877071066365,
images/exp2c_trial_105_colour2_distractors31_r.png,r,3,2,31,0,,,,,0,176,176,176,,,,,,,,,,,,,,,,,,,,,,,,,,,,,,,,,,,,,,,,,,,532.8526671639993,None,2,0.35464133400819264,532.8526671639993,None,,,,,,,,,,,,,,,,None,None,None,,None,None,533.2554343910015,None,3,1,0.6861743629851844,533.2554343910015,None,533.9356150739826,None,None,None,None,,15,001,2023_Jan_20_1246,searchDisc5,2021.2.3,59.990877071066365,
images/exp2c_trial_287_colour0_distractors0_l.png,l,1,0,0,0,,,,,0,177,177,177,,,,,,,,,,,,,,,,,,,,,,,,,,,,,,,,,,,,,,,,,,,533.9521290449775,None,2,0.37115969698061235,533.9521290449775,None,,,,,,,,,,,,,,,,None,None,None,,None,None,534.3689766549796,None,1,1,0.7075149599986617,534.3689766549796,None,535.0700791030016,None,None,None,None,,15,001,2023_Jan_20_1246,searchDisc5,2021.2.3,59.990877071066365,
images/exp2a_trial_104_colour2_distractors19_r.png,r,3,2,19,0,,,,,0,178,178,178,,,,,,,,,,,,,,,,,,,,,,,,,,,,,,,,,,,,,,,,,,,535.0861734359933,None,2,0.370929784985492,535.0861734359933,None,,,,,,,,,,,,,,,,None,None,None,,None,None,535.5024445889867,None,3,1,0.6318533470039256,535.5024445889867,None,536.1355679039901,None,None,None,None,,15,001,2023_Jan_20_1246,searchDisc5,2021.2.3,59.990877071066365,
images/exp2c_trial_9_colour2_distractors31_r.png,r,3,2,31,0,,,,,0,179,179,179,,,,,,,,,,,,,,,,,,,,,,,,,,,,,,,,,,,,,,,,,,,536.1525692929863,None,2,0.5570809959899634,536.1525692929863,None,,,,,,,,,,,,,,,,None,None,None,,None,None,536.7525655129866,None,3,1,0.634222074993886,536.7525655129866,None,537.3857733809913,None,None,None,None,,15,001,2023_Jan_20_1246,searchDisc5,2021.2.3,59.990877071066365,
images/exp2c_trial_79_colour1_distractors1_l.png,l,1,1,1,0,,,,,0,180,180,180,,,,,,,,,,,,,,,,,,,,,,,,,,,,,,,,,,,,,,,,,,,537.40242682799,None,2,0.9217464749817736,537.40242682799,None,,,,,,,,,,,,,,,,None,None,None,,None,None,538.3718835419859,None,1,1,0.6576118590019178,538.3718835419859,None,539.0202472650038,None,None,None,None,,15,001,2023_Jan_20_1246,searchDisc5,2021.2.3,59.990877071066365,
images/exp2a_trial_48_colour1_distractors4_l.png,l,1,1,4,0,,,,,0,181,181,181,,,,,,,,,,,,,,,,,,,,,,,,,,,,,,,,,,,,,,,,,,,539.0356681919948,None,2,0.5687555229815189,539.0356681919948,None,,,,,,,,,,,,,,,,None,None,None,,None,None,539.6533577030059,None,1,1,0.4738697819993831,539.6533577030059,None,540.1200619579816,None,None,None,None,,15,001,2023_Jan_20_1246,searchDisc5,2021.2.3,59.990877071066365,
images/exp2a_trial_150_colour2_distractors9_l.png,l,1,2,9,0,,,,,0,182,182,182,,,,,,,,,,,,,,,,,,,,,,,,,,,,,,,,,,,,,,,,,,,540.135397215985,None,2,0.38881917801336385,540.135397215985,None,,,,,,,,,,,,,,,,None,None,None,,None,None,540.5722920559929,None,1,1,0.649931233987445,540.5722920559929,None,541.2192510200024,None,None,None,None,,15,001,2023_Jan_20_1246,searchDisc5,2021.2.3,59.990877071066365,
images/exp2b_trial_65_colour1_distractors4_r.png,r,3,1,4,0,,,,,0,183,183,183,,,,,,,,,,,,,,,,,,,,,,,,,,,,,,,,,,,,,,,,,,,541.2350547819806,None,2,0.3709307679964695,541.2350547819806,None,,,,,,,,,,,,,,,,None,None,None,,None,None,541.6549552789947,None,3,1,0.6555297110171523,541.6549552789947,None,542.3024089619925,None,None,None,None,,15,001,2023_Jan_20_1246,searchDisc5,2021.2.3,59.990877071066365,
images/exp2c_trial_134_colour2_distractors4_r.png,r,3,2,4,0,,,,,0,184,184,184,,,,,,,,,,,,,,,,,,,,,,,,,,,,,,,,,,,,,,,,,,,542.3190550429863,None,2,0.33693934298935346,542.3190550429863,None,,,,,,,,,,,,,,,,None,None,None,,None,None,542.7026174469793,None,3,1,0.573239260003902,542.7026174469793,None,543.2692241679819,None,None,None,None,,15,001,2023_Jan_20_1246,searchDisc5,2021.2.3,59.990877071066365,
images/exp2a_trial_173_colour3_distractors19_r.png,r,3,3,19,0,,,,,0,185,185,185,,,,,,,,,,,,,,,,,,,,,,,,,,,,,,,,,,,,,,,,,,,543.2864385449793,None,2,0.42395236299489625,543.2864385449793,None,,,,,,,,,,,,,,,,None,None,None,,None,None,543.7546889869845,None,3,1,0.7000484010204673,543.7546889869845,None,544.4524408739875,None,None,None,None,,15,001,2023_Jan_20_1246,searchDisc5,2021.2.3,59.990877071066365,
images/exp2a_trial_107_colour3_distractors4_r.png,r,3,3,4,0,,,,,0,186,186,186,,,,,,,,,,,,,,,,,,,,,,,,,,,,,,,,,,,,,,,,,,,544.4695777159941,None,2,0.37142964100348763,544.4695777159941,None,,,,,,,,,,,,,,,,None,None,None,,None,None,544.8872634219879,None,3,1,0.9709915579878725,544.8872634219879,None,545.8518505469896,None,None,None,None,,15,001,2023_Jan_20_1246,searchDisc5,2021.2.3,59.990877071066365,
images/exp2b_trial_267_colour3_distractors4_r.png,r,3,3,4,0,,,,,0,187,187,187,,,,,,,,,,,,,,,,,,,,,,,,,,,,,,,,,,,,,,,,,,,545.8694302469958,None,2,0.33941888000117615,545.8694302469958,None,,,,,,,,,,,,,,,,None,None,None,,None,None,546.25270782999,None,3,1,0.60417291498743,546.25270782999,None,546.8519185409881,None,None,None,None,,15,001,2023_Jan_20_1246,searchDisc5,2021.2.3,59.990877071066365,
images/exp1a_trial_22_colour2_distractors9_l.png,l,1,2,9,0,,,,,0,188,188,188,,,,,,,,,,,,,,,,,,,,,,,,,,,,,,,,,,,,,,,,,,,546.8693316139979,None,2,0.3549915700277779,546.8693316139979,None,,,,,,,,,,,,,,,,None,None,None,,None,None,547.2696796419914,None,1,1,0.6381248859979678,547.2696796419914,None,547.9026866609987,None,None,None,None,,15,001,2023_Jan_20_1246,searchDisc5,2021.2.3,59.990877071066365,
images/exp2a_trial_306_colour1_distractors19_l.png,l,1,1,19,0,,,,,0,189,189,189,,,,,,,,,,,,,,,,,,,,,,,,,,,,,,,,,,,,,,,,,,,547.9199873929902,None,2,0.3385597190062981,547.9199873929902,None,,,,,,,,,,,,,,,,None,None,None,,None,None,548.3035139800049,None,1,1,0.6378003969730344,548.3035139800049,None,548.9372222709993,None,None,None,None,,15,001,2023_Jan_20_1246,searchDisc5,2021.2.3,59.990877071066365,
images/exp1a_trial_198_colour2_distractors4_r.png,r,3,2,4,0,,,,,0,190,190,190,,,,,,,,,,,,,,,,,,,,,,,,,,,,,,,,,,,,,,,,,,,548.9533044379787,None,2,0.35338133201003075,548.9533044379787,None,,,,,,,,,,,,,,,,None,None,None,,None,None,549.3548438260041,None,3,1,0.587957471027039,549.3548438260041,None,549.9360720979806,None,None,None,None,,15,001,2023_Jan_20_1246,searchDisc5,2021.2.3,59.990877071066365,
images/exp2a_trial_83_colour1_distractors31_l.png,l,1,1,31,0,,,,,0,191,191,191,,,,,,,,,,,,,,,,,,,,,,,,,,,,,,,,,,,,,,,,,,,549.9526889080007,None,2,0.3897522100014612,549.9526889080007,None,,,,,,,,,,,,,,,,None,None,None,,None,None,550.3880467309791,None,1,1,0.5680804369912948,550.3880467309791,None,550.952733636985,None,None,None,None,,15,001,2023_Jan_20_1246,searchDisc5,2021.2.3,59.990877071066365,
images/exp1a_trial_90_colour3_distractors4_l.png,l,1,3,4,0,,,,,0,192,192,192,,,,,,,,,,,,,,,,,,,,,,,,,,,,,,,,,,,,,,,,,,,550.9693484049931,None,2,0.37344911400577985,550.9693484049931,None,,,,,,,,,,,,,,,,None,None,None,,None,None,551.3884738819906,None,1,1,0.7703602809924632,551.3884738819906,None,552.1528897699958,None,None,None,None,,15,001,2023_Jan_20_1246,searchDisc5,2021.2.3,59.990877071066365,
images/exp2b_trial_123_colour3_distractors9_l.png,l,1,3,9,0,,,,,0,193,193,193,,,,,,,,,,,,,,,,,,,,,,,,,,,,,,,,,,,,,,,,,,,552.1699907470029,None,2,0.404165930027375,552.1699907470029,None,,,,,,,,,,,,,,,,None,None,None,,None,None,552.6224102419801,None,1,1,0.6221491099859122,552.6224102419801,None,553.2362053589953,None,None,None,None,,15,001,2023_Jan_20_1246,searchDisc5,2021.2.3,59.990877071066365,
images/exp1a_trial_97_colour1_distractors4_r.png,r,3,1,4,0,,,,,0,194,194,194,,,,,,,,,,,,,,,,,,,,,,,,,,,,,,,,,,,,,,,,,,,553.2522074799926,None,2,0.3712407469865866,553.2522074799926,None,,,,,,,,,,,,,,,,None,None,None,,None,None,553.671644906979,None,3,1,0.9879754149878863,553.671644906979,None,554.6529663509922,None,None,None,None,,15,001,2023_Jan_20_1246,searchDisc5,2021.2.3,59.990877071066365,
images/exp2a_trial_240_colour1_distractors4_l.png,l,1,1,4,0,,,,,0,195,195,195,,,,,,,,,,,,,,,,,,,,,,,,,,,,,,,,,,,,,,,,,,,554.6703087079804,None,2,0.403954359004274,554.6703087079804,None,,,,,,,,,,,,,,,,None,None,None,,None,None,555.1226524829981,None,1,1,0.6230749349924736,555.1226524829981,None,555.7364642380038,None,None,None,None,,15,001,2023_Jan_20_1246,searchDisc5,2021.2.3,59.990877071066365,
images/exp2c_trial_109_colour3_distractors19_r.png,r,3,3,19,0,,,,,0,196,196,196,,,,,,,,,,,,,,,,,,,,,,,,,,,,,,,,,,,,,,,,,,,555.7547689409985,None,2,1.8704019950237125,555.7547689409985,None,,,,,,,,,,,,,,,,None,None,None,,None,None,557.6697141969926,None,3,1,1.105639818997588,557.6697141969926,None,558.7706385419937,None,None,None,None,,15,001,2023_Jan_20_1246,searchDisc5,2021.2.3,59.990877071066365,
images/exp2c_trial_103_colour2_distractors9_r.png,r,3,2,9,0,,,,,0,197,197,197,,,,,,,,,,,,,,,,,,,,,,,,,,,,,,,,,,,,,,,,,,,558.7869146069861,None,2,0.4387003140000161,558.7869146069861,None,,,,,,,,,,,,,,,,None,None,None,,None,None,559.2700614139903,None,3,1,0.7360336400161032,559.2700614139903,None,560.0030296559911,None,None,None,None,,15,001,2023_Jan_20_1246,searchDisc5,2021.2.3,59.990877071066365,
images/exp2a_trial_101_colour2_distractors1_r.png,r,3,2,1,0,,,,,0,198,198,198,,,,,,,,,,,,,,,,,,,,,,,,,,,,,,,,,,,,,,,,,,,560.0221447899821,None,2,0.3739486809936352,560.0221447899821,None,,,,,,,,,,,,,,,,None,None,None,,None,None,560.4369860599982,None,3,1,0.5531706609763205,560.4369860599982,None,560.9863176339771,None,None,None,None,,15,001,2023_Jan_20_1246,searchDisc5,2021.2.3,59.990877071066365,
images/exp2c_trial_149_colour2_distractors4_l.png,l,1,2,4,0,,,,,0,199,199,199,,,,,,,,,,,,,,,,,,,,,,,,,,,,,,,,,,,,,,,,,,,561.0027693320008,None,2,0.33873568699345924,561.0027693320008,None,,,,,,,,,,,,,,,,None,None,None,,None,None,561.3873298039834,None,1,1,0.6747529360000044,561.3873298039834,None,562.0542151180038,None,None,None,None,,15,001,2023_Jan_20_1246,searchDisc5,2021.2.3,59.990877071066365,
images/exp2b_trial_248_colour2_distractors31_l.png,l,1,2,31,0,,,,,0,200,200,200,,,,,,,,,,,,,,,,,,,,,,,,,,,,,,,,,,,,,,,,,,,562.0702955290035,None,2,0.2523499589879066,562.0702955290035,None,,,,,,,,,,,,,,,,None,None,None,,None,None,562.3705225859885,None,1,1,0.6689124259864911,562.3705225859885,None,563.0364413799892,None,None,None,None,,15,001,2023_Jan_20_1246,searchDisc5,2021.2.3,59.990877071066365,
images/exp2c_trial_283_colour3_distractors9_l.png,l,1,3,9,0,,,,,0,201,201,201,,,,,,,,,,,,,,,,,,,,,,,,,,,,,,,,,,,,,,,,,,,563.0538555620005,None,2,0.3053837119950913,563.0538555620005,None,,,,,,,,,,,,,,,,None,None,None,,None,None,563.4030224150047,None,1,1,0.7379390120040625,563.4030224150047,None,564.1366813249828,None,None,None,None,,15,001,2023_Jan_20_1246,searchDisc5,2021.2.3,59.990877071066365,
images/exp2b_trial_125_colour3_distractors31_l.png,l,1,3,31,0,,,,,0,202,202,202,,,,,,,,,,,,,,,,,,,,,,,,,,,,,,,,,,,,,,,,,,,564.1540714509902,None,2,0.5217627770034596,564.1540714509902,None,,,,,,,,,,,,,,,,None,None,None,,None,None,564.721917147981,None,1,1,0.687747471005423,564.721917147981,None,565.404234389984,None,None,None,None,,15,001,2023_Jan_20_1246,searchDisc5,2021.2.3,59.990877071066365,
images/exp1a_trial_178_colour1_distractors19_l.png,l,1,1,19,0,,,,,0,203,203,203,,,,,,,,,,,,,,,,,,,,,,,,,,,,,,,,,,,,,,,,,,,565.421506536979,None,2,0.31810455600498244,565.421506536979,None,,,,,,,,,,,,,,,,None,None,None,,None,None,565.7866207799816,None,1,1,0.820042049017502,565.7866207799816,None,566.6034255109902,None,None,None,None,,15,001,2023_Jan_20_1246,searchDisc5,2021.2.3,59.990877071066365,
images/exp1a_trial_111_colour1_distractors1_l.png,l,1,1,1,0,,,,,0,204,204,204,,,,,,,,,,,,,,,,,,,,,,,,,,,,,,,,,,,,,,,,,,,566.6196851549903,None,2,0.3858915460004937,566.6196851549903,None,,,,,,,,,,,,,,,,None,None,None,,None,None,567.0533054900006,None,1,1,0.6731425180041697,567.0533054900006,None,567.7199586439878,None,None,None,None,,15,001,2023_Jan_20_1246,searchDisc5,2021.2.3,59.990877071066365,
images/exp2b_trial_78_colour3_distractors31_r.png,r,3,3,31,0,,,,,0,205,205,205,,,,,,,,,,,,,,,,,,,,,,,,,,,,,,,,,,,,,,,,,,,567.7374120820023,None,2,0.33758744900114834,567.7374120820023,None,,,,,,,,,,,,,,,,None,None,None,,None,None,568.1197124669852,None,3,1,0.7877213699975982,568.1197124669852,None,568.9044502599921,None,None,None,None,,15,001,2023_Jan_20_1246,searchDisc5,2021.2.3,59.990877071066365,
images/exp2c_trial_209_colour1_distractors9_l.png,l,1,1,9,0,,,,,0,206,206,206,,,,,,,,,,,,,,,,,,,,,,,,,,,,,,,,,,,,,,,,,,,568.9197718630021,None,2,0.3231384149985388,568.9197718630021,None,,,,,,,,,,,,,,,,None,None,None,,None,None,569.2894790220016,None,1,1,0.8021723300043959,569.2894790220016,None,570.0864157719828,None,None,None,None,,15,001,2023_Jan_20_1246,searchDisc5,2021.2.3,59.990877071066365,
images/exp2a_trial_44_colour3_distractors9_r.png,r,3,3,9,0,,,,,0,207,207,207,,,,,,,,,,,,,,,,,,,,,,,,,,,,,,,,,,,,,,,,,,,570.1031191920047,None,2,0.855286261998117,570.1031191920047,None,,,,,,,,,,,,,,,,None,None,None,,None,None,571.0063354969898,None,3,1,0.6872962299967185,571.0063354969898,None,571.6863505559799,None,None,None,None,,15,001,2023_Jan_20_1246,searchDisc5,2021.2.3,59.990877071066365,
images/exp2c_trial_73_colour2_distractors31_r.png,r,3,2,31,0,,,,,0,208,208,208,,,,,,,,,,,,,,,,,,,,,,,,,,,,,,,,,,,,,,,,,,,571.7062139549816,None,2,0.6548898559994996,571.7062139549816,None,,,,,,,,,,,,,,,,None,None,None,,None,None,572.403469773999,None,3,1,0.753647991019534,572.403469773999,None,573.1534295349906,None,None,None,None,,15,001,2023_Jan_20_1246,searchDisc5,2021.2.3,59.990877071066365,
images/exp2b_trial_310_colour2_distractors9_l.png,l,1,2,9,0,,,,,0,209,209,209,,,,,,,,,,,,,,,,,,,,,,,,,,,,,,,,,,,,,,,,,,,573.1726139359816,None,2,0.37392731400905177,573.1726139359816,None,,,,,,,,,,,,,,,,None,None,None,,None,None,573.5888333939947,None,1,1,0.618149734014878,573.5888333939947,None,574.203380583995,None,None,None,None,,15,001,2023_Jan_20_1246,searchDisc5,2021.2.3,59.990877071066365,
images/exp2b_trial_287_colour0_distractors0_l.png,l,1,0,0,0,,,,,0,210,210,210,,,,,,,,,,,,,,,,,,,,,,,,,,,,,,,,,,,,,,,,,,,574.2204589009925,None,2,0.3886363299970981,574.2204589009925,None,,,,,,,,,,,,,,,,None,None,None,,None,None,574.6567029689904,None,1,1,0.63921644500806,574.6567029689904,None,575.2868496329814,None,None,None,None,,15,001,2023_Jan_20_1246,searchDisc5,2021.2.3,59.990877071066365,
images/exp2b_trial_192_colour1_distractors1_r.png,r,3,1,1,0,,,,,0,211,211,211,,,,,,,,,,,,,,,,,,,,,,,,,,,,,,,,,,,,,,,,,,,575.3033445339825,None,2,0.4047727750148624,575.3033445339825,None,,,,,,,,,,,,,,,,None,None,None,,None,None,575.7560135989916,None,3,1,0.606205021002097,575.7560135989916,None,576.353517788992,None,None,None,None,,15,001,2023_Jan_20_1246,searchDisc5,2021.2.3,59.990877071066365,
images/exp1a_trial_68_colour1_distractors31_r.png,r,3,1,31,0,,,,,0,212,212,212,,,,,,,,,,,,,,,,,,,,,,,,,,,,,,,,,,,,,,,,,,,576.3699846849777,None,2,0.3569060579757206,576.3699846849777,None,,,,,,,,,,,,,,,,None,None,None,,None,None,576.7721402710013,None,3,1,2.264496338000754,576.7721402710013,None,579.0369484689785,None,None,None,None,,15,001,2023_Jan_20_1246,searchDisc5,2021.2.3,59.990877071066365,
images/exp2c_trial_286_colour0_distractors0_r.png,r,3,0,0,0,,,,,0,213,213,213,,,,,,,,,,,,,,,,,,,,,,,,,,,,,,,,,,,,,,,,,,,579.0544754139846,None,2,0.6224565339798573,579.0544754139846,None,,,,,,,,,,,,,,,,None,None,None,,None,None,579.7209840769938,None,3,1,0.5887559779803269,579.7209840769938,None,580.3037287169776,None,None,None,None,,15,001,2023_Jan_20_1246,searchDisc5,2021.2.3,59.990877071066365,
images/exp2c_trial_225_colour1_distractors4_r.png,r,3,1,4,0,,,,,0,214,214,214,,,,,,,,,,,,,,,,,,,,,,,,,,,,,,,,,,,,,,,,,,,580.3207489920023,None,2,0.43976144699263386,580.3207489920023,None,,,,,,,,,,,,,,,,None,None,None,,None,None,580.8039040580043,None,3,1,0.7216650859918445,580.8039040580043,None,581.5224406539986,None,None,None,None,,15,001,2023_Jan_20_1246,searchDisc5,2021.2.3,59.990877071066365,
images/exp2b_trial_268_colour3_distractors9_r.png,r,3,3,9,0,,,,,0,215,215,215,,,,,,,,,,,,,,,,,,,,,,,,,,,,,,,,,,,,,,,,,,,581.5383675810008,None,2,1.0192760939826258,581.5383675810008,None,,,,,,,,,,,,,,,,None,None,None,,None,None,582.6060888069915,None,3,1,0.5882895690156147,582.6060888069915,None,583.1871982679935,None,None,None,None,,15,001,2023_Jan_20_1246,searchDisc5,2021.2.3,59.990877071066365,
images/exp1a_trial_127_colour0_distractors0_l.png,l,1,0,0,0,,,,,0,216,216,216,,,,,,,,,,,,,,,,,,,,,,,,,,,,,,,,,,,,,,,,,,,583.2036796890025,None,2,0.37156512300134636,583.2036796890025,None,,,,,,,,,,,,,,,,None,None,None,,None,None,583.6225088219799,None,3,0,0.4385636179940775,583.6225088219799,None,584.0532142490032,None,None,None,None,,15,001,2023_Jan_20_1246,searchDisc5,2021.2.3,59.990877071066365,
images/exp2a_trial_121_colour3_distractors1_l.png,l,1,3,1,0,,,,,0,217,217,217,,,,,,,,,,,,,,,,,,,,,,,,,,,,,,,,,,,,,,,,,,,584.0724681050051,None,2,0.9384432699880563,584.0724681050051,None,,,,,,,,,,,,,,,,None,None,None,,None,None,585.0546970680007,None,1,1,0.439723296003649,585.0546970680007,None,585.4871409609972,None,None,None,None,,15,001,2023_Jan_20_1246,searchDisc5,2021.2.3,59.990877071066365,
images/exp2c_trial_175_colour1_distractors1_l.png,l,1,1,1,0,,,,,0,218,218,218,,,,,,,,,,,,,,,,,,,,,,,,,,,,,,,,,,,,,,,,,,,585.5042375269986,None,2,0.3711373579862993,585.5042375269986,None,,,,,,,,,,,,,,,,None,None,None,,None,None,585.922424578981,None,1,1,0.773150105989771,585.922424578981,None,586.6872999279934,None,None,None,None,,15,001,2023_Jan_20_1246,searchDisc5,2021.2.3,59.990877071066365,
images/exp2c_trial_268_colour3_distractors9_r.png,r,3,3,9,0,,,,,0,219,219,219,,,,,,,,,,,,,,,,,,,,,,,,,,,,,,,,,,,,,,,,,,,586.7045317709853,None,2,0.6903498820029199,586.7045317709853,None,,,,,,,,,,,,,,,,None,None,None,,None,None,587.4379817319859,None,3,1,0.8023390299931634,587.4379817319859,None,588.2372305179946,None,None,None,None,,15,001,2023_Jan_20_1246,searchDisc5,2021.2.3,59.990877071066365,
images/exp1a_trial_243_colour1_distractors31_l.png,l,1,1,31,0,,,,,0,220,220,220,,,,,,,,,,,,,,,,,,,,,,,,,,,,,,,,,,,,,,,,,,,588.2542274149891,None,2,0.422991978994105,588.2542274149891,None,,,,,,,,,,,,,,,,None,None,None,,None,None,588.7226227759966,None,1,1,1.0162685110117309,588.7226227759966,None,589.7383630279859,None,None,None,None,,15,001,2023_Jan_20_1246,searchDisc5,2021.2.3,59.990877071066365,
images/exp2b_trial_185_colour3_distractors1_l.png,l,1,3,1,0,,,,,0,221,221,221,,,,,,,,,,,,,,,,,,,,,,,,,,,,,,,,,,,,,,,,,,,589.7557939699909,None,2,0.3888390240026638,589.7557939699909,None,,,,,,,,,,,,,,,,None,None,None,,None,None,590.1900935049925,None,1,1,0.787498773977859,590.1900935049925,None,590.9704753519967,None,None,None,None,,15,001,2023_Jan_20_1246,searchDisc5,2021.2.3,59.990877071066365,
images/exp2b_trial_107_colour3_distractors4_r.png,r,3,3,4,0,,,,,0,222,222,222,,,,,,,,,,,,,,,,,,,,,,,,,,,,,,,,,,,,,,,,,,,590.9878995420004,None,2,0.3545207550050691,590.9878995420004,None,,,,,,,,,,,,,,,,None,None,None,,None,None,591.3900073010009,None,3,1,0.6070626440050546,591.3900073010009,None,591.9872997659899,None,None,None,None,,15,001,2023_Jan_20_1246,searchDisc5,2021.2.3,59.990877071066365,
images/exp2c_trial_301_colour3_distractors19_r.png,r,3,3,19,0,,,,,0,223,223,223,,,,,,,,,,,,,,,,,,,,,,,,,,,,,,,,,,,,,,,,,,,592.0045703009819,None,2,0.3355692189943511,592.0045703009819,None,,,,,,,,,,,,,,,,None,None,None,,None,None,592.3877094929921,None,3,1,0.8732269289903343,592.3877094929921,None,593.2540664699976,None,None,None,None,,15,001,2023_Jan_20_1246,searchDisc5,2021.2.3,59.990877071066365,
images/exp2b_trial_26_colour3_distractors4_l.png,l,1,3,4,0,,,,,0,224,224,224,,,,,,,,,,,,,,,,,,,,,,,,,,,,,,,,,,,,,,,,,,,593.2712960079953,None,2,0.3741251449973788,593.2712960079953,None,,,,,,,,,,,,,,,,None,None,None,,None,None,593.6896094309923,None,1,1,0.6341812880127691,593.6896094309923,None,594.3207363809983,None,None,None,None,,15,001,2023_Jan_20_1246,searchDisc5,2021.2.3,59.990877071066365,
