ImageFile,targ_side,correctAnswer,colour,distNo,targetType,trials_2.thisRepN,trials_2.thisTrialN,trials_2.thisN,trials_2.thisIndex,trials.thisRepN,trials.thisTrialN,trials.thisN,trials.thisIndex,text_6.started,text_6.stopped,buttonBox.keys,buttonBox.rt,buttonBox.started,buttonBox.stopped,text_7.started,text_7.stopped,buttonBox_3.keys,buttonBox_3.rt,buttonBox_3.started,buttonBox_3.stopped,text_8.started,text_8.stopped,buttonBox_4.keys,buttonBox_4.rt,buttonBox_4.started,buttonBox_4.stopped,text_9.started,text_9.stopped,buttonBox_5.keys,buttonBox_5.rt,buttonBox_5.started,buttonBox_5.stopped,text_2.started,text_2.stopped,buttonBox_6.keys,buttonBox_6.rt,buttonBox_6.started,buttonBox_6.stopped,text_5.started,text_5.stopped,buttonBox_7.keys,buttonBox_7.rt,image_2.started,image_2.stopped,image_3.started,image_3.stopped,buttonBox_8.keys,buttonBox_8.rt,buttonBox_8.started,buttonBox_8.stopped,polygon.started,polygon.stopped,buttonBox_9.keys,buttonBox_9.rt,buttonBox_9.started,buttonBox_9.stopped,image.started,image.stopped,buttonBox_10.keys,buttonBox_10.corr,buttonBox_10.rt,buttonBox_10.started,buttonBox_10.stopped,text_4.started,text_4.stopped,text.started,text.stopped,buttonBox_11.keys,buttonBox_11.rt,buttonBox_11.started,buttonBox_11.stopped,targetTypeInstruction.started,targetTypeInstruction.stopped,buttonBox_2.keys,buttonBox_2.rt,buttonBox_2.started,buttonBox_2.stopped,dispStimuli.started,dispStimuli.stopped,buttonBox_12.keys,buttonBox_12.corr,buttonBox_12.rt,buttonBox_12.started,buttonBox_12.stopped,breakMessage.started,breakMessage.stopped,buttonBox_13.keys,buttonBox_13.started,buttonBox_13.stopped,buttonBox_13.rt,participant,session,date,expName,psychopyVersion,frameRate,
,,,,,,,,,,,,,,9.552709455019794,None,2,30.403643441037275,9.552709455019794,None,,,,,,,,,,,,,,,,,,,,,,,,,,,,,,,,,,,,,,,,,,,,,,,,,,,,,,,,,,,,,,,,,,,,,,,,,,,,,17,001,2023_Jan_20_1455,searchDisc5,2021.2.3,59.97373749586706,
,,,,,,,,,,,,,,,,,,,,39.95179746003123,None,2,27.417278818960767,39.95179746003123,None,,,,,,,,,,,,,,,,,,,,,,,,,,,,,,,,,,,,,,,,,,,,,,,,,,,,,,,,,,,,,,,,,,,,,,,17,001,2023_Jan_20_1455,searchDisc5,2021.2.3,59.97373749586706,
,,,,,,,,,,,,,,,,,,,,,,,,,,67.371440877032,None,2,6.712621067999862,67.371440877032,None,,,,,,,,,,,,,,,,,,,,,,,,,,,,,,,,,,,,,,,,,,,,,,,,,,,,,,,,,,,,,,,,,17,001,2023_Jan_20_1455,searchDisc5,2021.2.3,59.97373749586706,
,,,,,,,,,,,,,,,,,,,,,,,,,,,,,,,,74.086099105014,None,2,2.764352099969983,74.086099105014,None,,,,,,,,,,,,,,,,,,,,,,,,,,,,,,,,,,,,,,,,,,,,,,,,,,,,,,,,,,,17,001,2023_Jan_20_1455,searchDisc5,2021.2.3,59.97373749586706,
,,,,,,,,,,,,,,,,,,,,,,,,,,,,,,,,,,,,,,76.85277321602916,None,2,8.550226705963723,77.83816776500316,None,,,,,,,,,,,,,,,,,,,,,,,,,,,,,,,,,,,,,,,,,,,,,,,,,,,,,17,001,2023_Jan_20_1455,searchDisc5,2021.2.3,59.97373749586706,
,,,,,,,,,,,,,,,,,,,,,,,,,,,,,,,,,,,,,,,,,,,,86.38643097999739,None,2,11.583588893990964,,,,,,,,,,,,,,,,,,,,,,,,,,,,,,,,,,,,,,,,,,,,,,,,,17,001,2023_Jan_20_1455,searchDisc5,2021.2.3,59.97373749586706,
,,,,,,,,,,,,,,,,,,,,,,,,,,,,,,,,,,,,,,,,,,,,,,,,100.96992167900316,None,100.96992167900316,None,2,4.114770998014137,100.96992167900316,None,,,,,,,,,,,,,,,,,,,,,,,,,,,,,,,,,,,,,,,,,17,001,2023_Jan_20_1455,searchDisc5,2021.2.3,59.97373749586706,
Practice arrays/exp1a_trial_27_colour3_distractors9_l.png,l,1,,,,0,0,0,12,,,,,,,,,,,,,,,,,,,,,,,,,,,,,,,,,,,,,,,,,,,,,,,105.12022249301663,None,2,8.45026712701656,105.12022249301663,None,113.62013986101374,None,1,1,1.3582418740261346,113.62013986101374,None,114.96986989298603,None,,,,,,,,,,,,,,,,,,,,,,,,,,17,001,2023_Jan_20_1455,searchDisc5,2021.2.3,59.97373749586706,
Practice arrays/exp1a_trial_10_colour3_distractors1_r.png,r,3,,,,0,1,1,4,,,,,,,,,,,,,,,,,,,,,,,,,,,,,,,,,,,,,,,,,,,,,,,116.97233115002746,None,2,0.7330307579832152,116.97233115002746,None,117.7561800039839,None,3,1,0.8174761509872042,117.7561800039839,None,118.57078457297757,None,,,,,,,,,,,,,,,,,,,,,,,,,,17,001,2023_Jan_20_1455,searchDisc5,2021.2.3,59.97373749586706,
Practice arrays/exp1a_trial_1_colour1_distractors4_r.png,r,3,,,,0,2,2,1,,,,,,,,,,,,,,,,,,,,,,,,,,,,,,,,,,,,,,,,,,,,,,,120.57269007503055,None,2,0.4472069509793073,120.57269007503055,None,121.0727996120113,None,3,1,1.3522271219990216,121.0727996120113,None,122.42031054000836,None,,,,,,,,,,,,,,,,,,,,,,,,,,17,001,2023_Jan_20_1455,searchDisc5,2021.2.3,59.97373749586706,
Practice arrays/exp1a_trial_14_colour3_distractors31_r.png,r,3,,,,0,3,3,6,,,,,,,,,,,,,,,,,,,,,,,,,,,,,,,,,,,,,,,,,,,,,,,124.42293884698302,None,2,0.5161105010192841,124.42293884698302,None,124.99043178802822,None,3,1,0.8306385049945675,124.99043178802822,None,125.8208824400208,None,,,,,,,,,,,,,,,,,,,,,,,,,,17,001,2023_Jan_20_1455,searchDisc5,2021.2.3,59.97373749586706,
Practice arrays/exp1a_trial_8_colour2_distractors19_r.png,r,3,,,,0,4,4,3,,,,,,,,,,,,,,,,,,,,,,,,,,,,,,,,,,,,,,,,,,,,,,,127.82275852101156,None,2,0.613826340995729,127.82275852101156,None,128.48696125397692,None,3,1,0.7496326619875617,128.48696125397692,None,129.23737131798407,None,,,,,,,,,,,,,,,,,,,,,,,,,,17,001,2023_Jan_20_1455,searchDisc5,2021.2.3,59.97373749586706,
Practice arrays/exp1a_trial_17_colour1_distractors9_l.png,l,1,,,,0,5,5,7,,,,,,,,,,,,,,,,,,,,,,,,,,,,,,,,,,,,,,,,,,,,,,,131.23960742203053,None,2,0.44738121202681214,131.23960742203053,None,131.73979682597565,None,1,1,0.6696764699881896,131.73979682597565,None,132.40427044400712,None,,,,,,,,,,,,,,,,,,,,,,,,,,17,001,2023_Jan_20_1455,searchDisc5,2021.2.3,59.97373749586706,
Practice arrays/exp1a_trial_16_colour1_distractors4_l.png,l,1,,,,0,6,6,13,,,,,,,,,,,,,,,,,,,,,,,,,,,,,,,,,,,,,,,,,,,,,,,134.4055101069971,None,2,0.41353523498401046,134.4055101069971,None,134.87097595800878,None,1,1,0.771143049991224,134.87097595800878,None,135.63779815100133,None,,,,,,,,,,,,,,,,,,,,,,,,,,17,001,2023_Jan_20_1455,searchDisc5,2021.2.3,59.97373749586706,
Practice arrays/exp1a_trial_21_colour2_distractors4_l.png,l,1,,,,0,7,7,9,,,,,,,,,,,,,,,,,,,,,,,,,,,,,,,,,,,,,,,,,,,,,,,137.6376884090132,None,2,0.5160275030066259,137.6376884090132,None,138.20457665499998,None,1,1,0.7729654820286669,138.20457665499998,None,138.97126068198122,None,,,,,,,,,,,,,,,,,,,,,,,,,,17,001,2023_Jan_20_1455,searchDisc5,2021.2.3,59.97373749586706,
Practice arrays/exp1a_trial_7_colour2_distractors9_r.png,r,3,,,,0,8,8,2,,,,,,,,,,,,,,,,,,,,,,,,,,,,,,,,,,,,,,,,,,,,,,,140.97318472102052,None,2,0.8324893349781632,140.97318472102052,None,141.8568826239789,None,3,1,0.69833430001745,141.8568826239789,None,142.55467786901863,None,,,,,,,,,,,,,,,,,,,,,,,,,,17,001,2023_Jan_20_1455,searchDisc5,2021.2.3,59.97373749586706,
Practice arrays/exp1a_trial_25_colour3_distractors1_l.png,l,1,,,,0,9,9,11,,,,,,,,,,,,,,,,,,,,,,,,,,,,,,,,,,,,,,,,,,,,,,,144.55685082898708,None,2,0.9805907330010086,144.55685082898708,None,145.58795139199356,None,1,1,0.7209142100182362,145.58795139199356,None,146.30463521101046,None,,,,,,,,,,,,,,,,,,,,,,,,,,17,001,2023_Jan_20_1455,searchDisc5,2021.2.3,59.97373749586706,
Practice arrays/exp1a_trial_0_colour1_distractors1_r.png,r,3,,,,0,10,10,0,,,,,,,,,,,,,,,,,,,,,,,,,,,,,,,,,,,,,,,,,,,,,,,148.3068031090079,None,2,0.7807159919757396,148.3068031090079,None,149.13813821499934,None,3,1,0.8223817219841294,149.13813821499934,None,149.9544633870246,None,,,,,,,,,,,,,,,,,,,,,,,,,,17,001,2023_Jan_20_1455,searchDisc5,2021.2.3,59.97373749586706,
Practice arrays/exp1a_trial_31_colour0_distractors0_l.png,l,1,,,,0,11,11,15,,,,,,,,,,,,,,,,,,,,,,,,,,,,,,,,,,,,,,,,,,,,,,,151.9564311549766,None,2,0.7489835229935125,151.9564311549766,None,152.75486893497873,None,1,1,0.5379387619905174,152.75486893497873,None,153.28817332501058,None,,,,,,,,,,,,,,,,,,,,,,,,,,17,001,2023_Jan_20_1455,searchDisc5,2021.2.3,59.97373749586706,
Practice arrays/exp1a_trial_30_colour0_distractors0_r.png,r,3,,,,0,12,12,14,,,,,,,,,,,,,,,,,,,,,,,,,,,,,,,,,,,,,,,,,,,,,,,155.2902727139881,None,2,0.44726069597527385,155.2902727139881,None,155.79022925900063,None,3,1,0.5395086490316316,155.79022925900063,None,156.32146346202353,None,,,,,,,,,,,,,,,,,,,,,,,,,,17,001,2023_Jan_20_1455,searchDisc5,2021.2.3,59.97373749586706,
Practice arrays/exp1a_trial_23_colour2_distractors19_l.png,l,1,,,,0,13,13,10,,,,,,,,,,,,,,,,,,,,,,,,,,,,,,,,,,,,,,,,,,,,,,,158.32371424901066,None,2,0.5805435010115616,158.32371424901066,None,158.95508726598928,None,1,1,0.6016939369728789,158.95508726598928,None,159.55507195502287,None,,,,,,,,,,,,,,,,,,,,,,,,,,17,001,2023_Jan_20_1455,searchDisc5,2021.2.3,59.97373749586706,
Practice arrays/exp1a_trial_18_colour1_distractors19_l.png,l,1,,,,0,14,14,8,,,,,,,,,,,,,,,,,,,,,,,,,,,,,,,,,,,,,,,,,,,,,,,161.55664759501815,None,2,0.447091776994057,161.55664759501815,None,162.05722130497452,None,1,1,0.6188651809934527,162.05722130497452,None,162.67177716101287,None,,,,,,,,,,,,,,,,,,,,,,,,,,17,001,2023_Jan_20_1455,searchDisc5,2021.2.3,59.97373749586706,
Practice arrays/exp1a_trial_12_colour3_distractors9_r.png,r,3,,,,0,15,15,5,,,,,,,,,,,,,,,,,,,,,,,,,,,,,,,,,,,,,,,,,,,,,,,164.67388032801682,None,2,0.6306095739710145,164.67388032801682,None,165.35476714302786,None,3,1,0.6553237340413034,165.35476714302786,None,166.0052547759842,None,,,,,,,,,,,,,,,,,,,,,,,,,,17,001,2023_Jan_20_1455,searchDisc5,2021.2.3,59.97373749586706,
,,,,,,,,,,,,,,,,,,,,,,,,,,,,,,,,,,,,,,,,,,,,,,,,,,,,,,,,,,,,,,,,,,,,,,,168.09054013201967,None,2,7.19806022598641,169.05727052298607,None,,,,,,,,,,,,,,,,,,,,17,001,2023_Jan_20_1455,searchDisc5,2021.2.3,59.97373749586706,
images/exp2a_trial_315_colour3_distractors9_l.png,l,1,3,9,0,,,,,0,0,0,0,,,,,,,,,,,,,,,,,,,,,,,,,,,,,,,,,,,,,,,,,,,182.8723183189868,None,2,0.7610697009949945,182.8723183189868,None,,,,,,,,,,,,,,,,176.8577989040059,None,2,4.049200155015569,178.82417681399966,None,183.69728972000303,None,1,1,0.5812689170124941,183.69728972000303,None,184.28930781697852,None,None,None,None,,17,001,2023_Jan_20_1455,searchDisc5,2021.2.3,59.97373749586706,
images/exp2b_trial_268_colour3_distractors9_r.png,r,3,3,9,0,,,,,0,1,1,1,,,,,,,,,,,,,,,,,,,,,,,,,,,,,,,,,,,,,,,,,,,184.30772020702716,None,2,0.8533240600372665,184.30772020702716,None,,,,,,,,,,,,,,,,None,None,None,,None,None,185.20774952397915,None,3,1,0.8045065709738992,185.20774952397915,None,186.00597350900642,None,None,None,None,,17,001,2023_Jan_20_1455,searchDisc5,2021.2.3,59.97373749586706,
images/exp2b_trial_156_colour3_distractors19_l.png,l,1,3,19,0,,,,,0,2,2,2,,,,,,,,,,,,,,,,,,,,,,,,,,,,,,,,,,,,,,,,,,,186.02218865498435,None,2,0.7218717350042425,186.02218865498435,None,,,,,,,,,,,,,,,,None,None,None,,None,None,186.78903880901635,None,1,1,0.6180511550046504,186.78903880901635,None,187.4059691089962,None,None,None,None,,17,001,2023_Jan_20_1455,searchDisc5,2021.2.3,59.97373749586706,
images/exp2a_trial_307_colour1_distractors31_l.png,l,1,1,31,0,,,,,0,3,3,3,,,,,,,,,,,,,,,,,,,,,,,,,,,,,,,,,,,,,,,,,,,187.4225440659793,None,2,0.6071461620158516,187.4225440659793,None,,,,,,,,,,,,,,,,None,None,None,,None,None,188.07506723800907,None,1,1,0.6143005859921686,188.07506723800907,None,188.6893730149779,None,None,None,None,,17,001,2023_Jan_20_1455,searchDisc5,2021.2.3,59.97373749586706,
images/exp2c_trial_27_colour3_distractors9_l.png,l,1,3,9,0,,,,,0,4,4,4,,,,,,,,,,,,,,,,,,,,,,,,,,,,,,,,,,,,,,,,,,,188.7050791340298,None,2,0.6055376330041327,188.7050791340298,None,,,,,,,,,,,,,,,,None,None,None,,None,None,189.35805181402247,None,1,1,0.669711064954754,189.35805181402247,None,190.02283713298965,None,None,None,None,,17,001,2023_Jan_20_1455,searchDisc5,2021.2.3,59.97373749586706,
images/exp2c_trial_270_colour3_distractors31_r.png,r,3,3,31,0,,,,,0,5,5,5,,,,,,,,,,,,,,,,,,,,,,,,,,,,,,,,,,,,,,,,,,,190.03873625397682,None,2,0.4543328970321454,190.03873625397682,None,,,,,,,,,,,,,,,,None,None,None,,None,None,190.5386024559848,None,3,1,0.6699062670231797,190.5386024559848,None,191.2063282319752,None,None,None,None,,17,001,2023_Jan_20_1455,searchDisc5,2021.2.3,59.97373749586706,
images/exp1a_trial_295_colour2_distractors9_r.png,r,3,2,9,0,,,,,0,6,6,6,,,,,,,,,,,,,,,,,,,,,,,,,,,,,,,,,,,,,,,,,,,191.22234156599734,None,2,0.5035752899711952,191.22234156599734,None,,,,,,,,,,,,,,,,None,None,None,,None,None,191.7747129870113,None,3,1,0.7366041679633781,191.7747129870113,None,192.50602480398373,None,None,None,None,,17,001,2023_Jan_20_1455,searchDisc5,2021.2.3,59.97373749586706,
images/exp2c_trial_188_colour3_distractors19_l.png,l,1,3,19,0,,,,,0,7,7,7,,,,,,,,,,,,,,,,,,,,,,,,,,,,,,,,,,,,,,,,,,,192.52255354699446,None,2,0.5379965570173226,192.52255354699446,None,,,,,,,,,,,,,,,,None,None,None,,None,None,193.10822349000955,None,1,1,0.8360974550014362,193.10822349000955,None,193.93939129602512,None,None,None,None,,17,001,2023_Jan_20_1455,searchDisc5,2021.2.3,59.97373749586706,
images/exp2a_trial_208_colour1_distractors4_l.png,l,1,1,4,0,,,,,0,8,8,8,,,,,,,,,,,,,,,,,,,,,,,,,,,,,,,,,,,,,,,,,,,193.95535545801977,None,2,0.4705495029920712,193.95535545801977,None,,,,,,,,,,,,,,,,None,None,None,,None,None,194.47279789898312,None,1,1,0.6067077280022204,194.47279789898312,None,195.07220917697413,None,None,None,None,,17,001,2023_Jan_20_1455,searchDisc5,2021.2.3,59.97373749586706,
images/exp2b_trial_296_colour2_distractors19_r.png,r,3,2,19,0,,,,,0,9,9,9,,,,,,,,,,,,,,,,,,,,,,,,,,,,,,,,,,,,,,,,,,,195.0890631970251,None,2,0.6866006599739194,195.0890631970251,None,,,,,,,,,,,,,,,,None,None,None,,None,None,195.8228939709952,None,3,1,0.5863493920187466,195.8228939709952,None,196.40604987299884,None,None,None,None,,17,001,2023_Jan_20_1455,searchDisc5,2021.2.3,59.97373749586706,
images/exp1a_trial_262_colour2_distractors4_r.png,r,3,2,4,0,,,,,0,10,10,10,,,,,,,,,,,,,,,,,,,,,,,,,,,,,,,,,,,,,,,,,,,196.42259418801405,None,2,0.6223246849840507,196.42259418801405,None,,,,,,,,,,,,,,,,None,None,None,,None,None,197.08939105301397,None,3,1,0.570429436978884,197.08939105301397,None,197.65631835298262,None,None,None,None,,17,001,2023_Jan_20_1455,searchDisc5,2021.2.3,59.97373749586706,
images/exp1a_trial_298_colour3_distractors1_r.png,r,3,3,1,0,,,,,0,11,11,11,,,,,,,,,,,,,,,,,,,,,,,,,,,,,,,,,,,,,,,,,,,197.67257064499427,None,2,0.5376634140266106,197.67257064499427,None,,,,,,,,,,,,,,,,None,None,None,,None,None,198.25829047401203,None,3,1,0.5719796800403856,198.25829047401203,None,198.82252233401522,None,None,None,None,,17,001,2023_Jan_20_1455,searchDisc5,2021.2.3,59.97373749586706,
images/exp2b_trial_77_colour3_distractors19_r.png,r,3,3,19,0,,,,,0,12,12,12,,,,,,,,,,,,,,,,,,,,,,,,,,,,,,,,,,,,,,,,,,,198.83862286497606,None,2,0.537637536006514,198.83862286497606,None,,,,,,,,,,,,,,,,None,None,None,,None,None,199.42493663798086,None,3,1,0.50406505697174,199.42493663798086,None,199.9230029910279,None,None,None,None,,17,001,2023_Jan_20_1455,searchDisc5,2021.2.3,59.97373749586706,
images/exp2a_trial_112_colour1_distractors4_l.png,l,1,1,4,0,,,,,0,13,13,13,,,,,,,,,,,,,,,,,,,,,,,,,,,,,,,,,,,,,,,,,,,199.93940239300719,None,2,0.6040286089992151,199.93940239300719,None,,,,,,,,,,,,,,,,None,None,None,,None,None,200.5896304990165,None,1,1,0.5357014039764181,200.5896304990165,None,201.12297271700226,None,None,None,None,,17,001,2023_Jan_20_1455,searchDisc5,2021.2.3,59.97373749586706,
images/exp1a_trial_216_colour2_distractors31_l.png,l,1,2,31,0,,,,,0,14,14,14,,,,,,,,,,,,,,,,,,,,,,,,,,,,,,,,,,,,,,,,,,,201.13903363398276,None,2,0.6879284900496714,201.13903363398276,None,,,,,,,,,,,,,,,,None,None,None,,None,None,201.8723173700273,None,3,0,0.5997833290020935,201.8723173700273,None,202.47294131900998,None,None,None,None,,17,001,2023_Jan_20_1455,searchDisc5,2021.2.3,59.97373749586706,
images/exp2a_trial_210_colour1_distractors19_l.png,l,1,1,19,0,,,,,0,15,15,15,,,,,,,,,,,,,,,,,,,,,,,,,,,,,,,,,,,,,,,,,,,202.4888653170201,None,2,0.6066664339741692,202.4888653170201,None,,,,,,,,,,,,,,,,None,None,None,,None,None,203.1419728740002,None,1,1,0.6509812719887123,203.1419728740002,None,203.78953628098242,None,None,None,None,,17,001,2023_Jan_20_1455,searchDisc5,2021.2.3,59.97373749586706,
images/exp1a_trial_212_colour2_distractors1_l.png,l,1,2,1,0,,,,,0,16,16,16,,,,,,,,,,,,,,,,,,,,,,,,,,,,,,,,,,,,,,,,,,,203.80606986000203,None,2,0.5918447739677504,203.80606986000203,None,,,,,,,,,,,,,,,,None,None,None,,None,None,204.44141796202166,None,1,1,0.6017119439784437,204.44141796202166,None,205.03986046302015,None,None,None,None,,17,001,2023_Jan_20_1455,searchDisc5,2021.2.3,59.97373749586706,
images/exp2c_trial_112_colour1_distractors4_l.png,l,1,1,4,0,,,,,0,17,17,17,,,,,,,,,,,,,,,,,,,,,,,,,,,,,,,,,,,,,,,,,,,205.05816930899164,None,2,0.5750724660465494,205.05816930899164,None,,,,,,,,,,,,,,,,None,None,None,,None,None,205.6731743310229,None,1,1,0.5514428209862672,205.6731743310229,None,206.22320424802018,None,None,None,None,,17,001,2023_Jan_20_1455,searchDisc5,2021.2.3,59.97373749586706,
images/exp2c_trial_114_colour1_distractors19_l.png,l,1,1,19,0,,,,,0,18,18,18,,,,,,,,,,,,,,,,,,,,,,,,,,,,,,,,,,,,,,,,,,,206.23913339502178,None,2,0.5545192530262284,206.23913339502178,None,,,,,,,,,,,,,,,,None,None,None,,None,None,206.84142850199714,None,1,1,0.6202555759809911,206.84142850199714,None,207.45646479797432,None,None,None,None,,17,001,2023_Jan_20_1455,searchDisc5,2021.2.3,59.97373749586706,
images/exp2c_trial_310_colour2_distractors9_l.png,l,1,2,9,0,,,,,0,19,19,19,,,,,,,,,,,,,,,,,,,,,,,,,,,,,,,,,,,,,,,,,,,207.47280779498396,None,2,0.6896236980101094,207.47280779498396,None,,,,,,,,,,,,,,,,None,None,None,,None,None,208.20633840898518,None,1,1,0.5192835869966075,208.20633840898518,None,208.72341554898884,None,None,None,None,,17,001,2023_Jan_20_1455,searchDisc5,2021.2.3,59.97373749586706,
images/exp2b_trial_218_colour3_distractors4_l.png,l,1,3,4,0,,,,,0,20,20,20,,,,,,,,,,,,,,,,,,,,,,,,,,,,,,,,,,,,,,,,,,,208.7393217990175,None,2,0.6707469279645011,208.7393217990175,None,,,,,,,,,,,,,,,,None,None,None,,None,None,209.4561014790088,None,1,1,0.7391448660055175,209.4561014790088,None,210.19018693200195,None,None,None,None,,17,001,2023_Jan_20_1455,searchDisc5,2021.2.3,59.97373749586706,
images/exp2c_trial_201_colour2_distractors31_r.png,r,3,2,31,0,,,,,0,21,21,21,,,,,,,,,,,,,,,,,,,,,,,,,,,,,,,,,,,,,,,,,,,210.20839288801653,None,2,0.7057546650175937,210.20839288801653,None,,,,,,,,,,,,,,,,None,None,None,,None,None,210.95836845802842,None,3,1,0.6526269399910234,210.95836845802842,None,211.6065083460009,None,None,None,None,,17,001,2023_Jan_20_1455,searchDisc5,2021.2.3,59.97373749586706,
images/exp2b_trial_255_colour0_distractors0_l.png,l,1,0,0,0,,,,,0,22,22,22,,,,,,,,,,,,,,,,,,,,,,,,,,,,,,,,,,,,,,,,,,,211.62316717999056,None,2,0.75305657699937,211.62316717999056,None,,,,,,,,,,,,,,,,None,None,None,,None,None,212.42528681602562,None,1,1,0.6083382189972326,212.42528681602562,None,213.02336577100795,None,None,None,None,,17,001,2023_Jan_20_1455,searchDisc5,2021.2.3,59.97373749586706,
images/exp2a_trial_282_colour3_distractors4_l.png,l,1,3,4,0,,,,,0,23,23,23,,,,,,,,,,,,,,,,,,,,,,,,,,,,,,,,,,,,,,,,,,,213.04157977201976,None,2,0.6698466209927574,213.04157977201976,None,,,,,,,,,,,,,,,,None,None,None,,None,None,213.7559638490202,None,1,1,0.6376169750001281,213.7559638490202,None,214.38936538000706,None,None,None,None,,17,001,2023_Jan_20_1455,searchDisc5,2021.2.3,59.97373749586706,
images/exp2b_trial_280_colour2_distractors31_l.png,l,1,2,31,0,,,,,0,24,24,24,,,,,,,,,,,,,,,,,,,,,,,,,,,,,,,,,,,,,,,,,,,214.40841018100036,None,2,0.7386417040252127,214.40841018100036,None,,,,,,,,,,,,,,,,None,None,None,,None,None,215.19174691598164,None,1,1,0.8023000779794529,215.19174691598164,None,215.9899617370276,None,None,None,None,,17,001,2023_Jan_20_1455,searchDisc5,2021.2.3,59.97373749586706,
images/exp2c_trial_257_colour1_distractors4_r.png,r,3,1,4,0,,,,,0,25,25,25,,,,,,,,,,,,,,,,,,,,,,,,,,,,,,,,,,,,,,,,,,,216.00639298697934,None,2,0.8243054689955898,216.00639298697934,None,,,,,,,,,,,,,,,,None,None,None,,None,None,216.8729242819827,None,3,1,0.7840852469671518,216.8729242819827,None,217.656695921981,None,None,None,None,,17,001,2023_Jan_20_1455,searchDisc5,2021.2.3,59.97373749586706,
images/exp2a_trial_27_colour3_distractors9_l.png,l,1,3,9,0,,,,,0,26,26,26,,,,,,,,,,,,,,,,,,,,,,,,,,,,,,,,,,,,,,,,,,,217.6751739840256,None,2,0.738072176987771,217.6751739840256,None,,,,,,,,,,,,,,,,None,None,None,,None,None,218.45824447000632,None,1,1,0.7550768079818226,218.45824447000632,None,219.20696672001503,None,None,None,None,,17,001,2023_Jan_20_1455,searchDisc5,2021.2.3,59.97373749586706,
images/exp2b_trial_60_colour3_distractors19_l.png,l,1,3,19,0,,,,,0,27,27,27,,,,,,,,,,,,,,,,,,,,,,,,,,,,,,,,,,,,,,,,,,,219.22313257103087,None,2,0.6209127199836075,219.22313257103087,None,,,,,,,,,,,,,,,,None,None,None,,None,None,219.89007797301747,None,1,1,0.620022083981894,219.89007797301747,None,220.50703642297884,None,None,None,None,,17,001,2023_Jan_20_1455,searchDisc5,2021.2.3,59.97373749586706,
images/exp2c_trial_271_colour1_distractors1_l.png,l,1,1,1,0,,,,,0,28,28,28,,,,,,,,,,,,,,,,,,,,,,,,,,,,,,,,,,,,,,,,,,,220.52254457800882,None,2,0.7205549590289593,220.52254457800882,None,,,,,,,,,,,,,,,,None,None,None,,None,None,221.29030107700964,None,1,1,0.656286735960748,221.29030107700964,None,221.94021984598947,None,None,None,None,,17,001,2023_Jan_20_1455,searchDisc5,2021.2.3,59.97373749586706,
images/exp2b_trial_310_colour2_distractors9_l.png,l,1,2,9,0,,,,,0,29,29,29,,,,,,,,,,,,,,,,,,,,,,,,,,,,,,,,,,,,,,,,,,,221.956072054978,None,2,0.6878848759806715,221.956072054978,None,,,,,,,,,,,,,,,,None,None,None,,None,None,222.69015187799232,None,1,1,0.6042889530071989,222.69015187799232,None,223.2902729219815,None,None,None,None,,17,001,2023_Jan_20_1455,searchDisc5,2021.2.3,59.97373749586706,
images/exp2b_trial_2_colour1_distractors9_r.png,r,3,1,9,0,,,,,0,30,30,30,,,,,,,,,,,,,,,,,,,,,,,,,,,,,,,,,,,,,,,,,,,223.30665391101502,None,2,0.5900048990151845,223.30665391101502,None,,,,,,,,,,,,,,,,None,None,None,,None,None,223.94191710202722,None,3,1,0.6871676740120165,223.94191710202722,None,224.62358678599702,None,None,None,None,,17,001,2023_Jan_20_1455,searchDisc5,2021.2.3,59.97373749586706,
images/exp2b_trial_111_colour1_distractors1_l.png,l,1,1,1,0,,,,,0,31,31,31,,,,,,,,,,,,,,,,,,,,,,,,,,,,,,,,,,,,,,,,,,,224.6420289860107,None,2,0.6873828880488873,224.6420289860107,None,,,,,,,,,,,,,,,,None,None,None,,None,None,225.37363040901255,None,1,1,0.6708873769966885,225.37363040901255,None,226.0403180860041,None,None,None,None,,17,001,2023_Jan_20_1455,searchDisc5,2021.2.3,59.97373749586706,
images/exp2b_trial_308_colour2_distractors1_l.png,l,1,2,1,0,,,,,0,32,32,32,,,,,,,,,,,,,,,,,,,,,,,,,,,,,,,,,,,,,,,,,,,226.05679451598553,None,2,0.606615316006355,226.05679451598553,None,,,,,,,,,,,,,,,,None,None,None,,None,None,226.70905380201293,None,1,1,0.5872485250001773,226.70905380201293,None,227.29020941602647,None,None,None,None,,17,001,2023_Jan_20_1455,searchDisc5,2021.2.3,59.97373749586706,
images/exp1a_trial_9_colour2_distractors31_r.png,r,3,2,31,0,,,,,0,33,33,33,,,,,,,,,,,,,,,,,,,,,,,,,,,,,,,,,,,,,,,,,,,227.30673429899616,None,2,0.5899537630029954,227.30673429899616,None,,,,,,,,,,,,,,,,None,None,None,,None,None,227.94024795497535,None,3,1,0.7136518160114065,227.94024795497535,None,228.6564659950265,None,None,None,None,,17,001,2023_Jan_20_1455,searchDisc5,2021.2.3,59.97373749586706,
images/exp2c_trial_185_colour3_distractors1_l.png,l,1,3,1,0,,,,,0,34,34,34,,,,,,,,,,,,,,,,,,,,,,,,,,,,,,,,,,,,,,,,,,,228.67337150400272,None,2,0.7049838199745864,228.67337150400272,None,,,,,,,,,,,,,,,,None,None,None,,None,None,229.42371535499115,None,1,1,0.6389175730291754,229.42371535499115,None,230.0570850889955,None,None,None,None,,17,001,2023_Jan_20_1455,searchDisc5,2021.2.3,59.97373749586706,
images/exp1a_trial_174_colour3_distractors31_r.png,r,3,3,31,0,,,,,0,35,35,35,,,,,,,,,,,,,,,,,,,,,,,,,,,,,,,,,,,,,,,,,,,230.0755442919908,None,2,0.6066004440071993,230.0755442919908,None,,,,,,,,,,,,,,,,None,None,None,,None,None,230.72379604401067,None,3,1,0.6310581270372495,230.72379604401067,None,231.3569990950229,None,None,None,None,,17,001,2023_Jan_20_1455,searchDisc5,2021.2.3,59.97373749586706,
images/exp2b_trial_286_colour0_distractors0_r.png,r,3,0,0,0,,,,,0,36,36,36,,,,,,,,,,,,,,,,,,,,,,,,,,,,,,,,,,,,,,,,,,,231.37354789301753,None,2,0.6067068840493448,231.37354789301753,None,,,,,,,,,,,,,,,,None,None,None,,None,None,232.02582651301054,None,3,1,0.536830983008258,232.02582651301054,None,232.55723685202537,None,None,None,None,,17,001,2023_Jan_20_1455,searchDisc5,2021.2.3,59.97373749586706,
images/exp2a_trial_153_colour3_distractors1_l.png,l,1,3,1,0,,,,,0,37,37,37,,,,,,,,,,,,,,,,,,,,,,,,,,,,,,,,,,,,,,,,,,,232.57363292900845,None,2,0.5540970879956149,232.57363292900845,None,,,,,,,,,,,,,,,,None,None,None,,None,None,233.17586409597425,None,1,1,0.7746596370125189,233.17586409597425,None,233.94062493201926,None,None,None,None,,17,001,2023_Jan_20_1455,searchDisc5,2021.2.3,59.97373749586706,
images/exp1a_trial_259_colour1_distractors19_r.png,r,3,1,19,0,,,,,0,38,38,38,,,,,,,,,,,,,,,,,,,,,,,,,,,,,,,,,,,,,,,,,,,233.95658291399013,None,2,0.6356755949673243,233.95658291399013,None,,,,,,,,,,,,,,,,None,None,None,,None,None,234.6399415950291,None,3,1,0.8684863210073672,234.6399415950291,None,235.50717072900733,None,None,None,None,,17,001,2023_Jan_20_1455,searchDisc5,2021.2.3,59.97373749586706,
images/exp2a_trial_138_colour3_distractors1_r.png,r,3,3,1,0,,,,,0,39,39,39,,,,,,,,,,,,,,,,,,,,,,,,,,,,,,,,,,,,,,,,,,,235.52364864601986,None,2,0.5546052330173552,235.52364864601986,None,,,,,,,,,,,,,,,,None,None,None,,None,None,236.1253543230123,None,3,1,0.5557692189468071,236.1253543230123,None,236.6737775820249,None,None,None,None,,17,001,2023_Jan_20_1455,searchDisc5,2021.2.3,59.97373749586706,
images/exp2b_trial_147_colour1_distractors31_l.png,l,1,1,31,0,,,,,0,40,40,40,,,,,,,,,,,,,,,,,,,,,,,,,,,,,,,,,,,,,,,,,,,236.6902233369765,None,2,0.623143603967037,236.6902233369765,None,,,,,,,,,,,,,,,,None,None,None,,None,None,237.3572886980255,None,1,1,0.6838578919996507,237.3572886980255,None,238.04074812600737,None,None,None,None,,17,001,2023_Jan_20_1455,searchDisc5,2021.2.3,59.97373749586706,
images/exp1a_trial_207_colour1_distractors1_l.png,l,1,1,1,0,,,,,0,41,41,41,,,,,,,,,,,,,,,,,,,,,,,,,,,,,,,,,,,,,,,,,,,238.05695590400137,None,2,0.5398884789901786,238.05695590400137,None,,,,,,,,,,,,,,,,None,None,None,,None,None,238.64255660201889,None,1,1,0.8548878020374104,238.64255660201889,None,239.49068670302512,None,None,None,None,,17,001,2023_Jan_20_1455,searchDisc5,2021.2.3,59.97373749586706,
images/exp1a_trial_41_colour2_distractors31_r.png,r,3,2,31,0,,,,,0,42,42,42,,,,,,,,,,,,,,,,,,,,,,,,,,,,,,,,,,,,,,,,,,,239.50941099401098,None,2,0.5386399190174416,239.50941099401098,None,,,,,,,,,,,,,,,,None,None,None,,None,None,240.09317232697504,None,3,1,0.5986863050493412,240.09317232697504,None,240.69070291101815,None,None,None,None,,17,001,2023_Jan_20_1455,searchDisc5,2021.2.3,59.97373749586706,
images/exp2a_trial_290_colour1_distractors9_r.png,r,3,1,9,0,,,,,0,43,43,43,,,,,,,,,,,,,,,,,,,,,,,,,,,,,,,,,,,,,,,,,,,240.70918496599188,None,2,0.6198299580137245,240.70918496599188,None,,,,,,,,,,,,,,,,None,None,None,,None,None,241.3743860279792,None,3,1,0.6037672230158933,241.3743860279792,None,241.97392233701538,None,None,None,None,,17,001,2023_Jan_20_1455,searchDisc5,2021.2.3,59.97373749586706,
images/exp1a_trial_88_colour2_distractors31_l.png,l,1,2,31,0,,,,,0,44,44,44,,,,,,,,,,,,,,,,,,,,,,,,,,,,,,,,,,,,,,,,,,,241.99086455698125,None,2,0.6066944269696251,241.99086455698125,None,,,,,,,,,,,,,,,,None,None,None,,None,None,242.642982224992,None,1,1,0.5805402029654942,242.642982224992,None,243.22347814899985,None,None,None,None,,17,001,2023_Jan_20_1455,searchDisc5,2021.2.3,59.97373749586706,
images/exp1a_trial_311_colour2_distractors19_l.png,l,1,2,19,0,,,,,0,45,45,45,,,,,,,,,,,,,,,,,,,,,,,,,,,,,,,,,,,,,,,,,,,243.2403939299984,None,2,0.5899967279983684,243.2403939299984,None,,,,,,,,,,,,,,,,None,None,None,,None,None,243.87567632598802,None,1,1,0.599575205007568,243.87567632598802,None,244.4740241739957,None,None,None,None,,17,001,2023_Jan_20_1455,searchDisc5,2021.2.3,59.97373749586706,
images/exp2a_trial_199_colour2_distractors9_r.png,r,3,2,9,0,,,,,0,46,46,46,,,,,,,,,,,,,,,,,,,,,,,,,,,,,,,,,,,,,,,,,,,244.49262577900663,None,2,0.6041261900099926,244.49262577900663,None,,,,,,,,,,,,,,,,None,None,None,,None,None,245.14047049201326,None,3,1,0.733996880997438,245.14047049201326,None,245.87326011401018,None,None,None,None,,17,001,2023_Jan_20_1455,searchDisc5,2021.2.3,59.97373749586706,
images/exp2c_trial_294_colour2_distractors4_r.png,r,3,2,4,0,,,,,0,47,47,47,,,,,,,,,,,,,,,,,,,,,,,,,,,,,,,,,,,,,,,,,,,245.89056103298208,None,2,0.5742303190054372,245.89056103298208,None,,,,,,,,,,,,,,,,None,None,None,,None,None,246.506821907009,None,3,1,0.5527801330317743,246.506821907009,None,247.0574622189917,None,None,None,None,,17,001,2023_Jan_20_1455,searchDisc5,2021.2.3,59.97373749586706,
images/exp2b_trial_50_colour1_distractors19_l.png,l,1,1,19,0,,,,,0,48,48,48,,,,,,,,,,,,,,,,,,,,,,,,,,,,,,,,,,,,,,,,,,,247.0739577569766,None,2,0.5545607329695486,247.0739577569766,None,,,,,,,,,,,,,,,,None,None,None,,None,None,247.6763631029753,None,1,1,0.6708416100009345,247.6763631029753,None,248.34113739601452,None,None,None,None,,17,001,2023_Jan_20_1455,searchDisc5,2021.2.3,59.97373749586706,
images/exp2b_trial_235_colour3_distractors4_r.png,r,3,3,4,0,,,,,0,49,49,49,,,,,,,,,,,,,,,,,,,,,,,,,,,,,,,,,,,,,,,,,,,248.3576294099912,None,2,0.5897347909631208,248.3576294099912,None,,,,,,,,,,,,,,,,None,None,None,,None,None,248.99105432099896,None,3,1,0.5523937740363181,248.99105432099896,None,249.54109575601177,None,None,None,None,,17,001,2023_Jan_20_1455,searchDisc5,2021.2.3,59.97373749586706,
images/exp2b_trial_35_colour1_distractors19_r.png,r,3,1,19,0,,,,,0,50,50,50,,,,,,,,,,,,,,,,,,,,,,,,,,,,,,,,,,,,,,,,,,,249.55735787301091,None,2,0.5377230119775049,249.55735787301091,None,,,,,,,,,,,,,,,,None,None,None,,None,None,250.14074850600446,None,3,1,0.48669905500719324,250.14074850600446,None,250.62426869200425,None,None,None,None,,17,001,2023_Jan_20_1455,searchDisc5,2021.2.3,59.97373749586706,
images/exp2c_trial_233_colour2_distractors31_r.png,r,3,2,31,0,,,,,0,51,51,51,,,,,,,,,,,,,,,,,,,,,,,,,,,,,,,,,,,,,,,,,,,250.6401527299895,None,2,0.5377367929904722,250.6401527299895,None,,,,,,,,,,,,,,,,None,None,None,,None,None,251.225924228027,None,3,1,0.6189885610365309,251.225924228027,None,251.84092909402096,None,None,None,None,,17,001,2023_Jan_20_1455,searchDisc5,2021.2.3,59.97373749586706,
images/exp2b_trial_37_colour2_distractors1_r.png,r,3,2,1,0,,,,,0,52,52,52,,,,,,,,,,,,,,,,,,,,,,,,,,,,,,,,,,,,,,,,,,,251.857529986999,None,2,0.5709031199803576,251.857529986999,None,,,,,,,,,,,,,,,,None,None,None,,None,None,252.47616968402872,None,3,1,0.5219791250419803,252.47616968402872,None,252.99037386199342,None,None,None,None,,17,001,2023_Jan_20_1455,searchDisc5,2021.2.3,59.97373749586706,
images/exp1a_trial_92_colour3_distractors19_l.png,l,1,3,19,0,,,,,0,53,53,53,,,,,,,,,,,,,,,,,,,,,,,,,,,,,,,,,,,,,,,,,,,253.00937977898866,None,2,0.5572068140027113,253.00937977898866,None,,,,,,,,,,,,,,,,None,None,None,,None,None,253.6098557059886,None,1,1,0.7830497209797613,253.6098557059886,None,254.39088580398237,None,None,None,None,,17,001,2023_Jan_20_1455,searchDisc5,2021.2.3,59.97373749586706,
images/exp2a_trial_118_colour2_distractors9_l.png,l,1,2,9,0,,,,,0,54,54,54,,,,,,,,,,,,,,,,,,,,,,,,,,,,,,,,,,,,,,,,,,,254.40713491197675,None,2,0.5545695599867031,254.40713491197675,None,,,,,,,,,,,,,,,,None,None,None,,None,None,255.00973665103083,None,1,1,0.6338769730064087,255.00973665103083,None,255.64109946102252,None,None,None,None,,17,001,2023_Jan_20_1455,searchDisc5,2021.2.3,59.97373749586706,
images/exp2a_trial_270_colour3_distractors31_r.png,r,3,3,31,0,,,,,0,55,55,55,,,,,,,,,,,,,,,,,,,,,,,,,,,,,,,,,,,,,,,,,,,255.65722410898888,None,2,0.7064850389724597,255.65722410898888,None,,,,,,,,,,,,,,,,None,None,None,,None,None,256.4077372290194,None,3,1,0.6836274160305038,256.4077372290194,None,257.09065902502624,None,None,None,None,,17,001,2023_Jan_20_1455,searchDisc5,2021.2.3,59.97373749586706,
images/exp2c_trial_136_colour2_distractors19_r.png,r,3,2,19,0,,,,,0,56,56,56,,,,,,,,,,,,,,,,,,,,,,,,,,,,,,,,,,,,,,,,,,,257.10896284802584,None,2,0.6381676460150629,257.10896284802584,None,,,,,,,,,,,,,,,,None,None,None,,None,None,257.7905228250311,None,3,1,0.5861004380276427,257.7905228250311,None,258.374520813016,None,None,None,None,,17,001,2023_Jan_20_1455,searchDisc5,2021.2.3,59.97373749586706,
images/exp2a_trial_30_colour0_distractors0_r.png,r,3,0,0,0,,,,,0,57,57,57,,,,,,,,,,,,,,,,,,,,,,,,,,,,,,,,,,,,,,,,,,,258.3904544120305,None,2,0.5546141880331561,258.3904544120305,None,,,,,,,,,,,,,,,,None,None,None,,None,None,258.9932123409817,None,3,1,0.50590181798907,258.9932123409817,None,259.4911072100105,None,None,None,None,,17,001,2023_Jan_20_1455,searchDisc5,2021.2.3,59.97373749586706,
images/exp2a_trial_283_colour3_distractors9_l.png,l,1,3,9,0,,,,,0,58,58,58,,,,,,,,,,,,,,,,,,,,,,,,,,,,,,,,,,,,,,,,,,,259.5075390699785,None,2,0.5043026480125263,259.5075390699785,None,,,,,,,,,,,,,,,,None,None,None,,None,None,260.05941772600636,None,1,1,0.5545346160070039,260.05941772600636,None,260.6078972810239,None,None,None,None,,17,001,2023_Jan_20_1455,searchDisc5,2021.2.3,59.97373749586706,
images/exp2b_trial_97_colour1_distractors4_r.png,r,3,1,4,0,,,,,0,59,59,59,,,,,,,,,,,,,,,,,,,,,,,,,,,,,,,,,,,,,,,,,,,260.6242825560039,None,2,0.5378809769754298,260.6242825560039,None,,,,,,,,,,,,,,,,None,None,None,,None,None,261.2100769280223,None,3,1,0.7050955679733306,261.2100769280223,None,261.90785860097384,None,None,None,None,,17,001,2023_Jan_20_1455,searchDisc5,2021.2.3,59.97373749586706,
images/exp2c_trial_204_colour3_distractors9_r.png,r,3,3,9,0,,,,,0,60,60,60,,,,,,,,,,,,,,,,,,,,,,,,,,,,,,,,,,,,,,,,,,,261.92432863498107,None,2,0.5879761980031617,261.92432863498107,None,,,,,,,,,,,,,,,,None,None,None,,None,None,262.56008240999654,None,3,1,0.8206369670224376,262.56008240999654,None,263.37477401401264,None,None,None,None,,17,001,2023_Jan_20_1455,searchDisc5,2021.2.3,59.97373749586706,
images/exp2b_trial_318_colour0_distractors0_r.png,r,3,0,0,0,,,,,0,61,61,61,,,,,,,,,,,,,,,,,,,,,,,,,,,,,,,,,,,,,,,,,,,263.39109738200204,None,2,0.5377464150078595,263.39109738200204,None,,,,,,,,,,,,,,,,None,None,None,,None,None,263.97670371702407,None,3,1,0.522031891043298,263.97670371702407,None,264.4912115790241,None,None,None,None,,17,001,2023_Jan_20_1455,searchDisc5,2021.2.3,59.97373749586706,
images/exp2b_trial_152_colour2_distractors31_l.png,l,1,2,31,0,,,,,0,62,62,62,,,,,,,,,,,,,,,,,,,,,,,,,,,,,,,,,,,,,,,,,,,264.509516687016,None,2,0.4881573460297659,264.509516687016,None,,,,,,,,,,,,,,,,None,None,None,,None,None,265.0430931359879,None,1,1,0.602448360004928,265.0430931359879,None,265.64153305198414,None,None,None,None,,17,001,2023_Jan_20_1455,searchDisc5,2021.2.3,59.97373749586706,
images/exp2a_trial_179_colour1_distractors31_l.png,l,1,1,31,0,,,,,0,63,63,63,,,,,,,,,,,,,,,,,,,,,,,,,,,,,,,,,,,,,,,,,,,265.6573799379985,None,2,0.5543758640415035,265.6573799379985,None,,,,,,,,,,,,,,,,None,None,None,,None,None,266.2576173199923,None,1,1,0.5711017069988884,266.2576173199923,None,266.8247225620027,None,None,None,None,,17,001,2023_Jan_20_1455,searchDisc5,2021.2.3,59.97373749586706,
images/exp1a_trial_158_colour0_distractors0_r.png,r,3,0,0,0,,,,,0,64,64,64,,,,,,,,,,,,,,,,,,,,,,,,,,,,,,,,,,,,,,,,,,,266.84305164503166,None,2,0.4878197180223651,266.84305164503166,None,,,,,,,,,,,,,,,,None,None,None,,None,None,267.3764471699833,None,3,1,0.4560054370085709,267.3764471699833,None,267.8249175480043,None,None,None,None,,17,001,2023_Jan_20_1455,searchDisc5,2021.2.3,59.97373749586706,
images/exp1a_trial_214_colour2_distractors9_l.png,l,1,2,9,0,,,,,0,65,65,65,,,,,,,,,,,,,,,,,,,,,,,,,,,,,,,,,,,,,,,,,,,267.8413281170069,None,2,0.4376610610052012,267.8413281170069,None,,,,,,,,,,,,,,,,None,None,None,,None,None,268.3266206620028,None,3,0,0.6022967729950324,268.3266206620028,None,268.92497585302334,None,None,None,None,,17,001,2023_Jan_20_1455,searchDisc5,2021.2.3,59.97373749586706,
images/exp2c_trial_159_colour0_distractors0_l.png,l,1,0,0,0,,,,,0,66,66,66,,,,,,,,,,,,,,,,,,,,,,,,,,,,,,,,,,,,,,,,,,,268.943435743975,None,2,0.5210166599717923,268.943435743975,None,,,,,,,,,,,,,,,,None,None,None,,None,None,269.5102300540311,None,1,1,0.6063669020077214,269.5102300540311,None,270.10832114897784,None,None,None,None,,17,001,2023_Jan_20_1455,searchDisc5,2021.2.3,59.97373749586706,
images/exp1a_trial_110_colour3_distractors31_r.png,r,3,3,31,0,,,,,0,67,67,67,,,,,,,,,,,,,,,,,,,,,,,,,,,,,,,,,,,,,,,,,,,270.12670961400727,None,2,0.520957387983799,270.12670961400727,None,,,,,,,,,,,,,,,,None,None,None,,None,None,270.6935432170285,None,3,1,0.6155654270551167,270.6935432170285,None,271.307779671991,None,None,None,None,,17,001,2023_Jan_20_1455,searchDisc5,2021.2.3,59.97373749586706,
images/exp2b_trial_312_colour2_distractors31_l.png,l,1,2,31,0,,,,,0,68,68,68,,,,,,,,,,,,,,,,,,,,,,,,,,,,,,,,,,,,,,,,,,,271.324940986,None,2,0.4570540539571084,271.324940986,None,,,,,,,,,,,,,,,,None,None,None,,None,None,271.82659282698296,None,1,1,0.6334187829634175,271.82659282698296,None,272.45757163899833,None,None,None,None,,17,001,2023_Jan_20_1455,searchDisc5,2021.2.3,59.97373749586706,
images/exp2c_trial_211_colour1_distractors31_l.png,l,1,1,31,0,,,,,0,69,69,69,,,,,,,,,,,,,,,,,,,,,,,,,,,,,,,,,,,,,,,,,,,272.4739423330175,None,2,0.4400115300086327,272.4739423330175,None,,,,,,,,,,,,,,,,None,None,None,,None,None,272.96024054603186,None,1,1,0.6001249160035513,272.96024054603186,None,273.5582930229895,None,None,None,None,,17,001,2023_Jan_20_1455,searchDisc5,2021.2.3,59.97373749586706,
images/exp1a_trial_59_colour3_distractors9_l.png,l,1,3,9,0,,,,,0,70,70,70,,,,,,,,,,,,,,,,,,,,,,,,,,,,,,,,,,,,,,,,,,,273.57662390201585,None,2,0.4233229960082099,273.57662390201585,None,,,,,,,,,,,,,,,,None,None,None,,None,None,274.0417021110188,None,1,1,0.6350452200276777,274.0417021110188,None,274.6749245320272,None,None,None,None,,17,001,2023_Jan_20_1455,searchDisc5,2021.2.3,59.97373749586706,
images/exp2a_trial_110_colour3_distractors31_r.png,r,3,3,31,0,,,,,0,71,71,71,,,,,,,,,,,,,,,,,,,,,,,,,,,,,,,,,,,,,,,,,,,274.69127973902505,None,2,0.3878430770128034,274.69127973902505,None,,,,,,,,,,,,,,,,None,None,None,,None,None,275.1242559530074,None,3,1,0.6192308060126379,275.1242559530074,None,275.74156164001323,None,None,None,None,,17,001,2023_Jan_20_1455,searchDisc5,2021.2.3,59.97373749586706,
images/exp2b_trial_257_colour1_distractors4_r.png,r,3,1,4,0,,,,,0,72,72,72,,,,,,,,,,,,,,,,,,,,,,,,,,,,,,,,,,,,,,,,,,,275.75807692302624,None,2,0.4214090299792588,275.75807692302624,None,,,,,,,,,,,,,,,,None,None,None,,None,None,276.22720201301854,None,3,1,0.605126194015611,276.22720201301854,None,276.82505943499854,None,None,None,None,,17,001,2023_Jan_20_1455,searchDisc5,2021.2.3,59.97373749586706,
images/exp2a_trial_317_colour3_distractors31_l.png,l,1,3,31,0,,,,,0,73,73,73,,,,,,,,,,,,,,,,,,,,,,,,,,,,,,,,,,,,,,,,,,,276.8435573860188,None,2,0.4872675820370205,276.8435573860188,None,,,,,,,,,,,,,,,,None,None,None,,None,None,277.3771241659997,None,1,1,0.6694465019972995,277.3771241659997,None,278.0417458809854,None,None,None,None,,17,001,2023_Jan_20_1455,searchDisc5,2021.2.3,59.97373749586706,
images/exp1a_trial_258_colour1_distractors9_r.png,r,3,1,9,0,,,,,0,74,74,74,,,,,,,,,,,,,,,,,,,,,,,,,,,,,,,,,,,,,,,,,,,278.05847254401306,None,2,0.43768231803551316,278.05847254401306,None,,,,,,,,,,,,,,,,None,None,None,,None,None,278.5416332699824,None,3,1,0.6700041280128062,278.5416332699824,None,279.2083070359833,None,None,None,None,,17,001,2023_Jan_20_1455,searchDisc5,2021.2.3,59.97373749586706,
images/exp2c_trial_227_colour1_distractors19_r.png,r,3,1,19,0,,,,,0,75,75,75,,,,,,,,,,,,,,,,,,,,,,,,,,,,,,,,,,,,,,,,,,,279.22482358902926,None,2,0.40465458598919213,279.22482358902926,None,,,,,,,,,,,,,,,,None,None,None,,None,None,279.6772047440172,None,3,1,0.5532837109640241,279.6772047440172,None,280.22510259798145,None,None,None,None,,17,001,2023_Jan_20_1455,searchDisc5,2021.2.3,59.97373749586706,
images/exp2c_trial_285_colour3_distractors31_l.png,l,1,3,31,0,,,,,0,76,76,76,,,,,,,,,,,,,,,,,,,,,,,,,,,,,,,,,,,,,,,,,,,280.2410007119761,None,2,0.40447177697205916,280.2410007119761,None,,,,,,,,,,,,,,,,None,None,None,,None,None,280.69388982799137,None,1,1,0.5694959910470061,280.69388982799137,None,281.2584854199842,None,None,None,None,,17,001,2023_Jan_20_1455,searchDisc5,2021.2.3,59.97373749586706,
images/exp2b_trial_3_colour1_distractors19_r.png,r,3,1,19,0,,,,,0,77,77,77,,,,,,,,,,,,,,,,,,,,,,,,,,,,,,,,,,,,,,,,,,,281.27465723402565,None,2,0.404218846000731,281.27465723402565,None,,,,,,,,,,,,,,,,None,None,None,,None,None,281.7265766939963,None,3,1,0.6058290610089898,281.7265766939963,None,282.32516253997454,None,None,None,None,,17,001,2023_Jan_20_1455,searchDisc5,2021.2.3,59.97373749586706,
images/exp2c_trial_67_colour1_distractors19_r.png,r,3,1,19,0,,,,,0,78,78,78,,,,,,,,,,,,,,,,,,,,,,,,,,,,,,,,,,,,,,,,,,,282.3433723709895,None,2,0.38704344897996634,282.3433723709895,None,,,,,,,,,,,,,,,,None,None,None,,None,None,282.7773004390183,None,3,1,0.46944951004115865,282.7773004390183,None,283.24189433701684,None,None,None,None,,17,001,2023_Jan_20_1455,searchDisc5,2021.2.3,59.97373749586706,
images/exp1a_trial_49_colour1_distractors9_l.png,l,1,1,9,0,,,,,0,79,79,79,,,,,,,,,,,,,,,,,,,,,,,,,,,,,,,,,,,,,,,,,,,283.2584462449886,None,2,0.3891974769649096,283.2584462449886,None,,,,,,,,,,,,,,,,None,None,None,,None,None,283.6937995509943,None,1,1,0.5365523009677418,283.6937995509943,None,284.2253973190265,None,None,None,None,,17,001,2023_Jan_20_1455,searchDisc5,2021.2.3,59.97373749586706,
images/exp2b_trial_180_colour2_distractors1_l.png,l,1,2,1,0,,,,,0,80,80,80,,,,,,,,,,,,,,,,,,,,,,,,,,,,,,,,,,,,,,,,,,,284.2416147640324,None,2,0.45523432100890204,284.2416147640324,None,,,,,,,,,,,,,,,,None,None,None,,None,None,284.74404471798334,None,1,1,0.4718827890465036,284.74404471798334,None,285.20866553702507,None,None,None,None,,17,001,2023_Jan_20_1455,searchDisc5,2021.2.3,59.97373749586706,
images/exp1a_trial_251_colour3_distractors9_l.png,l,1,3,9,0,,,,,0,81,81,81,,,,,,,,,,,,,,,,,,,,,,,,,,,,,,,,,,,,,,,,,,,285.2246054360294,None,2,0.35377737396629527,285.2246054360294,None,,,,,,,,,,,,,,,,None,None,None,,None,None,285.6252759459894,None,1,1,0.5536707720020786,285.6252759459894,None,286.17530591199755,None,None,None,None,,17,001,2023_Jan_20_1455,searchDisc5,2021.2.3,59.97373749586706,
images/exp1a_trial_146_colour1_distractors19_l.png,l,1,1,19,0,,,,,0,82,82,82,,,,,,,,,,,,,,,,,,,,,,,,,,,,,,,,,,,,,,,,,,,286.19346518901875,None,2,0.3051842530258,286.19346518901875,None,,,,,,,,,,,,,,,,None,None,None,,None,None,286.5418466120027,None,3,0,1.0339403860270977,286.5418466120027,None,287.5745935759798,None,None,None,None,,17,001,2023_Jan_20_1455,searchDisc5,2021.2.3,59.97373749586706,
images/exp2c_trial_275_colour1_distractors31_l.png,l,1,1,31,0,,,,,0,83,83,83,,,,,,,,,,,,,,,,,,,,,,,,,,,,,,,,,,,,,,,,,,,287.59159224899486,None,2,0.5548156719887629,287.59159224899486,None,,,,,,,,,,,,,,,,None,None,None,,None,None,288.19351967901457,None,1,1,0.8026979799615219,288.19351967901457,None,288.991951836989,None,None,None,None,,17,001,2023_Jan_20_1455,searchDisc5,2021.2.3,59.97373749586706,
images/exp1a_trial_56_colour2_distractors31_l.png,l,1,2,31,0,,,,,0,84,84,84,,,,,,,,,,,,,,,,,,,,,,,,,,,,,,,,,,,,,,,,,,,289.0079568710062,None,2,0.3878038020338863,289.0079568710062,None,,,,,,,,,,,,,,,,None,None,None,,None,None,289.4441908110166,None,1,1,0.5334717719815671,289.4441908110166,None,289.97536553601384,None,None,None,None,,17,001,2023_Jan_20_1455,searchDisc5,2021.2.3,59.97373749586706,
images/exp1a_trial_147_colour1_distractors31_l.png,l,1,1,31,0,,,,,0,85,85,85,,,,,,,,,,,,,,,,,,,,,,,,,,,,,,,,,,,,,,,,,,,289.99178003898123,None,2,0.3042096960125491,289.99178003898123,None,,,,,,,,,,,,,,,,None,None,None,,None,None,290.3412021329859,None,1,1,0.6506724380305968,290.3412021329859,None,290.99219819101853,None,None,None,None,,17,001,2023_Jan_20_1455,searchDisc5,2021.2.3,59.97373749586706,
images/exp2b_trial_73_colour2_distractors31_r.png,r,3,2,31,0,,,,,0,86,86,86,,,,,,,,,,,,,,,,,,,,,,,,,,,,,,,,,,,,,,,,,,,291.00841096398653,None,2,0.3711417239974253,291.00841096398653,None,,,,,,,,,,,,,,,,None,None,None,,None,None,291.4275099229999,None,3,1,0.519218772999011,291.4275099229999,None,291.9422160890128,None,None,None,None,,17,001,2023_Jan_20_1455,searchDisc5,2021.2.3,59.97373749586706,
images/exp1a_trial_101_colour2_distractors1_r.png,r,3,2,1,0,,,,,0,87,87,87,,,,,,,,,,,,,,,,,,,,,,,,,,,,,,,,,,,,,,,,,,,291.96056531299837,None,2,0.30444725998677313,291.96056531299837,None,,,,,,,,,,,,,,,,None,None,None,,None,None,292.30894167901715,None,3,1,0.5076744629768655,292.30894167901715,None,292.80874481199425,None,None,None,None,,17,001,2023_Jan_20_1455,searchDisc5,2021.2.3,59.97373749586706,
images/exp2b_trial_154_colour3_distractors4_l.png,l,1,3,4,0,,,,,0,88,88,88,,,,,,,,,,,,,,,,,,,,,,,,,,,,,,,,,,,,,,,,,,,292.8253220759798,None,2,0.3380248949979432,292.8253220759798,None,,,,,,,,,,,,,,,,None,None,None,,None,None,293.2082674920093,None,1,1,0.6535154459998012,293.2082674920093,None,293.85897065700846,None,None,None,None,,17,001,2023_Jan_20_1455,searchDisc5,2021.2.3,59.97373749586706,
images/exp2c_trial_246_colour2_distractors9_l.png,l,1,2,9,0,,,,,0,89,89,89,,,,,,,,,,,,,,,,,,,,,,,,,,,,,,,,,,,,,,,,,,,293.8747783320141,None,2,0.35440030798781663,293.8747783320141,None,,,,,,,,,,,,,,,,None,None,None,,None,None,294.27548469998874,None,1,1,0.5540607979637571,294.27548469998874,None,294.82554485801955,None,None,None,None,,17,001,2023_Jan_20_1455,searchDisc5,2021.2.3,59.97373749586706,
images/exp2c_trial_6_colour2_distractors4_r.png,r,3,2,4,0,,,,,0,90,90,90,,,,,,,,,,,,,,,,,,,,,,,,,,,,,,,,,,,,,,,,,,,294.84178826899733,None,2,0.28737413295311853,294.84178826899733,None,,,,,,,,,,,,,,,,None,None,None,,None,None,295.17534296098165,None,3,1,0.5054204310290515,295.17534296098165,None,295.6756257200206,None,None,None,None,,17,001,2023_Jan_20_1455,searchDisc5,2021.2.3,59.97373749586706,
images/exp1a_trial_140_colour3_distractors9_r.png,r,3,3,9,0,,,,,0,91,91,91,,,,,,,,,,,,,,,,,,,,,,,,,,,,,,,,,,,,,,,,,,,295.69183478999184,None,2,0.27219062100630254,295.69183478999184,None,,,,,,,,,,,,,,,,None,None,None,,None,None,296.0088278009789,None,3,1,0.5178169020218775,296.0088278009789,None,296.5255349379906,None,None,None,None,,17,001,2023_Jan_20_1455,searchDisc5,2021.2.3,59.97373749586706,
images/exp2b_trial_214_colour2_distractors9_l.png,l,1,2,9,0,,,,,0,92,92,92,,,,,,,,,,,,,,,,,,,,,,,,,,,,,,,,,,,,,,,,,,,296.5435718810186,None,2,0.2546499010059051,296.5435718810186,None,,,,,,,,,,,,,,,,None,None,None,,None,None,296.84249110898236,None,1,1,0.5704904410522431,296.84249110898236,None,297.4080850510101,None,None,None,None,,17,001,2023_Jan_20_1455,searchDisc5,2021.2.3,59.97373749586706,
images/exp1a_trial_317_colour3_distractors31_l.png,l,1,3,31,0,,,,,0,93,93,93,,,,,,,,,,,,,,,,,,,,,,,,,,,,,,,,,,,,,,,,,,,297.4252198829781,None,2,0.28873975499300286,297.4252198829781,None,,,,,,,,,,,,,,,,None,None,None,,None,None,297.7588907509926,None,1,1,0.5510818840120919,297.7588907509926,None,298.30898879301384,None,None,None,None,,17,001,2023_Jan_20_1455,searchDisc5,2021.2.3,59.97373749586706,
images/exp1a_trial_36_colour1_distractors31_r.png,r,3,1,31,0,,,,,0,94,94,94,,,,,,,,,,,,,,,,,,,,,,,,,,,,,,,,,,,,,,,,,,,298.3253892600187,None,2,0.28652989299735054,298.3253892600187,None,,,,,,,,,,,,,,,,None,None,None,,None,None,298.6584089070093,None,3,1,0.8338727939990349,298.6584089070093,None,299.49243812701314,None,None,None,None,,17,001,2023_Jan_20_1455,searchDisc5,2021.2.3,59.97373749586706,
images/exp2c_trial_309_colour2_distractors4_l.png,l,1,2,4,0,,,,,0,95,95,95,,,,,,,,,,,,,,,,,,,,,,,,,,,,,,,,,,,,,,,,,,,299.5088280690252,None,2,0.2727842450258322,299.5088280690252,None,,,,,,,,,,,,,,,,None,None,None,,None,None,299.827862501028,None,1,1,0.6032159900059924,299.827862501028,None,300.42567373598575,None,None,None,None,,17,001,2023_Jan_20_1455,searchDisc5,2021.2.3,59.97373749586706,
images/exp2c_trial_45_colour3_distractors19_r.png,r,3,3,19,0,,,,,0,96,96,96,,,,,,,,,,,,,,,,,,,,,,,,,,,,,,,,,,,,,,,,,,,300.44367599801626,None,2,0.23795508302282542,300.44367599801626,None,,,,,,,,,,,,,,,,None,None,None,,None,None,300.7249843479949,None,3,1,0.6188875870429911,300.7249843479949,None,301.34168889002757,None,None,None,None,,17,001,2023_Jan_20_1455,searchDisc5,2021.2.3,59.97373749586706,
images/exp2b_trial_253_colour3_distractors31_l.png,l,1,3,31,0,,,,,0,97,97,97,,,,,,,,,,,,,,,,,,,,,,,,,,,,,,,,,,,,,,,,,,,301.36075048701605,None,2,0.2379179709823802,301.36075048701605,None,,,,,,,,,,,,,,,,None,None,None,,None,None,301.64189650898334,None,3,0,0.6028649480431341,301.64189650898334,None,302.2417346129834,None,None,None,None,,17,001,2023_Jan_20_1455,searchDisc5,2021.2.3,59.97373749586706,
images/exp2c_trial_132_colour1_distractors31_r.png,r,3,1,31,0,,,,,0,98,98,98,,,,,,,,,,,,,,,,,,,,,,,,,,,,,,,,,,,,,,,,,,,302.25866643199697,None,2,0.3553261909983121,302.25866643199697,None,,,,,,,,,,,,,,,,None,None,None,,None,None,302.65847162302816,None,3,1,0.5191301080049016,302.65847162302816,None,303.1757374379842,None,None,None,None,,17,001,2023_Jan_20_1455,searchDisc5,2021.2.3,59.97373749586706,
images/exp2b_trial_87_colour2_distractors19_l.png,l,1,2,19,0,,,,,0,99,99,99,,,,,,,,,,,,,,,,,,,,,,,,,,,,,,,,,,,,,,,,,,,303.1921515580034,None,2,0.271195393987,303.1921515580034,None,,,,,,,,,,,,,,,,None,None,None,,None,None,303.50904731900664,None,1,1,0.5035314069828019,303.50904731900664,None,304.0089560129738,None,None,None,None,,17,001,2023_Jan_20_1455,searchDisc5,2021.2.3,59.97373749586706,
images/exp2a_trial_66_colour1_distractors9_r.png,r,3,1,9,0,,,,,0,100,100,100,,,,,,,,,,,,,,,,,,,,,,,,,,,,,,,,,,,,,,,,,,,304.02748615300516,None,2,0.2875702800229192,304.02748615300516,None,,,,,,,,,,,,,,,,None,None,None,,None,None,304.3590853100177,None,3,1,0.6378125530318357,304.3590853100177,None,304.992441890022,None,None,None,None,,17,001,2023_Jan_20_1455,searchDisc5,2021.2.3,59.97373749586706,
images/exp1a_trial_108_colour3_distractors9_r.png,r,3,3,9,0,,,,,0,101,101,101,,,,,,,,,,,,,,,,,,,,,,,,,,,,,,,,,,,,,,,,,,,305.0089041789761,None,2,0.239712034992408,305.0089041789761,None,,,,,,,,,,,,,,,,None,None,None,,None,None,305.29447972000344,None,3,1,0.5367868999601342,305.29447972000344,None,305.8256929299852,None,None,None,None,,17,001,2023_Jan_20_1455,searchDisc5,2021.2.3,59.97373749586706,
images/exp2c_trial_306_colour1_distractors19_l.png,l,1,1,19,0,,,,,0,102,102,102,,,,,,,,,,,,,,,,,,,,,,,,,,,,,,,,,,,,,,,,,,,305.84274376701796,None,2,0.2547529289731756,305.84274376701796,None,,,,,,,,,,,,,,,,None,None,None,,None,None,306.1443827790208,None,1,1,0.5677098860032856,306.1443827790208,None,306.70926715697277,None,None,None,None,,17,001,2023_Jan_20_1455,searchDisc5,2021.2.3,59.97373749586706,
images/exp2c_trial_18_colour1_distractors19_l.png,l,1,1,19,0,,,,,0,103,103,103,,,,,,,,,,,,,,,,,,,,,,,,,,,,,,,,,,,,,,,,,,,306.7253120340174,None,2,0.23990867694374174,306.7253120340174,None,,,,,,,,,,,,,,,,None,None,None,,None,None,307.00934397702804,None,1,1,0.4675905099720694,307.00934397702804,None,307.47573129799565,None,None,None,None,,17,001,2023_Jan_20_1455,searchDisc5,2021.2.3,59.97373749586706,
images/exp2c_trial_126_colour0_distractors0_r.png,r,3,0,0,0,,,,,0,104,104,104,,,,,,,,,,,,,,,,,,,,,,,,,,,,,,,,,,,,,,,,,,,307.4926998160081,None,2,0.25683089398080483,307.4926998160081,None,,,,,,,,,,,,,,,,None,None,None,,None,None,307.79439463000745,None,3,1,0.5700177299440838,307.79439463000745,None,308.35919749301974,None,None,None,None,,17,001,2023_Jan_20_1455,searchDisc5,2021.2.3,59.97373749586706,
images/exp2c_trial_165_colour2_distractors1_r.png,r,3,2,1,0,,,,,0,105,105,105,,,,,,,,,,,,,,,,,,,,,,,,,,,,,,,,,,,,,,,,,,,308.37544072797755,None,2,0.2563835739856586,308.37544072797755,None,,,,,,,,,,,,,,,,None,None,None,,None,None,308.6761854690267,None,3,1,0.570428270031698,308.6761854690267,None,309.24269478601053,None,None,None,None,,17,001,2023_Jan_20_1455,searchDisc5,2021.2.3,59.97373749586706,
images/exp2c_trial_64_colour1_distractors1_r.png,r,3,1,1,0,,,,,0,106,106,106,,,,,,,,,,,,,,,,,,,,,,,,,,,,,,,,,,,,,,,,,,,309.258966731024,None,2,0.22304991103010252,309.258966731024,None,,,,,,,,,,,,,,,,None,None,None,,None,None,309.5280235349783,None,3,1,0.5057361659710295,309.5280235349783,None,310.0258432679868,None,None,None,None,,17,001,2023_Jan_20_1455,searchDisc5,2021.2.3,59.97373749586706,
images/exp2a_trial_56_colour2_distractors31_l.png,l,1,2,31,0,,,,,0,107,107,107,,,,,,,,,,,,,,,,,,,,,,,,,,,,,,,,,,,,,,,,,,,310.04189059499186,None,2,0.2525408859946765,310.04189059499186,None,,,,,,,,,,,,,,,,None,None,None,,None,None,310.3424516909872,None,1,1,0.9123000369872898,310.3424516909872,None,311.2594838519755,None,None,None,None,,17,001,2023_Jan_20_1455,searchDisc5,2021.2.3,59.97373749586706,
images/exp2c_trial_189_colour3_distractors31_l.png,l,1,3,31,0,,,,,0,108,108,108,,,,,,,,,,,,,,,,,,,,,,,,,,,,,,,,,,,,,,,,,,,311.2776392920059,None,2,0.18987341795582324,311.2776392920059,None,,,,,,,,,,,,,,,,None,None,None,,None,None,311.5113007259788,None,1,1,0.8338116880040616,311.5113007259788,None,312.34270221299374,None,None,None,None,,17,001,2023_Jan_20_1455,searchDisc5,2021.2.3,59.97373749586706,
images/exp1a_trial_43_colour3_distractors4_r.png,r,3,3,4,0,,,,,0,109,109,109,,,,,,,,,,,,,,,,,,,,,,,,,,,,,,,,,,,,,,,,,,,312.3590584080084,None,2,0.1724866650183685,312.3590584080084,None,,,,,,,,,,,,,,,,None,None,None,,None,None,312.5776847160305,None,1,0,0.5703966449946165,312.5776847160305,None,313.1427069829835,None,None,None,None,,17,001,2023_Jan_20_1455,searchDisc5,2021.2.3,59.97373749586706,
images/exp2c_trial_8_colour2_distractors19_r.png,r,3,2,19,0,,,,,0,110,110,110,,,,,,,,,,,,,,,,,,,,,,,,,,,,,,,,,,,,,,,,,,,313.1589148910134,None,2,0.470934130018577,313.1589148910134,None,,,,,,,,,,,,,,,,None,None,None,,None,None,313.67539996199775,None,3,1,0.5870911590172909,313.67539996199775,None,314.2594957290159,None,None,None,None,,17,001,2023_Jan_20_1455,searchDisc5,2021.2.3,59.97373749586706,
images/exp2c_trial_71_colour2_distractors9_r.png,r,3,2,9,0,,,,,0,111,111,111,,,,,,,,,,,,,,,,,,,,,,,,,,,,,,,,,,,,,,,,,,,314.2757339979871,None,2,0.22301751101622358,314.2757339979871,None,,,,,,,,,,,,,,,,None,None,None,,None,None,314.54465295001864,None,1,0,0.7683053740183823,314.54465295001864,None,315.30888349401647,None,None,None,None,,17,001,2023_Jan_20_1455,searchDisc5,2021.2.3,59.97373749586706,
images/exp2c_trial_153_colour3_distractors1_l.png,l,1,3,1,0,,,,,0,112,112,112,,,,,,,,,,,,,,,,,,,,,,,,,,,,,,,,,,,,,,,,,,,315.3280153130181,None,2,0.4570729550323449,315.3280153130181,None,,,,,,,,,,,,,,,,None,None,None,,None,None,315.8258306889911,None,1,1,0.7538100460078567,315.8258306889911,None,316.57600060898693,None,None,None,None,,17,001,2023_Jan_20_1455,searchDisc5,2021.2.3,59.97373749586706,
images/exp1a_trial_238_colour3_distractors31_r.png,r,3,3,31,0,,,,,0,113,113,113,,,,,,,,,,,,,,,,,,,,,,,,,,,,,,,,,,,,,,,,,,,316.59244467300596,None,2,0.20776965597178787,316.59244467300596,None,,,,,,,,,,,,,,,,None,None,None,,None,None,316.8474420160055,None,3,1,0.7618501510005444,316.8474420160055,None,317.60941255100187,None,None,None,None,,17,001,2023_Jan_20_1455,searchDisc5,2021.2.3,59.97373749586706,
images/exp2a_trial_84_colour2_distractors1_l.png,l,1,2,1,0,,,,,0,114,114,114,,,,,,,,,,,,,,,,,,,,,,,,,,,,,,,,,,,,,,,,,,,317.6276952389744,None,2,0.2205541969742626,317.6276952389744,None,,,,,,,,,,,,,,,,None,None,None,,None,None,317.892437817005,None,1,1,0.6562944990000688,317.892437817005,None,318.54278027000254,None,None,None,None,,17,001,2023_Jan_20_1455,searchDisc5,2021.2.3,59.97373749586706,
images/exp2a_trial_40_colour2_distractors19_r.png,r,3,2,19,0,,,,,0,115,115,115,,,,,,,,,,,,,,,,,,,,,,,,,,,,,,,,,,,,,,,,,,,318.5592088330304,None,2,0.20227293501375243,318.5592088330304,None,,,,,,,,,,,,,,,,None,None,None,,None,None,318.8118297730107,None,3,1,0.7141955139813945,318.8118297730107,None,319.52612923099076,None,None,None,None,,17,001,2023_Jan_20_1455,searchDisc5,2021.2.3,59.97373749586706,
images/exp2a_trial_308_colour2_distractors1_l.png,l,1,2,1,0,,,,,0,116,116,116,,,,,,,,,,,,,,,,,,,,,,,,,,,,,,,,,,,,,,,,,,,319.5421220330172,None,2,0.23990518500795588,319.5421220330172,None,,,,,,,,,,,,,,,,None,None,None,,None,None,319.82792831299594,None,1,1,0.6868829120066948,319.82792831299594,None,320.50958073199143,None,None,None,None,,17,001,2023_Jan_20_1455,searchDisc5,2021.2.3,59.97373749586706,
images/exp2c_trial_85_colour2_distractors4_l.png,l,1,2,4,0,,,,,0,117,117,117,,,,,,,,,,,,,,,,,,,,,,,,,,,,,,,,,,,,,,,,,,,320.5276928130188,None,2,0.1738532740273513,320.5276928130188,None,,,,,,,,,,,,,,,,None,None,None,,None,None,320.7450714120059,None,1,1,0.6363899279967882,320.7450714120059,None,321.3764828369778,None,None,None,None,,17,001,2023_Jan_20_1455,searchDisc5,2021.2.3,59.97373749586706,
images/exp2a_trial_188_colour3_distractors19_l.png,l,1,3,19,0,,,,,0,118,118,118,,,,,,,,,,,,,,,,,,,,,,,,,,,,,,,,,,,,,,,,,,,321.3925908289966,None,2,0.18773141800193116,321.3925908289966,None,,,,,,,,,,,,,,,,None,None,None,,None,None,321.62823829002446,None,1,1,0.7864134510164149,321.62823829002446,None,322.4096442649781,None,None,None,None,,17,001,2023_Jan_20_1455,searchDisc5,2021.2.3,59.97373749586706,
images/exp2a_trial_319_colour0_distractors0_l.png,l,1,0,0,0,,,,,0,119,119,119,,,,,,,,,,,,,,,,,,,,,,,,,,,,,,,,,,,,,,,,,,,322.4260590940248,None,2,0.154409499024041,322.4260590940248,None,,,,,,,,,,,,,,,,None,None,None,,None,None,322.62625553499674,None,1,1,0.5322570649441332,322.62625553499674,None,323.1595471379871,None,None,None,None,,17,001,2023_Jan_20_1455,searchDisc5,2021.2.3,59.97373749586706,
images/exp2b_trial_238_colour3_distractors31_r.png,r,3,3,31,0,,,,,0,120,120,120,,,,,,,,,,,,,,,,,,,,,,,,,,,,,,,,,,,,,,,,,,,323.17605178197846,None,2,0.17093453195411712,323.17605178197846,None,,,,,,,,,,,,,,,,None,None,None,,None,None,323.3950271210051,None,3,1,0.7530711150029674,323.3950271210051,None,324.1429894659843,None,None,None,None,,17,001,2023_Jan_20_1455,searchDisc5,2021.2.3,59.97373749586706,
images/exp2c_trial_61_colour3_distractors31_l.png,l,1,3,31,0,,,,,0,121,121,121,,,,,,,,,,,,,,,,,,,,,,,,,,,,,,,,,,,,,,,,,,,324.15943845099537,None,2,0.18988673004787415,324.15943845099537,None,,,,,,,,,,,,,,,,None,None,None,,None,None,324.39537209202535,None,1,1,0.7173261840362102,324.39537209202535,None,325.1097196649818,None,None,None,None,,17,001,2023_Jan_20_1455,searchDisc5,2021.2.3,59.97373749586706,
images/exp2b_trial_108_colour3_distractors9_r.png,r,3,3,9,0,,,,,0,122,122,122,,,,,,,,,,,,,,,,,,,,,,,,,,,,,,,,,,,,,,,,,,,325.125934324984,None,2,0.18741722300183028,325.125934324984,None,,,,,,,,,,,,,,,,None,None,None,,None,None,325.36133114102995,None,3,1,0.7712324900203384,325.36133114102995,None,326.1265521050256,None,None,None,None,,17,001,2023_Jan_20_1455,searchDisc5,2021.2.3,59.97373749586706,
images/exp1a_trial_122_colour3_distractors4_l.png,l,1,3,4,0,,,,,0,123,123,123,,,,,,,,,,,,,,,,,,,,,,,,,,,,,,,,,,,,,,,,,,,326.1447806620272,None,2,0.18978007399709895,326.1447806620272,None,,,,,,,,,,,,,,,,None,None,None,,None,None,326.378581714991,None,1,1,0.7207006750395522,326.378581714991,None,327.0929916899942,None,None,None,None,,17,001,2023_Jan_20_1455,searchDisc5,2021.2.3,59.97373749586706,
images/exp2b_trial_88_colour2_distractors31_l.png,l,1,2,31,0,,,,,0,124,124,124,,,,,,,,,,,,,,,,,,,,,,,,,,,,,,,,,,,,,,,,,,,327.1094923230121,None,2,0.15333251596894115,327.1094923230121,None,,,,,,,,,,,,,,,,None,None,None,,None,None,327.31176741298987,None,1,1,0.6359510159818456,327.31176741298987,None,327.9429562000034,None,None,None,None,,17,001,2023_Jan_20_1455,searchDisc5,2021.2.3,59.97373749586706,
images/exp2a_trial_78_colour3_distractors31_r.png,r,3,3,31,0,,,,,0,125,125,125,,,,,,,,,,,,,,,,,,,,,,,,,,,,,,,,,,,,,,,,,,,327.9593576340121,None,2,0.15442725404864177,327.9593576340121,None,,,,,,,,,,,,,,,,None,None,None,,None,None,328.1595437990036,None,3,1,0.6358332899981178,328.1595437990036,None,328.79326519598834,None,None,None,None,,17,001,2023_Jan_20_1455,searchDisc5,2021.2.3,59.97373749586706,
images/exp2a_trial_125_colour3_distractors31_l.png,l,1,3,31,0,,,,,0,126,126,126,,,,,,,,,,,,,,,,,,,,,,,,,,,,,,,,,,,,,,,,,,,328.8094769170275,None,2,0.23944483004743233,328.8094769170275,None,,,,,,,,,,,,,,,,None,None,None,,None,None,329.09315335500287,None,1,1,0.6013993970118463,329.09315335500287,None,329.6931388509867,None,None,None,None,,17,001,2023_Jan_20_1455,searchDisc5,2021.2.3,59.97373749586706,
images/exp2a_trial_245_colour2_distractors4_l.png,l,1,2,4,0,,,,,0,127,127,127,,,,,,,,,,,,,,,,,,,,,,,,,,,,,,,,,,,,,,,,,,,329.7097895509796,None,2,0.18914662901079282,329.7097895509796,None,,,,,,,,,,,,,,,,None,None,None,,None,None,329.94509437598754,None,1,1,0.6017348400200717,329.94509437598754,None,330.5430257850268,None,None,None,None,,17,001,2023_Jan_20_1455,searchDisc5,2021.2.3,59.97373749586706,
images/exp2b_trial_5_colour2_distractors1_r.png,r,3,2,1,0,,,,,0,128,128,128,,,,,,,,,,,,,,,,,,,,,,,,,,,,,,,,,,,,,,,,,,,330.56162854400463,None,2,0.20614659797865897,330.56162854400463,None,,,,,,,,,,,,,,,,None,None,None,,None,None,330.8091322280234,None,3,1,0.6698523910017684,330.8091322280234,None,331.4762473959883,None,None,None,None,,17,001,2023_Jan_20_1455,searchDisc5,2021.2.3,59.97373749586706,
images/exp2a_trial_29_colour3_distractors31_l.png,l,1,3,31,0,,,,,0,129,129,129,,,,,,,,,,,,,,,,,,,,,,,,,,,,,,,,,,,,,,,,,,,331.49226691102376,None,2,0.17162648198427632,331.49226691102376,None,,,,,,,,,,,,,,,,None,None,None,,None,None,331.7119293590076,None,1,1,0.6690225980128162,331.7119293590076,None,332.37670085999997,None,None,None,None,,17,001,2023_Jan_20_1455,searchDisc5,2021.2.3,59.97373749586706,
images/exp2b_trial_80_colour1_distractors4_l.png,l,1,1,4,0,,,,,0,130,130,130,,,,,,,,,,,,,,,,,,,,,,,,,,,,,,,,,,,,,,,,,,,332.39300463802647,None,2,0.1732393359998241,332.39300463802647,None,,,,,,,,,,,,,,,,None,None,None,,None,None,332.6121374280192,None,1,1,0.7037197719910182,332.6121374280192,None,333.3109654929896,None,None,None,None,,17,001,2023_Jan_20_1455,searchDisc5,2021.2.3,59.97373749586706,
images/exp2c_trial_83_colour1_distractors31_l.png,l,1,1,31,0,,,,,0,131,131,131,,,,,,,,,,,,,,,,,,,,,,,,,,,,,,,,,,,,,,,,,,,333.3264480389771,None,2,0.15351079602260143,333.3264480389771,None,,,,,,,,,,,,,,,,None,None,None,,None,None,333.52971042500576,None,1,1,0.6184993889764883,333.52971042500576,None,334.14332991502596,None,None,None,None,,17,001,2023_Jan_20_1455,searchDisc5,2021.2.3,59.97373749586706,
images/exp2a_trial_71_colour2_distractors9_r.png,r,3,2,9,0,,,,,0,132,132,132,,,,,,,,,,,,,,,,,,,,,,,,,,,,,,,,,,,,,,,,,,,334.1607106300071,None,2,0.1713883670163341,334.1607106300071,None,,,,,,,,,,,,,,,,None,None,None,,None,None,334.37937238201266,None,3,1,0.8001456609927118,334.37937238201266,None,335.1765240539855,None,None,None,None,,17,001,2023_Jan_20_1455,searchDisc5,2021.2.3,59.97373749586706,
images/exp2a_trial_47_colour1_distractors1_l.png,l,1,1,1,0,,,,,0,133,133,133,,,,,,,,,,,,,,,,,,,,,,,,,,,,,,,,,,,,,,,,,,,335.19352822500514,None,2,0.18817473098170012,335.19352822500514,None,,,,,,,,,,,,,,,,None,None,None,,None,None,335.42949483398115,None,1,1,0.7558107229997404,335.42949483398115,None,336.17673713901894,None,None,None,None,,17,001,2023_Jan_20_1455,searchDisc5,2021.2.3,59.97373749586706,
images/exp2b_trial_98_colour1_distractors9_r.png,r,3,1,9,0,,,,,0,134,134,134,,,,,,,,,,,,,,,,,,,,,,,,,,,,,,,,,,,,,,,,,,,336.19368334900355,None,2,0.18928918900201097,336.19368334900355,None,,,,,,,,,,,,,,,,None,None,None,,None,None,336.4289573500282,None,3,1,0.569355834973976,336.4289573500282,None,336.99327855902374,None,None,None,None,,17,001,2023_Jan_20_1455,searchDisc5,2021.2.3,59.97373749586706,
images/exp2c_trial_261_colour2_distractors1_r.png,r,3,2,1,0,,,,,0,135,135,135,,,,,,,,,,,,,,,,,,,,,,,,,,,,,,,,,,,,,,,,,,,337.0098076289869,None,2,0.23774307902203873,337.0098076289869,None,,,,,,,,,,,,,,,,None,None,None,,None,None,337.293432698003,None,3,1,0.5225397070171311,337.293432698003,None,337.8100963219942,None,None,None,None,,17,001,2023_Jan_20_1455,searchDisc5,2021.2.3,59.97373749586706,
images/exp2a_trial_149_colour2_distractors4_l.png,l,1,2,4,0,,,,,0,136,136,136,,,,,,,,,,,,,,,,,,,,,,,,,,,,,,,,,,,,,,,,,,,337.827138594992,None,2,0.22298333799699321,337.827138594992,None,,,,,,,,,,,,,,,,None,None,None,,None,None,338.09568363102153,None,1,1,0.6202229490154423,338.09568363102153,None,338.71003833700087,None,None,None,None,,17,001,2023_Jan_20_1455,searchDisc5,2021.2.3,59.97373749586706,
images/exp2a_trial_220_colour3_distractors19_l.png,l,1,3,19,0,,,,,0,137,137,137,,,,,,,,,,,,,,,,,,,,,,,,,,,,,,,,,,,,,,,,,,,338.72885832801694,None,2,0.187772283970844,338.72885832801694,None,,,,,,,,,,,,,,,,None,None,None,,None,None,338.9620524710044,None,1,1,0.5706541459658183,338.9620524710044,None,339.5267397029849,None,None,None,None,,17,001,2023_Jan_20_1455,searchDisc5,2021.2.3,59.97373749586706,
images/exp2c_trial_291_colour1_distractors19_r.png,r,3,1,19,0,,,,,0,138,138,138,,,,,,,,,,,,,,,,,,,,,,,,,,,,,,,,,,,,,,,,,,,339.54406544199446,None,2,0.17044423095649108,339.54406544199446,None,,,,,,,,,,,,,,,,None,None,None,,None,None,339.76323124801274,None,3,1,0.6517395180417225,339.76323124801274,None,340.41009198002865,None,None,None,None,,17,001,2023_Jan_20_1455,searchDisc5,2021.2.3,59.97373749586706,
images/exp2b_trial_168_colour2_distractors19_r.png,r,3,2,19,0,,,,,0,139,139,139,,,,,,,,,,,,,,,,,,,,,,,,,,,,,,,,,,,,,,,,,,,340.42584559402894,None,2,0.2235397640033625,340.42584559402894,None,,,,,,,,,,,,,,,,None,None,None,,None,None,340.6958893960109,None,3,1,0.6516005029552616,340.6958893960109,None,341.3445292440185,None,None,None,None,,17,001,2023_Jan_20_1455,searchDisc5,2021.2.3,59.97373749586706,
images/exp1a_trial_208_colour1_distractors4_l.png,l,1,1,4,0,,,,,0,140,140,140,,,,,,,,,,,,,,,,,,,,,,,,,,,,,,,,,,,,,,,,,,,341.35998248599935,None,2,0.18686587503179908,341.35998248599935,None,,,,,,,,,,,,,,,,None,None,None,,None,None,341.5956462689792,None,1,1,0.6544760289834812,341.5956462689792,None,342.2434482799901,None,None,None,None,,17,001,2023_Jan_20_1455,searchDisc5,2021.2.3,59.97373749586706,
images/exp2a_trial_12_colour3_distractors9_r.png,r,3,3,9,0,,,,,0,141,141,141,,,,,,,,,,,,,,,,,,,,,,,,,,,,,,,,,,,,,,,,,,,342.2604757989757,None,2,0.20672320597805083,342.2604757989757,None,,,,,,,,,,,,,,,,None,None,None,,None,None,342.5125393680064,None,3,1,0.5694172799703665,342.5125393680064,None,343.07793535899253,None,None,None,None,,17,001,2023_Jan_20_1455,searchDisc5,2021.2.3,59.97373749586706,
images/exp1a_trial_136_colour2_distractors19_r.png,r,3,2,19,0,,,,,0,142,142,142,,,,,,,,,,,,,,,,,,,,,,,,,,,,,,,,,,,,,,,,,,,343.0933490159805,None,2,0.22234690299956128,343.0933490159805,None,,,,,,,,,,,,,,,,None,None,None,,None,None,343.3613253639778,None,3,1,0.6655097150360234,343.3613253639778,None,344.02691190301556,None,None,None,None,,17,001,2023_Jan_20_1455,searchDisc5,2021.2.3,59.97373749586706,
images/exp2b_trial_181_colour2_distractors4_l.png,l,1,2,4,0,,,,,0,143,143,143,,,,,,,,,,,,,,,,,,,,,,,,,,,,,,,,,,,,,,,,,,,344.0433643020224,None,2,0.3047694469569251,344.0433643020224,None,,,,,,,,,,,,,,,,None,None,None,,None,None,344.39442552498076,None,1,1,0.7216292660450563,344.39442552498076,None,345.11021039299084,None,None,None,None,,17,001,2023_Jan_20_1455,searchDisc5,2021.2.3,59.97373749586706,
images/exp2c_trial_219_colour3_distractors9_l.png,l,1,3,9,0,,,,,0,144,144,144,,,,,,,,,,,,,,,,,,,,,,,,,,,,,,,,,,,,,,,,,,,345.12809631897835,None,2,0.20416122901951894,345.12809631897835,None,,,,,,,,,,,,,,,,None,None,None,,None,None,345.3771207440295,None,1,1,0.6378545050392859,345.3771207440295,None,346.0104215559724,None,None,None,None,,17,001,2023_Jan_20_1455,searchDisc5,2021.2.3,59.97373749586706,
images/exp1a_trial_173_colour3_distractors19_r.png,r,3,3,19,0,,,,,0,145,145,145,,,,,,,,,,,,,,,,,,,,,,,,,,,,,,,,,,,,,,,,,,,346.0267452339758,None,2,0.23766855703433976,346.0267452339758,None,,,,,,,,,,,,,,,,None,None,None,,None,None,346.31352055002935,None,3,1,0.5191795629798435,346.31352055002935,None,346.82771208098274,None,None,None,None,,17,001,2023_Jan_20_1455,searchDisc5,2021.2.3,59.97373749586706,
images/exp2b_trial_186_colour3_distractors4_l.png,l,1,3,4,0,,,,,0,146,146,146,,,,,,,,,,,,,,,,,,,,,,,,,,,,,,,,,,,,,,,,,,,346.8434282600065,None,2,0.2040816830121912,346.8434282600065,None,,,,,,,,,,,,,,,,None,None,None,,None,None,347.09622048801975,None,1,1,0.8213818939984776,347.09622048801975,None,347.9102929280081,None,None,None,None,,17,001,2023_Jan_20_1455,searchDisc5,2021.2.3,59.97373749586706,
images/exp2a_trial_166_colour2_distractors4_r.png,r,3,2,4,0,,,,,0,147,147,147,,,,,,,,,,,,,,,,,,,,,,,,,,,,,,,,,,,,,,,,,,,347.92684419901343,None,2,0.1375708759878762,347.92684419901343,None,,,,,,,,,,,,,,,,None,None,None,,None,None,348.11289596301503,None,3,1,0.5699354960233904,348.11289596301503,None,348.6770099859743,None,None,None,None,,17,001,2023_Jan_20_1455,searchDisc5,2021.2.3,59.97373749586706,
images/exp2b_trial_27_colour3_distractors9_l.png,l,1,3,9,0,,,,,0,148,148,148,,,,,,,,,,,,,,,,,,,,,,,,,,,,,,,,,,,,,,,,,,,348.6935671379906,None,2,0.20672105200355873,348.6935671379906,None,,,,,,,,,,,,,,,,None,None,None,,None,None,348.9458113510045,None,1,1,0.5684037960018031,348.9458113510045,None,349.51040975198265,None,None,None,None,,17,001,2023_Jan_20_1455,searchDisc5,2021.2.3,59.97373749586706,
images/exp1a_trial_199_colour2_distractors9_r.png,r,3,2,9,0,,,,,0,149,149,149,,,,,,,,,,,,,,,,,,,,,,,,,,,,,,,,,,,,,,,,,,,349.52738298103213,None,2,0.20679224998457357,349.52738298103213,None,,,,,,,,,,,,,,,,None,None,None,,None,None,349.7800159510225,None,3,1,0.5009790800395422,349.7800159510225,None,350.27703772597596,None,None,None,None,,17,001,2023_Jan_20_1455,searchDisc5,2021.2.3,59.97373749586706,
images/exp2b_trial_173_colour3_distractors19_r.png,r,3,3,19,0,,,,,0,150,150,150,,,,,,,,,,,,,,,,,,,,,,,,,,,,,,,,,,,,,,,,,,,350.2938408619957,None,2,0.20651455299230292,350.2938408619957,None,,,,,,,,,,,,,,,,None,None,None,,None,None,350.54377886402654,None,3,1,0.6014100610045716,350.54377886402654,None,351.1439007449837,None,None,None,None,,17,001,2023_Jan_20_1455,searchDisc5,2021.2.3,59.97373749586706,
images/exp2a_trial_311_colour2_distractors19_l.png,l,1,2,19,0,,,,,0,151,151,151,,,,,,,,,,,,,,,,,,,,,,,,,,,,,,,,,,,,,,,,,,,351.16078076098347,None,2,0.2232923789997585,351.16078076098347,None,,,,,,,,,,,,,,,,None,None,None,,None,None,351.42735069297487,None,1,1,0.7287457499769516,351.42735069297487,None,352.16029086402267,None,None,None,None,,17,001,2023_Jan_20_1455,searchDisc5,2021.2.3,59.97373749586706,
images/exp1a_trial_273_colour1_distractors9_l.png,l,1,1,9,0,,,,,0,152,152,152,,,,,,,,,,,,,,,,,,,,,,,,,,,,,,,,,,,,,,,,,,,352.1792686380213,None,2,0.22209098399616778,352.1792686380213,None,,,,,,,,,,,,,,,,None,None,None,,None,None,352.443688076979,None,1,1,0.8879526850068942,352.443688076979,None,353.3281624089752,None,None,None,None,,17,001,2023_Jan_20_1455,searchDisc5,2021.2.3,59.97373749586706,
images/exp2b_trial_241_colour1_distractors9_l.png,l,1,1,9,0,,,,,0,153,153,153,,,,,,,,,,,,,,,,,,,,,,,,,,,,,,,,,,,,,,,,,,,353.3432854679995,None,2,0.18777659902116284,353.3432854679995,None,,,,,,,,,,,,,,,,None,None,None,,None,None,353.58035180700244,None,1,1,0.7044289210462011,353.58035180700244,None,354.27717159899765,None,None,None,None,,17,001,2023_Jan_20_1455,searchDisc5,2021.2.3,59.97373749586706,
images/exp2b_trial_165_colour2_distractors1_r.png,r,3,2,1,0,,,,,0,154,154,154,,,,,,,,,,,,,,,,,,,,,,,,,,,,,,,,,,,,,,,,,,,354.292938211991,None,2,0.2187699150526896,354.292938211991,None,,,,,,,,,,,,,,,,None,None,None,,None,None,354.561570106016,None,3,1,0.6059800629736856,354.561570106016,None,355.1605714059726,None,None,None,None,,17,001,2023_Jan_20_1455,searchDisc5,2021.2.3,59.97373749586706,
images/exp2b_trial_84_colour2_distractors1_l.png,l,1,2,1,0,,,,,0,155,155,155,,,,,,,,,,,,,,,,,,,,,,,,,,,,,,,,,,,,,,,,,,,355.1770033549983,None,2,0.22184603800997138,355.1770033549983,None,,,,,,,,,,,,,,,,None,None,None,,None,None,355.4436387519818,None,1,1,0.6401113000465557,355.4436387519818,None,356.0772020389733,None,None,None,None,,17,001,2023_Jan_20_1455,searchDisc5,2021.2.3,59.97373749586706,
images/exp2c_trial_79_colour1_distractors1_l.png,l,1,1,1,0,,,,,0,156,156,156,,,,,,,,,,,,,,,,,,,,,,,,,,,,,,,,,,,,,,,,,,,356.09382884099614,None,2,0.20502087101340294,356.09382884099614,None,,,,,,,,,,,,,,,,None,None,None,,None,None,356.3438713970245,None,1,1,0.5122484440216795,356.3438713970245,None,356.8605222390208,None,None,None,None,,17,001,2023_Jan_20_1455,searchDisc5,2021.2.3,59.97373749586706,
images/exp2a_trial_59_colour3_distractors9_l.png,l,1,3,9,0,,,,,0,157,157,157,,,,,,,,,,,,,,,,,,,,,,,,,,,,,,,,,,,,,,,,,,,356.87763569300296,None,2,0.20464304403867573,356.87763569300296,None,,,,,,,,,,,,,,,,None,None,None,,None,None,357.1273029029835,None,1,1,0.7375349450157955,357.1273029029835,None,357.8603577210044,None,None,None,None,,17,001,2023_Jan_20_1455,searchDisc5,2021.2.3,59.97373749586706,
images/exp2c_trial_183_colour2_distractors19_l.png,l,1,2,19,0,,,,,0,158,158,158,,,,,,,,,,,,,,,,,,,,,,,,,,,,,,,,,,,,,,,,,,,357.8774737200001,None,2,0.15545949101215228,357.8774737200001,None,,,,,,,,,,,,,,,,None,None,None,,None,None,358.0773624270223,None,1,1,0.487246383971069,358.0773624270223,None,358.5616164350242,None,None,None,None,,17,001,2023_Jan_20_1455,searchDisc5,2021.2.3,59.97373749586706,
images/exp2a_trial_291_colour1_distractors19_r.png,r,3,1,19,0,,,,,0,159,159,159,,,,,,,,,,,,,,,,,,,,,,,,,,,,,,,,,,,,,,,,,,,358.57739225699333,None,2,0.20323307503713295,358.57739225699333,None,,,,,,,,,,,,,,,,None,None,None,,None,None,358.83035593200475,None,3,1,0.6363294199691154,358.83035593200475,None,359.46084566299686,None,None,None,None,,17,001,2023_Jan_20_1455,searchDisc5,2021.2.3,59.97373749586706,
images/exp2b_trial_232_colour2_distractors19_r.png,r,3,2,19,0,,,,,0,160,160,160,,,,,,,,,,,,,,,,,,,,,,,,,,,,,,,,,,,,,,,,,,,359.47779927402735,None,2,0.20754518796456978,359.47779927402735,None,,,,,,,,,,,,,,,,None,None,None,,None,None,359.72940264397766,None,3,1,0.8331459600012749,359.72940264397766,None,360.5608598819992,None,None,None,None,,17,001,2023_Jan_20_1455,searchDisc5,2021.2.3,59.97373749586706,
images/exp2a_trial_203_colour3_distractors4_r.png,r,3,3,4,0,,,,,0,161,161,161,,,,,,,,,,,,,,,,,,,,,,,,,,,,,,,,,,,,,,,,,,,360.57790184300393,None,2,0.3052656219806522,360.57790184300393,None,,,,,,,,,,,,,,,,None,None,None,,None,None,360.9273975469987,None,3,1,0.5545403319993056,360.9273975469987,None,361.4775048719777,None,None,None,None,,17,001,2023_Jan_20_1455,searchDisc5,2021.2.3,59.97373749586706,
images/exp2b_trial_134_colour2_distractors4_r.png,r,3,2,4,0,,,,,0,162,162,162,,,,,,,,,,,,,,,,,,,,,,,,,,,,,,,,,,,,,,,,,,,361.49686662101885,None,2,0.28736923000542447,361.49686662101885,None,,,,,,,,,,,,,,,,None,None,None,,None,None,361.82744409301085,None,3,1,0.5058150629629381,361.82744409301085,None,362.3275701879931,None,None,None,None,,17,001,2023_Jan_20_1455,searchDisc5,2021.2.3,59.97373749586706,
images/exp1a_trial_290_colour1_distractors9_r.png,r,3,1,9,0,,,,,0,163,163,163,,,,,,,,,,,,,,,,,,,,,,,,,,,,,,,,,,,,,,,,,,,362.3445328740054,None,2,0.3377306420006789,362.3445328740054,None,,,,,,,,,,,,,,,,None,None,None,,None,None,362.72767516301246,None,3,1,0.6041005830047652,362.72767516301246,None,363.3280800720269,None,None,None,None,,17,001,2023_Jan_20_1455,searchDisc5,2021.2.3,59.97373749586706,
images/exp2a_trial_214_colour2_distractors9_l.png,l,1,2,9,0,,,,,0,164,164,164,,,,,,,,,,,,,,,,,,,,,,,,,,,,,,,,,,,,,,,,,,,363.34507254097844,None,2,0.28717735304962844,363.34507254097844,None,,,,,,,,,,,,,,,,None,None,None,,None,None,363.6782604249893,None,1,1,0.8364771079504862,363.6782604249893,None,364.5119127190148,None,None,None,None,,17,001,2023_Jan_20_1455,searchDisc5,2021.2.3,59.97373749586706,
images/exp1a_trial_149_colour2_distractors4_l.png,l,1,2,4,0,,,,,0,165,165,165,,,,,,,,,,,,,,,,,,,,,,,,,,,,,,,,,,,,,,,,,,,364.5279759669793,None,2,0.27261789102340117,364.5279759669793,None,,,,,,,,,,,,,,,,None,None,None,,None,None,364.84412857698044,None,1,1,0.6364081299980171,364.84412857698044,None,365.47776460102176,None,None,None,None,,17,001,2023_Jan_20_1455,searchDisc5,2021.2.3,59.97373749586706,
images/exp2c_trial_141_colour3_distractors19_r.png,r,3,3,19,0,,,,,0,166,166,166,,,,,,,,,,,,,,,,,,,,,,,,,,,,,,,,,,,,,,,,,,,365.49474853201536,None,2,0.2544678600388579,365.49474853201536,None,,,,,,,,,,,,,,,,None,None,None,,None,None,365.7948363830219,None,3,1,0.6034667530329898,365.7948363830219,None,366.39437948599806,None,None,None,None,,17,001,2023_Jan_20_1455,searchDisc5,2021.2.3,59.97373749586706,
images/exp2b_trial_13_colour3_distractors19_r.png,r,3,3,19,0,,,,,0,167,167,167,,,,,,,,,,,,,,,,,,,,,,,,,,,,,,,,,,,,,,,,,,,366.4105825939914,None,2,0.2704630749649368,366.4105825939914,None,,,,,,,,,,,,,,,,None,None,None,,None,None,366.72814058099175,None,3,1,0.5035562430275604,366.72814058099175,None,367.22767187802236,None,None,None,None,,17,001,2023_Jan_20_1455,searchDisc5,2021.2.3,59.97373749586706,
images/exp2b_trial_193_colour1_distractors4_r.png,r,3,1,4,0,,,,,0,168,168,168,,,,,,,,,,,,,,,,,,,,,,,,,,,,,,,,,,,,,,,,,,,367.24409588298295,None,2,0.2572934579802677,367.24409588298295,None,,,,,,,,,,,,,,,,None,None,None,,None,None,367.54621647897875,None,3,1,0.5851099560386501,367.54621647897875,None,368.1277246960264,None,None,None,None,,17,001,2023_Jan_20_1455,searchDisc5,2021.2.3,59.97373749586706,
images/exp2a_trial_259_colour1_distractors19_r.png,r,3,1,19,0,,,,,0,169,169,169,,,,,,,,,,,,,,,,,,,,,,,,,,,,,,,,,,,,,,,,,,,368.14378178300103,None,2,0.25601147796260193,368.14378178300103,None,,,,,,,,,,,,,,,,None,None,None,,None,None,368.4447391459835,None,3,1,0.5529538529808633,368.4447391459835,None,368.994350836979,None,None,None,None,,17,001,2023_Jan_20_1455,searchDisc5,2021.2.3,59.97373749586706,
images/exp2b_trial_42_colour3_distractors1_r.png,r,3,3,1,0,,,,,0,170,170,170,,,,,,,,,,,,,,,,,,,,,,,,,,,,,,,,,,,,,,,,,,,369.009976300993,None,2,0.268969378026668,369.009976300993,None,,,,,,,,,,,,,,,,None,None,None,,None,None,369.328010696976,None,3,1,0.5245756619842723,369.328010696976,None,369.84431641300324,None,None,None,None,,17,001,2023_Jan_20_1455,searchDisc5,2021.2.3,59.97373749586706,
images/exp2a_trial_216_colour2_distractors31_l.png,l,1,2,31,0,,,,,0,171,171,171,,,,,,,,,,,,,,,,,,,,,,,,,,,,,,,,,,,,,,,,,,,369.86153205798473,None,2,0.3194022930110805,369.86153205798473,None,,,,,,,,,,,,,,,,None,None,None,,None,None,370.22777242201846,None,1,1,0.7294804739649408,370.22777242201846,None,370.96100360098643,None,None,None,None,,17,001,2023_Jan_20_1455,searchDisc5,2021.2.3,59.97373749586706,
images/exp1a_trial_267_colour3_distractors4_r.png,r,3,3,4,0,,,,,0,172,172,172,,,,,,,,,,,,,,,,,,,,,,,,,,,,,,,,,,,,,,,,,,,370.9783383560134,None,2,0.2534503199858591,370.9783383560134,None,,,,,,,,,,,,,,,,None,None,None,,None,None,371.2781890149927,None,3,1,0.655132461048197,371.2781890149927,None,371.92732792500755,None,None,None,None,,17,001,2023_Jan_20_1455,searchDisc5,2021.2.3,59.97373749586706,
images/exp2b_trial_256_colour1_distractors1_r.png,r,3,1,1,0,,,,,0,173,173,173,,,,,,,,,,,,,,,,,,,,,,,,,,,,,,,,,,,,,,,,,,,371.9444041069946,None,2,0.2548990809591487,371.9444041069946,None,,,,,,,,,,,,,,,,None,None,None,,None,None,372.24454454297666,None,3,1,0.5056704599992372,372.24454454297666,None,372.7443840709922,None,None,None,None,,17,001,2023_Jan_20_1455,searchDisc5,2021.2.3,59.97373749586706,
images/exp1a_trial_276_colour2_distractors1_l.png,l,1,2,1,0,,,,,0,174,174,174,,,,,,,,,,,,,,,,,,,,,,,,,,,,,,,,,,,,,,,,,,,372.76270548498724,None,2,0.22043717798078433,372.76270548498724,None,,,,,,,,,,,,,,,,None,None,None,,None,None,373.0270003420301,None,1,1,0.8899391099694185,373.0270003420301,None,373.9114193869929,None,None,None,None,,17,001,2023_Jan_20_1455,searchDisc5,2021.2.3,59.97373749586706,
images/exp2c_trial_107_colour3_distractors4_r.png,r,3,3,4,0,,,,,0,175,175,175,,,,,,,,,,,,,,,,,,,,,,,,,,,,,,,,,,,,,,,,,,,373.9283226879779,None,2,0.25567107199458405,373.9283226879779,None,,,,,,,,,,,,,,,,None,None,None,,None,None,374.22745757200755,None,3,1,0.6869631240260787,374.22745757200755,None,374.9112522649986,None,None,None,None,,17,001,2023_Jan_20_1455,searchDisc5,2021.2.3,59.97373749586706,
images/exp2a_trial_9_colour2_distractors31_r.png,r,3,2,31,0,,,,,0,176,176,176,,,,,,,,,,,,,,,,,,,,,,,,,,,,,,,,,,,,,,,,,,,374.9276379130315,None,2,0.3056745199719444,374.9276379130315,None,,,,,,,,,,,,,,,,None,None,None,,None,None,375.2776192059973,None,3,1,0.508656885009259,375.2776192059973,None,375.794393405976,None,None,None,None,,17,001,2023_Jan_20_1455,searchDisc5,2021.2.3,59.97373749586706,
images/exp1a_trial_289_colour1_distractors4_r.png,r,3,1,4,0,,,,,0,177,177,177,,,,,,,,,,,,,,,,,,,,,,,,,,,,,,,,,,,,,,,,,,,375.8115834289929,None,2,0.3052539359778166,375.8115834289929,None,,,,,,,,,,,,,,,,None,None,None,,None,None,376.161834981991,None,3,1,0.6207785150036216,376.161834981991,None,376.7777436700009,None,None,None,None,,17,001,2023_Jan_20_1455,searchDisc5,2021.2.3,59.97373749586706,
images/exp2b_trial_250_colour3_distractors4_l.png,l,1,3,4,0,,,,,0,178,178,178,,,,,,,,,,,,,,,,,,,,,,,,,,,,,,,,,,,,,,,,,,,376.79643564199796,None,2,0.2714667650288902,376.79643564199796,None,,,,,,,,,,,,,,,,None,None,None,,None,None,377.11110997298965,None,1,1,0.5890799849876203,377.11110997298965,None,377.69457836998043,None,None,None,None,,17,001,2023_Jan_20_1455,searchDisc5,2021.2.3,59.97373749586706,
images/exp1a_trial_66_colour1_distractors9_r.png,r,3,1,9,0,,,,,0,179,179,179,,,,,,,,,,,,,,,,,,,,,,,,,,,,,,,,,,,,,,,,,,,377.7115353390109,None,2,0.3049372340319678,377.7115353390109,None,,,,,,,,,,,,,,,,None,None,None,,None,None,378.0611489689909,None,3,1,1.036699670017697,378.0611489689909,None,379.0945315450255,None,None,None,None,,17,001,2023_Jan_20_1455,searchDisc5,2021.2.3,59.97373749586706,
images/exp1a_trial_297_colour2_distractors31_r.png,r,3,2,31,0,,,,,0,180,180,180,,,,,,,,,,,,,,,,,,,,,,,,,,,,,,,,,,,,,,,,,,,379.11080969602335,None,2,0.3057820069952868,379.11080969602335,None,,,,,,,,,,,,,,,,None,None,None,,None,None,379.47742914402625,None,3,1,0.8431546509964392,379.47742914402625,None,380.3124967559881,None,None,None,None,,17,001,2023_Jan_20_1455,searchDisc5,2021.2.3,59.97373749586706,
images/exp2c_trial_281_colour3_distractors1_l.png,l,1,3,1,0,,,,,0,181,181,181,,,,,,,,,,,,,,,,,,,,,,,,,,,,,,,,,,,,,,,,,,,380.32777710299706,None,2,0.31893656495958567,380.32777710299706,None,,,,,,,,,,,,,,,,None,None,None,,None,None,380.69544260797556,None,1,1,0.7565002769697458,380.69544260797556,None,381.4446843459911,None,None,None,None,,17,001,2023_Jan_20_1455,searchDisc5,2021.2.3,59.97373749586706,
images/exp1a_trial_184_colour2_distractors31_l.png,l,1,2,31,0,,,,,0,182,182,182,,,,,,,,,,,,,,,,,,,,,,,,,,,,,,,,,,,,,,,,,,,381.4619980319985,None,2,0.35598613100592047,381.4619980319985,None,,,,,,,,,,,,,,,,None,None,None,,None,None,381.8621842460125,None,1,1,0.6320534099941142,381.8621842460125,None,382.4941163559735,None,None,None,None,,17,001,2023_Jan_20_1455,searchDisc5,2021.2.3,59.97373749586706,
images/exp2c_trial_100_colour1_distractors31_r.png,r,3,1,31,0,,,,,0,183,183,183,,,,,,,,,,,,,,,,,,,,,,,,,,,,,,,,,,,,,,,,,,,382.5113270319998,None,2,0.3065294959815219,382.5113270319998,None,,,,,,,,,,,,,,,,None,None,None,,None,None,382.8615336929797,None,3,1,0.6486311650369316,382.8615336929797,None,383.5123195999942,None,None,None,None,,17,001,2023_Jan_20_1455,searchDisc5,2021.2.3,59.97373749586706,
images/exp1a_trial_182_colour2_distractors9_l.png,l,1,2,9,0,,,,,0,184,184,184,,,,,,,,,,,,,,,,,,,,,,,,,,,,,,,,,,,,,,,,,,,383.52817415399477,None,2,0.2697014259756543,383.52817415399477,None,,,,,,,,,,,,,,,,None,None,None,,None,None,383.8449209139799,None,1,1,0.5002871159813367,383.8449209139799,None,384.34464465298805,None,None,None,None,,17,001,2023_Jan_20_1455,searchDisc5,2021.2.3,59.97373749586706,
images/exp2c_trial_161_colour1_distractors4_r.png,r,3,1,4,0,,,,,0,185,185,185,,,,,,,,,,,,,,,,,,,,,,,,,,,,,,,,,,,,,,,,,,,384.3616642340203,None,2,0.32204309798544273,384.3616642340203,None,,,,,,,,,,,,,,,,None,None,None,,None,None,384.7282860560226,None,3,1,0.57281400001375,384.7282860560226,None,385.2955556090048,None,None,None,None,,17,001,2023_Jan_20_1455,searchDisc5,2021.2.3,59.97373749586706,
images/exp2a_trial_119_colour2_distractors19_l.png,l,1,2,19,0,,,,,0,186,186,186,,,,,,,,,,,,,,,,,,,,,,,,,,,,,,,,,,,,,,,,,,,385.3111454300233,None,2,0.27333946397993714,385.3111454300233,None,,,,,,,,,,,,,,,,None,None,None,,None,None,385.6279738129815,None,1,1,0.5793897940311581,385.6279738129815,None,386.2115331019915,None,None,None,None,,17,001,2023_Jan_20_1455,searchDisc5,2021.2.3,59.97373749586706,
images/exp2b_trial_161_colour1_distractors4_r.png,r,3,1,4,0,,,,,0,187,187,187,,,,,,,,,,,,,,,,,,,,,,,,,,,,,,,,,,,,,,,,,,,386.2279107850045,None,2,0.18737607600633055,386.2279107850045,None,,,,,,,,,,,,,,,,None,None,None,,None,None,386.4635653820005,None,3,1,0.5053624089923687,386.4635653820005,None,386.9615787600225,None,None,None,None,,17,001,2023_Jan_20_1455,searchDisc5,2021.2.3,59.97373749586706,
images/exp1a_trial_150_colour2_distractors9_l.png,l,1,2,9,0,,,,,0,188,188,188,,,,,,,,,,,,,,,,,,,,,,,,,,,,,,,,,,,,,,,,,,,386.9776720129885,None,2,0.2714161929907277,386.9776720129885,None,,,,,,,,,,,,,,,,None,None,None,,None,None,387.29563915898325,None,1,1,0.5832679549930617,387.29563915898325,None,387.878103720973,None,None,None,None,,17,001,2023_Jan_20_1455,searchDisc5,2021.2.3,59.97373749586706,
images/exp2c_trial_234_colour3_distractors1_r.png,r,3,3,1,0,,,,,0,189,189,189,,,,,,,,,,,,,,,,,,,,,,,,,,,,,,,,,,,,,,,,,,,387.89508893800667,None,2,0.2057120120152831,387.89508893800667,None,,,,,,,,,,,,,,,,None,None,None,,None,None,388.14695742703043,None,3,1,0.5232841499964707,388.14695742703043,None,388.66260949401766,None,None,None,None,,17,001,2023_Jan_20_1455,searchDisc5,2021.2.3,59.97373749586706,
images/exp2b_trial_109_colour3_distractors19_r.png,r,3,3,19,0,,,,,0,190,190,190,,,,,,,,,,,,,,,,,,,,,,,,,,,,,,,,,,,,,,,,,,,388.67788425297476,None,2,0.2202044349978678,388.67788425297476,None,,,,,,,,,,,,,,,,None,None,None,,None,None,388.9469822079991,None,3,1,0.6053038350073621,388.9469822079991,None,389.54580504501354,None,None,None,None,,17,001,2023_Jan_20_1455,searchDisc5,2021.2.3,59.97373749586706,
images/exp2a_trial_198_colour2_distractors4_r.png,r,3,2,4,0,,,,,0,191,191,191,,,,,,,,,,,,,,,,,,,,,,,,,,,,,,,,,,,,,,,,,,,389.5618390599848,None,2,0.18779622000874951,389.5618390599848,None,,,,,,,,,,,,,,,,None,None,None,,None,None,389.7978945749928,None,3,1,0.5504168550251052,389.7978945749928,None,390.3444535840128,None,None,None,None,,17,001,2023_Jan_20_1455,searchDisc5,2021.2.3,59.97373749586706,
images/exp2b_trial_313_colour3_distractors1_l.png,l,1,3,1,0,,,,,0,192,192,192,,,,,,,,,,,,,,,,,,,,,,,,,,,,,,,,,,,,,,,,,,,390.36164782900596,None,2,0.22450365696568042,390.36164782900596,None,,,,,,,,,,,,,,,,None,None,None,,None,None,390.63096401898656,None,1,1,0.5373010049806908,390.63096401898656,None,391.16226268602185,None,None,None,None,,17,001,2023_Jan_20_1455,searchDisc5,2021.2.3,59.97373749586706,
images/exp1a_trial_270_colour3_distractors31_r.png,r,3,3,31,0,,,,,0,193,193,193,,,,,,,,,,,,,,,,,,,,,,,,,,,,,,,,,,,,,,,,,,,391.1805442920304,None,2,0.18767253297846764,391.1805442920304,None,,,,,,,,,,,,,,,,None,None,None,,None,None,391.4144926490262,None,3,1,0.5331945689977147,391.4144926490262,None,391.94500351797905,None,None,None,None,,17,001,2023_Jan_20_1455,searchDisc5,2021.2.3,59.97373749586706,
images/exp2b_trial_179_colour1_distractors31_l.png,l,1,1,31,0,,,,,0,194,194,194,,,,,,,,,,,,,,,,,,,,,,,,,,,,,,,,,,,,,,,,,,,391.9613843879779,None,2,0.22417562000919133,391.9613843879779,None,,,,,,,,,,,,,,,,None,None,None,,None,None,392.23039744002745,None,1,1,1.016530645021703,392.23039744002745,None,393.24489178900257,None,None,None,None,,17,001,2023_Jan_20_1455,searchDisc5,2021.2.3,59.97373749586706,
images/exp2a_trial_318_colour0_distractors0_r.png,r,3,0,0,0,,,,,0,195,195,195,,,,,,,,,,,,,,,,,,,,,,,,,,,,,,,,,,,,,,,,,,,393.2638988160179,None,2,0.22378731396747753,393.2638988160179,None,,,,,,,,,,,,,,,,None,None,None,,None,None,393.52896561898524,None,3,1,0.5376923059811816,393.52896561898524,None,394.0617333359725,None,None,None,None,,17,001,2023_Jan_20_1455,searchDisc5,2021.2.3,59.97373749586706,
images/exp2a_trial_126_colour0_distractors0_r.png,r,3,0,0,0,,,,,0,196,196,196,,,,,,,,,,,,,,,,,,,,,,,,,,,,,,,,,,,,,,,,,,,394.07866825000383,None,2,0.20545266201952472,394.07866825000383,None,,,,,,,,,,,,,,,,None,None,None,,None,None,394.3310896580224,None,3,1,0.488596940995194,394.3310896580224,None,394.81174351899534,None,None,None,None,,17,001,2023_Jan_20_1455,searchDisc5,2021.2.3,59.97373749586706,
images/exp2a_trial_101_colour2_distractors1_r.png,r,3,2,1,0,,,,,0,197,197,197,,,,,,,,,,,,,,,,,,,,,,,,,,,,,,,,,,,,,,,,,,,394.8280641679885,None,2,0.20653303997823969,394.8280641679885,None,,,,,,,,,,,,,,,,None,None,None,,None,None,395.08041648898507,None,3,1,0.6066134849679656,395.08041648898507,None,395.67925348000716,None,None,None,None,,17,001,2023_Jan_20_1455,searchDisc5,2021.2.3,59.97373749586706,
images/exp2b_trial_20_colour2_distractors1_l.png,l,1,2,1,0,,,,,0,198,198,198,,,,,,,,,,,,,,,,,,,,,,,,,,,,,,,,,,,,,,,,,,,395.6967383879819,None,2,0.20352993300184608,395.6967383879819,None,,,,,,,,,,,,,,,,None,None,None,,None,None,395.9448724290123,None,1,1,0.5709867909899913,395.9448724290123,None,396.5114989149908,None,None,None,None,,17,001,2023_Jan_20_1455,searchDisc5,2021.2.3,59.97373749586706,
images/exp1a_trial_127_colour0_distractors0_l.png,l,1,0,0,0,,,,,0,199,199,199,,,,,,,,,,,,,,,,,,,,,,,,,,,,,,,,,,,,,,,,,,,396.5291139560286,None,2,0.20363637496484444,396.5291139560286,None,,,,,,,,,,,,,,,,None,None,None,,None,None,396.77835531998426,None,1,1,0.5396397250005975,396.77835531998426,None,397.31179219800396,None,None,None,None,,17,001,2023_Jan_20_1455,searchDisc5,2021.2.3,59.97373749586706,
images/exp2c_trial_245_colour2_distractors4_l.png,l,1,2,4,0,,,,,0,200,200,200,,,,,,,,,,,,,,,,,,,,,,,,,,,,,,,,,,,,,,,,,,,397.32885987497866,None,2,0.20677858300041407,397.32885987497866,None,,,,,,,,,,,,,,,,None,None,None,,None,None,397.5807735560229,None,1,1,0.6369279639911838,397.5807735560229,None,398.21168682202114,None,None,None,None,,17,001,2023_Jan_20_1455,searchDisc5,2021.2.3,59.97373749586706,
images/exp2c_trial_187_colour3_distractors9_l.png,l,1,3,9,0,,,,,0,201,201,201,,,,,,,,,,,,,,,,,,,,,,,,,,,,,,,,,,,,,,,,,,,398.228784558014,None,2,0.35461777698947117,398.228784558014,None,,,,,,,,,,,,,,,,None,None,None,,None,None,398.63048753497424,None,1,1,0.5056747019989416,398.63048753497424,None,399.1285286190279,None,None,None,None,,17,001,2023_Jan_20_1455,searchDisc5,2021.2.3,59.97373749586706,
images/exp2c_trial_308_colour2_distractors1_l.png,l,1,2,1,0,,,,,0,202,202,202,,,,,,,,,,,,,,,,,,,,,,,,,,,,,,,,,,,,,,,,,,,399.1448188460199,None,2,0.2085981639684178,399.1448188460199,None,,,,,,,,,,,,,,,,None,None,None,,None,None,399.3950776970014,None,1,1,0.720096681965515,399.3950776970014,None,400.112794073025,None,None,None,None,,17,001,2023_Jan_20_1455,searchDisc5,2021.2.3,59.97373749586706,
images/exp2a_trial_54_colour2_distractors9_l.png,l,1,2,9,0,,,,,0,203,203,203,,,,,,,,,,,,,,,,,,,,,,,,,,,,,,,,,,,,,,,,,,,400.1287244790001,None,2,0.20443216001149267,400.1287244790001,None,,,,,,,,,,,,,,,,None,None,None,,None,None,400.38136647699866,None,1,1,0.6327414769912139,400.38136647699866,None,401.0112212419801,None,None,None,None,,17,001,2023_Jan_20_1455,searchDisc5,2021.2.3,59.97373749586706,
images/exp1a_trial_112_colour1_distractors4_l.png,l,1,1,4,0,,,,,0,204,204,204,,,,,,,,,,,,,,,,,,,,,,,,,,,,,,,,,,,,,,,,,,,401.0286846579984,None,2,0.2056282689445652,401.0286846579984,None,,,,,,,,,,,,,,,,None,None,None,,None,None,401.28058769501513,None,1,1,0.8238608100218698,401.28058769501513,None,402.0951612750243,None,None,None,None,,17,001,2023_Jan_20_1455,searchDisc5,2021.2.3,59.97373749586706,
images/exp2a_trial_226_colour1_distractors9_r.png,r,3,1,9,0,,,,,0,205,205,205,,,,,,,,,,,,,,,,,,,,,,,,,,,,,,,,,,,,,,,,,,,402.11182269698475,None,2,0.22066037298645824,402.11182269698475,None,,,,,,,,,,,,,,,,None,None,None,,None,None,402.37933971802704,None,3,1,0.5864478099974804,402.37933971802704,None,402.9618310720136,None,None,None,None,,17,001,2023_Jan_20_1455,searchDisc5,2021.2.3,59.97373749586706,
images/exp2a_trial_124_colour3_distractors19_l.png,l,1,3,19,0,,,,,0,206,206,206,,,,,,,,,,,,,,,,,,,,,,,,,,,,,,,,,,,,,,,,,,,402.9788582689944,None,2,0.2212589189875871,402.9788582689944,None,,,,,,,,,,,,,,,,None,None,None,,None,None,403.2452394050197,None,1,1,0.7535430229618214,403.2452394050197,None,403.9952044389967,None,None,None,None,,17,001,2023_Jan_20_1455,searchDisc5,2021.2.3,59.97373749586706,
images/exp2b_trial_138_colour3_distractors1_r.png,r,3,3,1,0,,,,,0,207,207,207,,,,,,,,,,,,,,,,,,,,,,,,,,,,,,,,,,,,,,,,,,,404.0117301089922,None,2,0.22201604099245742,404.0117301089922,None,,,,,,,,,,,,,,,,None,None,None,,None,None,404.2794791429769,None,3,1,0.5727029260015115,404.2794791429769,None,404.8453054080193,None,None,None,None,,17,001,2023_Jan_20_1455,searchDisc5,2021.2.3,59.97373749586706,
images/exp1a_trial_124_colour3_distractors19_l.png,l,1,3,19,0,,,,,0,208,208,208,,,,,,,,,,,,,,,,,,,,,,,,,,,,,,,,,,,,,,,,,,,404.8619431190309,None,2,0.1878645050455816,404.8619431190309,None,,,,,,,,,,,,,,,,None,None,None,,None,None,405.09520643699216,None,1,1,0.5523692559800111,405.09520643699216,None,405.64637842397786,None,None,None,None,,17,001,2023_Jan_20_1455,searchDisc5,2021.2.3,59.97373749586706,
images/exp2a_trial_281_colour3_distractors1_l.png,l,1,3,1,0,,,,,0,209,209,209,,,,,,,,,,,,,,,,,,,,,,,,,,,,,,,,,,,,,,,,,,,405.6625465140096,None,2,0.21982580196345225,405.6625465140096,None,,,,,,,,,,,,,,,,None,None,None,,None,None,405.9291552050272,None,1,1,0.5534474999876693,405.9291552050272,None,406.47871212302124,None,None,None,None,,17,001,2023_Jan_20_1455,searchDisc5,2021.2.3,59.97373749586706,
images/exp2c_trial_89_colour3_distractors1_l.png,l,1,3,1,0,,,,,0,210,210,210,,,,,,,,,,,,,,,,,,,,,,,,,,,,,,,,,,,,,,,,,,,406.49578974198084,None,2,0.2070347560220398,406.49578974198084,None,,,,,,,,,,,,,,,,None,None,None,,None,None,406.74814720702125,None,1,1,0.5708944780053571,406.74814720702125,None,407.3121035979886,None,None,None,None,,17,001,2023_Jan_20_1455,searchDisc5,2021.2.3,59.97373749586706,
images/exp1a_trial_306_colour1_distractors19_l.png,l,1,1,19,0,,,,,0,211,211,211,,,,,,,,,,,,,,,,,,,,,,,,,,,,,,,,,,,,,,,,,,,407.3290122030303,None,2,0.1737196309841238,407.3290122030303,None,,,,,,,,,,,,,,,,None,None,None,,None,None,407.5481205069809,None,1,1,0.8659584230044857,407.5481205069809,None,408.4121355199779,None,None,None,None,,17,001,2023_Jan_20_1455,searchDisc5,2021.2.3,59.97373749586706,
images/exp1a_trial_189_colour3_distractors31_l.png,l,1,3,31,0,,,,,0,212,212,212,,,,,,,,,,,,,,,,,,,,,,,,,,,,,,,,,,,,,,,,,,,408.428541027999,None,2,0.17382983397692442,408.428541027999,None,,,,,,,,,,,,,,,,None,None,None,,None,None,408.6483396589756,None,1,1,0.61441219097469,408.6483396589756,None,409.26200896200606,None,None,None,None,,17,001,2023_Jan_20_1455,searchDisc5,2021.2.3,59.97373749586706,
images/exp1a_trial_287_colour0_distractors0_l.png,l,1,0,0,0,,,,,0,213,213,213,,,,,,,,,,,,,,,,,,,,,,,,,,,,,,,,,,,,,,,,,,,409.27853407198563,None,2,0.12144438998075202,409.27853407198563,None,,,,,,,,,,,,,,,,None,None,None,,None,None,409.4454842209816,None,1,1,0.5398852640064433,409.4454842209816,None,409.97854404397657,None,None,None,None,,17,001,2023_Jan_20_1455,searchDisc5,2021.2.3,59.97373749586706,
images/exp2a_trial_252_colour3_distractors19_l.png,l,1,3,19,0,,,,,0,214,214,214,,,,,,,,,,,,,,,,,,,,,,,,,,,,,,,,,,,,,,,,,,,409.99512960598804,None,2,0.22425350500270724,409.99512960598804,None,,,,,,,,,,,,,,,,None,None,None,,None,None,410.2639281610027,None,1,1,0.48447372298687696,410.2639281610027,None,410.7454848410154,None,None,None,None,,17,001,2023_Jan_20_1455,searchDisc5,2021.2.3,59.97373749586706,
images/exp2b_trial_316_colour3_distractors19_l.png,l,1,3,19,0,,,,,0,215,215,215,,,,,,,,,,,,,,,,,,,,,,,,,,,,,,,,,,,,,,,,,,,410.7615212519886,None,2,0.1569884149939753,410.7615212519886,None,,,,,,,,,,,,,,,,None,None,None,,None,None,410.96373449102975,None,1,1,0.7170770700322464,410.96373449102975,None,411.67827379297813,None,None,None,None,,17,001,2023_Jan_20_1455,searchDisc5,2021.2.3,59.97373749586706,
images/exp1a_trial_52_colour2_distractors1_l.png,l,1,2,1,0,,,,,0,216,216,216,,,,,,,,,,,,,,,,,,,,,,,,,,,,,,,,,,,,,,,,,,,411.69598097901326,None,2,0.22389856504742056,411.69598097901326,None,,,,,,,,,,,,,,,,None,None,None,,None,None,411.9620966640068,None,1,1,0.4711245280341245,411.9620966640068,None,412.42881598598905,None,None,None,None,,17,001,2023_Jan_20_1455,searchDisc5,2021.2.3,59.97373749586706,
images/exp2b_trial_96_colour1_distractors1_r.png,r,3,1,1,0,,,,,0,217,217,217,,,,,,,,,,,,,,,,,,,,,,,,,,,,,,,,,,,,,,,,,,,412.445315088029,None,2,0.18806229799520224,412.445315088029,None,,,,,,,,,,,,,,,,None,None,None,,None,None,412.68105386098614,None,3,1,0.6738507819827646,412.68105386098614,None,413.34525541101465,None,None,None,None,,17,001,2023_Jan_20_1455,searchDisc5,2021.2.3,59.97373749586706,
images/exp2c_trial_7_colour2_distractors9_r.png,r,3,2,9,0,,,,,0,218,218,218,,,,,,,,,,,,,,,,,,,,,,,,,,,,,,,,,,,,,,,,,,,413.36223894602153,None,2,0.23744621902005747,413.36223894602153,None,,,,,,,,,,,,,,,,None,None,None,,None,None,413.64597649901407,None,3,1,0.6046168030006811,413.64597649901407,None,414.2466234630148,None,None,None,None,,17,001,2023_Jan_20_1455,searchDisc5,2021.2.3,59.97373749586706,
images/exp2a_trial_79_colour1_distractors1_l.png,l,1,1,1,0,,,,,0,219,219,219,,,,,,,,,,,,,,,,,,,,,,,,,,,,,,,,,,,,,,,,,,,414.2619985080091,None,2,0.18770448002032936,414.2619985080091,None,,,,,,,,,,,,,,,,None,None,None,,None,None,414.4985081930063,None,1,1,0.5559625680325553,414.4985081930063,None,415.04645766901666,None,None,None,None,,17,001,2023_Jan_20_1455,searchDisc5,2021.2.3,59.97373749586706,
images/exp2c_trial_182_colour2_distractors9_l.png,l,1,2,9,0,,,,,0,220,220,220,,,,,,,,,,,,,,,,,,,,,,,,,,,,,,,,,,,,,,,,,,,415.06247430300573,None,2,0.22224425699096173,415.06247430300573,None,,,,,,,,,,,,,,,,None,None,None,,None,None,415.3310347010265,None,1,1,0.8706427569850348,415.3310347010265,None,416.1956649309897,None,None,None,None,,17,001,2023_Jan_20_1455,searchDisc5,2021.2.3,59.97373749586706,
images/exp2c_trial_288_colour1_distractors1_r.png,r,3,1,1,0,,,,,0,221,221,221,,,,,,,,,,,,,,,,,,,,,,,,,,,,,,,,,,,,,,,,,,,416.2119723689975,None,2,0.18744886200875044,416.2119723689975,None,,,,,,,,,,,,,,,,None,None,None,,None,None,416.4459263100289,None,3,1,0.7065545209916309,416.4459263100289,None,417.1465922640229,None,None,None,None,,17,001,2023_Jan_20_1455,searchDisc5,2021.2.3,59.97373749586706,
images/exp1a_trial_78_colour3_distractors31_r.png,r,3,3,31,0,,,,,0,222,222,222,,,,,,,,,,,,,,,,,,,,,,,,,,,,,,,,,,,,,,,,,,,417.1626488160109,None,2,0.18692283902782947,417.1626488160109,None,,,,,,,,,,,,,,,,None,None,None,,None,None,417.39618388802046,None,3,1,0.6835368349566124,417.39618388802046,None,418.0789136589912,None,None,None,None,,17,001,2023_Jan_20_1455,searchDisc5,2021.2.3,59.97373749586706,
images/exp1a_trial_280_colour2_distractors31_l.png,l,1,2,31,0,,,,,0,223,223,223,,,,,,,,,,,,,,,,,,,,,,,,,,,,,,,,,,,,,,,,,,,418.095900084998,None,2,0.2213019069749862,418.095900084998,None,,,,,,,,,,,,,,,,None,None,None,,None,None,418.3649889740045,None,1,1,0.6169331429991871,418.3649889740045,None,418.97916505097527,None,None,None,None,,17,001,2023_Jan_20_1455,searchDisc5,2021.2.3,59.97373749586706,
images/exp2a_trial_232_colour2_distractors19_r.png,r,3,2,19,0,,,,,0,224,224,224,,,,,,,,,,,,,,,,,,,,,,,,,,,,,,,,,,,,,,,,,,,418.9960871550138,None,2,0.22100144199794158,418.9960871550138,None,,,,,,,,,,,,,,,,None,None,None,,None,None,419.2625454629888,None,3,1,0.815213618974667,419.2625454629888,None,420.079023595975,None,None,None,None,,17,001,2023_Jan_20_1455,searchDisc5,2021.2.3,59.97373749586706,
