ImageFile,targ_side,correctAnswer,colour,distNo,targetType,trials_2.thisRepN,trials_2.thisTrialN,trials_2.thisN,trials_2.thisIndex,trials.thisRepN,trials.thisTrialN,trials.thisN,trials.thisIndex,text_6.started,text_6.stopped,buttonBox.keys,buttonBox.rt,buttonBox.started,buttonBox.stopped,text_7.started,text_7.stopped,buttonBox_3.keys,buttonBox_3.rt,buttonBox_3.started,buttonBox_3.stopped,text_8.started,text_8.stopped,buttonBox_4.keys,buttonBox_4.rt,buttonBox_4.started,buttonBox_4.stopped,text_9.started,text_9.stopped,buttonBox_5.keys,buttonBox_5.rt,buttonBox_5.started,buttonBox_5.stopped,text_2.started,text_2.stopped,buttonBox_6.keys,buttonBox_6.rt,buttonBox_6.started,buttonBox_6.stopped,text_5.started,text_5.stopped,buttonBox_7.keys,buttonBox_7.rt,image_2.started,image_2.stopped,image_3.started,image_3.stopped,buttonBox_8.keys,buttonBox_8.rt,buttonBox_8.started,buttonBox_8.stopped,polygon.started,polygon.stopped,buttonBox_9.keys,buttonBox_9.rt,buttonBox_9.started,buttonBox_9.stopped,image.started,image.stopped,buttonBox_10.keys,buttonBox_10.corr,buttonBox_10.rt,buttonBox_10.started,buttonBox_10.stopped,text_4.started,text_4.stopped,text.started,text.stopped,buttonBox_11.keys,buttonBox_11.rt,buttonBox_11.started,buttonBox_11.stopped,targetTypeInstruction.started,targetTypeInstruction.stopped,buttonBox_2.keys,buttonBox_2.rt,buttonBox_2.started,buttonBox_2.stopped,dispStimuli.started,dispStimuli.stopped,buttonBox_12.keys,buttonBox_12.corr,buttonBox_12.rt,buttonBox_12.started,buttonBox_12.stopped,breakMessage.started,breakMessage.stopped,buttonBox_13.keys,buttonBox_13.started,buttonBox_13.stopped,buttonBox_13.rt,participant,session,date,expName,psychopyVersion,frameRate,
,,,,,,,,,,,,,,27.11145906202728,None,2,101.79864961601561,27.11145906202728,None,,,,,,,,,,,,,,,,,,,,,,,,,,,,,,,,,,,,,,,,,,,,,,,,,,,,,,,,,,,,,,,,,,,,,,,,,,,,,19,001,2023_Jan_20_1655,searchDisc5,2021.2.3,59.97434463719304,
,,,,,,,,,,,,,,,,,,,,128.8967527290224,None,2,57.53064672998153,128.8967527290224,None,,,,,,,,,,,,,,,,,,,,,,,,,,,,,,,,,,,,,,,,,,,,,,,,,,,,,,,,,,,,,,,,,,,,,,,19,001,2023_Jan_20_1655,searchDisc5,2021.2.3,59.97434463719304,
,,,,,,,,,,,,,,,,,,,,,,,,,,186.43004751298577,None,2,18.948126895003952,186.43004751298577,None,,,,,,,,,,,,,,,,,,,,,,,,,,,,,,,,,,,,,,,,,,,,,,,,,,,,,,,,,,,,,,,,,19,001,2023_Jan_20_1655,searchDisc5,2021.2.3,59.97434463719304,
,,,,,,,,,,,,,,,,,,,,,,,,,,,,,,,,205.3803869910189,None,2,11.316977289039642,205.3803869910189,None,,,,,,,,,,,,,,,,,,,,,,,,,,,,,,,,,,,,,,,,,,,,,,,,,,,,,,,,,,,19,001,2023_Jan_20_1655,searchDisc5,2021.2.3,59.97434463719304,
,,,,,,,,,,,,,,,,,,,,,,,,,,,,,,,,,,,,,,216.69733486801852,None,2,7.514890886028297,217.6827884960221,None,,,,,,,,,,,,,,,,,,,,,,,,,,,,,,,,,,,,,,,,,,,,,,,,,,,,,19,001,2023_Jan_20_1655,searchDisc5,2021.2.3,59.97434463719304,
,,,,,,,,,,,,,,,,,,,,,,,,,,,,,,,,,,,,,,,,,,,,225.1976186549873,None,2,13.282460337039083,,,,,,,,,,,,,,,,,,,,,,,,,,,,,,,,,,,,,,,,,,,,,,,,,19,001,2023_Jan_20_1655,searchDisc5,2021.2.3,59.97434463719304,
,,,,,,,,,,,,,,,,,,,,,,,,,,,,,,,,,,,,,,,,,,,,,,,,241.48137068701908,None,241.48137068701908,None,2,12.447885003988631,241.48137068701908,None,,,,,,,,,,,,,,,,,,,,,,,,,,,,,,,,,,,,,,,,,19,001,2023_Jan_20_1655,searchDisc5,2021.2.3,59.97434463719304,
Practice arrays/exp1a_trial_27_colour3_distractors9_l.png,l,1,,,,0,0,0,12,,,,,,,,,,,,,,,,,,,,,,,,,,,,,,,,,,,,,,,,,,,,,,,253.94812223198824,None,2,10.953234833024908,253.94812223198824,None,264.96540248702513,269.9655159380054,1,1,5.190866143966559,264.96540248702513,None,270.1508679399849,None,,,,,,,,,,,,,,,,,,,,,,,,,,19,001,2023_Jan_20_1655,searchDisc5,2021.2.3,59.97434463719304,
Practice arrays/exp1a_trial_21_colour2_distractors4_l.png,l,1,,,,0,1,1,9,,,,,,,,,,,,,,,,,,,,,,,,,,,,,,,,,,,,,,,,,,,,,,,272.15073845000006,None,2,13.650472207984421,272.15073845000006,None,285.85113120800816,None,1,1,1.2661474390188232,285.85113120800816,None,287.1161347370362,None,,,,,,,,,,,,,,,,,,,,,,,,,,19,001,2023_Jan_20_1655,searchDisc5,2021.2.3,59.97434463719304,
Practice arrays/exp1a_trial_0_colour1_distractors1_r.png,r,3,,,,0,2,2,0,,,,,,,,,,,,,,,,,,,,,,,,,,,,,,,,,,,,,,,,,,,,,,,289.11822734499583,None,2,0.8471975210122764,289.11822734499583,None,290.0180393180344,None,3,1,3.937907677027397,290.0180393180344,None,293.94896719098324,None,,,,,,,,,,,,,,,,,,,,,,,,,,19,001,2023_Jan_20_1655,searchDisc5,2021.2.3,59.97434463719304,
Practice arrays/exp1a_trial_30_colour0_distractors0_r.png,r,3,,,,0,3,3,14,,,,,,,,,,,,,,,,,,,,,,,,,,,,,,,,,,,,,,,,,,,,,,,295.95179357699817,None,2,0.5803138109622523,295.95179357699817,None,296.5832560969866,None,3,1,1.1063619290362112,296.5832560969866,None,297.68307557702065,None,,,,,,,,,,,,,,,,,,,,,,,,,,19,001,2023_Jan_20_1655,searchDisc5,2021.2.3,59.97434463719304,
Practice arrays/exp1a_trial_7_colour2_distractors9_r.png,r,3,,,,0,4,4,2,,,,,,,,,,,,,,,,,,,,,,,,,,,,,,,,,,,,,,,,,,,,,,,299.68519779102644,None,2,0.8471836260287091,299.68519779102644,None,300.58547413902124,None,3,1,1.0038919749786146,300.58547413902124,None,301.5832066559815,None,,,,,,,,,,,,,,,,,,,,,,,,,,19,001,2023_Jan_20_1655,searchDisc5,2021.2.3,59.97434463719304,
Practice arrays/exp1a_trial_17_colour1_distractors9_l.png,l,1,,,,0,5,5,7,,,,,,,,,,,,,,,,,,,,,,,,,,,,,,,,,,,,,,,,,,,,,,,303.58532518998254,None,2,0.7159371040179394,303.58532518998254,None,304.3519726609811,None,1,1,1.984785093984101,304.3519726609811,None,306.33339903102024,None,,,,,,,,,,,,,,,,,,,,,,,,,,19,001,2023_Jan_20_1655,searchDisc5,2021.2.3,59.97434463719304,
Practice arrays/exp1a_trial_14_colour3_distractors31_r.png,r,3,,,,0,6,6,6,,,,,,,,,,,,,,,,,,,,,,,,,,,,,,,,,,,,,,,,,,,,,,,308.3353427859838,None,2,0.6970910560339689,308.3353427859838,None,309.0851057629916,None,3,1,0.9340651739621535,309.0851057629916,None,310.0167212660308,None,,,,,,,,,,,,,,,,,,,,,,,,,,19,001,2023_Jan_20_1655,searchDisc5,2021.2.3,59.97434463719304,
Practice arrays/exp1a_trial_16_colour1_distractors4_l.png,l,1,,,,0,7,7,13,,,,,,,,,,,,,,,,,,,,,,,,,,,,,,,,,,,,,,,,,,,,,,,312.01870382000925,None,2,1.098957787035033,312.01870382000925,None,313.16905621398473,None,1,1,1.0697511979960836,313.16905621398473,None,314.23342047899496,None,,,,,,,,,,,,,,,,,,,,,,,,,,19,001,2023_Jan_20_1655,searchDisc5,2021.2.3,59.97434463719304,
Practice arrays/exp1a_trial_18_colour1_distractors19_l.png,l,1,,,,0,8,8,8,,,,,,,,,,,,,,,,,,,,,,,,,,,,,,,,,,,,,,,,,,,,,,,316.2352163339965,None,2,0.6303208119934425,316.2352163339965,None,316.91689379303716,None,1,1,1.7687994469888508,316.91689379303716,None,318.68353628198383,None,,,,,,,,,,,,,,,,,,,,,,,,,,19,001,2023_Jan_20_1655,searchDisc5,2021.2.3,59.97434463719304,
Practice arrays/exp1a_trial_31_colour0_distractors0_l.png,l,1,,,,0,9,9,15,,,,,,,,,,,,,,,,,,,,,,,,,,,,,,,,,,,,,,,,,,,,,,,320.685700467031,None,2,0.5800570030114613,320.685700467031,None,321.3172398409806,None,1,1,0.9567316560423933,321.3172398409806,None,322.2670060180244,None,,,,,,,,,,,,,,,,,,,,,,,,,,19,001,2023_Jan_20_1655,searchDisc5,2021.2.3,59.97434463719304,
Practice arrays/exp1a_trial_25_colour3_distractors1_l.png,l,1,,,,0,10,10,11,,,,,,,,,,,,,,,,,,,,,,,,,,,,,,,,,,,,,,,,,,,,,,,324.269223262032,None,2,0.8471560080070049,324.269223262032,None,325.1672293070005,None,1,1,1.355690639000386,325.1672293070005,None,326.51728169299895,None,,,,,,,,,,,,,,,,,,,,,,,,,,19,001,2023_Jan_20_1655,searchDisc5,2021.2.3,59.97434463719304,
Practice arrays/exp1a_trial_12_colour3_distractors9_r.png,r,3,,,,0,11,11,5,,,,,,,,,,,,,,,,,,,,,,,,,,,,,,,,,,,,,,,,,,,,,,,328.5191979550291,None,2,0.7972945499932393,328.5191979550291,None,329.36743210302666,None,3,1,1.0883490820415318,329.36743210302666,None,330.4505443419912,None,,,,,,,,,,,,,,,,,,,,,,,,,,19,001,2023_Jan_20_1655,searchDisc5,2021.2.3,59.97434463719304,
Practice arrays/exp1a_trial_10_colour3_distractors1_r.png,r,3,,,,0,12,12,4,,,,,,,,,,,,,,,,,,,,,,,,,,,,,,,,,,,,,,,,,,,,,,,332.45276520203333,None,2,0.8300326989847235,332.45276520203333,None,333.3363352580345,None,3,1,1.289051738975104,333.3363352580345,None,334.61748969799373,None,,,,,,,,,,,,,,,,,,,,,,,,,,19,001,2023_Jan_20_1655,searchDisc5,2021.2.3,59.97434463719304,
Practice arrays/exp1a_trial_23_colour2_distractors19_l.png,l,1,,,,0,13,13,10,,,,,,,,,,,,,,,,,,,,,,,,,,,,,,,,,,,,,,,,,,,,,,,336.61953035200713,None,2,0.8658871700172313,336.61953035200713,None,337.5364345710259,None,1,1,1.7995983980363235,337.5364345710259,None,339.3340943530202,None,,,,,,,,,,,,,,,,,,,,,,,,,,19,001,2023_Jan_20_1655,searchDisc5,2021.2.3,59.97434463719304,
Practice arrays/exp1a_trial_1_colour1_distractors4_r.png,r,3,,,,0,14,14,1,,,,,,,,,,,,,,,,,,,,,,,,,,,,,,,,,,,,,,,,,,,,,,,341.3364054110134,None,2,0.43047851300798357,341.3364054110134,None,341.817485372012,None,3,1,1.036314224009402,341.817485372012,None,342.85094347503036,None,,,,,,,,,,,,,,,,,,,,,,,,,,19,001,2023_Jan_20_1655,searchDisc5,2021.2.3,59.97434463719304,
Practice arrays/exp1a_trial_8_colour2_distractors19_r.png,r,3,,,,0,15,15,3,,,,,,,,,,,,,,,,,,,,,,,,,,,,,,,,,,,,,,,,,,,,,,,344.8527709909831,None,2,1.8491355709847994,344.8527709909831,None,346.75120952300495,None,3,1,0.8989161120261997,346.75120952300495,None,347.65116068703355,None,,,,,,,,,,,,,,,,,,,,,,,,,,19,001,2023_Jan_20_1655,searchDisc5,2021.2.3,59.97434463719304,
,,,,,,,,,,,,,,,,,,,,,,,,,,,,,,,,,,,,,,,,,,,,,,,,,,,,,,,,,,,,,,,,,,,,,,,349.7359201210202,None,2,4.648069590039086,350.719820977014,None,,,,,,,,,,,,,,,,,,,,19,001,2023_Jan_20_1655,searchDisc5,2021.2.3,59.97434463719304,
images/exp2a_trial_147_colour1_distractors31_l.png,l,1,1,31,0,,,,,0,0,0,0,,,,,,,,,,,,,,,,,,,,,,,,,,,,,,,,,,,,,,,,,,,365.7034689349821,None,2,1.1599979940219782,365.7034689349821,None,,,,,,,,,,,,,,,,355.9535280680284,None,2,7.767204206029419,357.93660251703113,None,366.9289014969836,None,1,1,1.1789166469825432,366.9289014969836,None,368.1183438702253,None,None,None,None,,19,001,2023_Jan_20_1655,searchDisc5,2021.2.3,59.97434463719304,
images/exp2b_trial_141_colour3_distractors19_r.png,r,3,3,19,0,,,,,0,1,1,1,,,,,,,,,,,,,,,,,,,,,,,,,,,,,,,,,,,,,,,,,,,368.13416671403684,None,2,0.7706453849677928,368.13416671403684,None,,,,,,,,,,,,,,,,None,None,None,,None,None,368.9535156210186,None,3,1,1.0003569929976948,368.9535156210186,None,369.9515199480869,None,None,None,None,,19,001,2023_Jan_20_1655,searchDisc5,2021.2.3,59.97434463719304,
images/exp1a_trial_126_colour0_distractors0_r.png,r,3,0,0,0,,,,,0,2,2,2,,,,,,,,,,,,,,,,,,,,,,,,,,,,,,,,,,,,,,,,,,,369.9682656429941,None,2,0.6531235229922459,369.9682656429941,None,,,,,,,,,,,,,,,,None,None,None,,None,None,370.6684452830232,None,3,1,1.038560761953704,370.6684452830232,None,371.70174170612006,None,None,None,None,,19,001,2023_Jan_20_1655,searchDisc5,2021.2.3,59.97434463719304,
images/exp2b_trial_35_colour1_distractors19_r.png,r,3,1,19,0,,,,,0,3,3,3,,,,,,,,,,,,,,,,,,,,,,,,,,,,,,,,,,,,,,,,,,,371.72035744501045,None,2,0.7213410019758157,371.72035744501045,None,,,,,,,,,,,,,,,,None,None,None,,None,None,372.4873917240184,None,3,1,1.0315640500048175,372.4873917240184,None,373.5185525881301,None,None,None,None,,19,001,2023_Jan_20_1655,searchDisc5,2021.2.3,59.97434463719304,
images/exp2a_trial_190_colour0_distractors0_r.png,r,3,0,0,0,,,,,0,4,4,4,,,,,,,,,,,,,,,,,,,,,,,,,,,,,,,,,,,,,,,,,,,373.5349868509802,None,2,0.6868731870199554,373.5349868509802,None,,,,,,,,,,,,,,,,None,None,None,,None,None,374.268725470989,None,3,1,0.9893078400054947,374.268725470989,None,375.2517774661013,None,None,None,None,,19,001,2023_Jan_20_1655,searchDisc5,2021.2.3,59.97434463719304,
images/exp2b_trial_212_colour2_distractors1_l.png,l,1,2,1,0,,,,,0,5,5,5,,,,,,,,,,,,,,,,,,,,,,,,,,,,,,,,,,,,,,,,,,,375.26832900900627,None,2,0.6701852470287122,375.26832900900627,None,,,,,,,,,,,,,,,,None,None,None,,None,None,375.98551855701953,None,1,1,0.8365214730147272,375.98551855701953,None,376.81860589411224,None,None,None,None,,19,001,2023_Jan_20_1655,searchDisc5,2021.2.3,59.97434463719304,
images/exp2b_trial_271_colour1_distractors1_l.png,l,1,1,1,0,,,,,0,6,6,6,,,,,,,,,,,,,,,,,,,,,,,,,,,,,,,,,,,,,,,,,,,376.8352522919886,None,2,0.573262205987703,376.8352522919886,None,,,,,,,,,,,,,,,,None,None,None,,None,None,377.4545405799872,None,1,1,0.8020999220316298,377.4545405799872,None,378.2521856240986,None,None,None,None,,19,001,2023_Jan_20_1655,searchDisc5,2021.2.3,59.97434463719304,
images/exp2c_trial_310_colour2_distractors9_l.png,l,1,2,9,0,,,,,0,7,7,7,,,,,,,,,,,,,,,,,,,,,,,,,,,,,,,,,,,,,,,,,,,378.2683212889824,None,2,0.5209746939945035,378.2683212889824,None,,,,,,,,,,,,,,,,None,None,None,,None,None,378.8349089170224,None,1,1,0.9714028920279816,378.8349089170224,None,379.80185573310007,None,None,None,None,,19,001,2023_Jan_20_1655,searchDisc5,2021.2.3,59.97434463719304,
images/exp2a_trial_143_colour1_distractors1_l.png,l,1,1,1,0,,,,,0,8,8,8,,,,,,,,,,,,,,,,,,,,,,,,,,,,,,,,,,,,,,,,,,,379.81834446801804,None,2,0.42296925495611504,379.81834446801804,None,,,,,,,,,,,,,,,,None,None,None,,None,None,380.28726098901825,None,1,1,0.8202367579797283,380.28726098901825,None,381.101417232136,None,None,None,None,,19,001,2023_Jan_20_1655,searchDisc5,2021.2.3,59.97434463719304,
images/exp2b_trial_178_colour1_distractors19_l.png,l,1,1,19,0,,,,,0,9,9,9,,,,,,,,,,,,,,,,,,,,,,,,,,,,,,,,,,,,,,,,,,,381.11800736701116,None,2,0.4238886900129728,381.11800736701116,None,,,,,,,,,,,,,,,,None,None,None,,None,None,381.58742639498087,None,1,1,1.1685148439719342,381.58742639498087,None,382.7520208651025,None,None,None,None,,19,001,2023_Jan_20_1655,searchDisc5,2021.2.3,59.97434463719304,
images/exp2c_trial_76_colour3_distractors9_r.png,r,3,3,9,0,,,,,0,10,10,10,,,,,,,,,,,,,,,,,,,,,,,,,,,,,,,,,,,,,,,,,,,382.76860864902847,None,2,0.4064783030189574,382.76860864902847,None,,,,,,,,,,,,,,,,None,None,None,,None,None,383.22079506801674,None,3,1,1.585728520003613,383.22079506801674,None,384.80186090409404,None,None,None,None,,19,001,2023_Jan_20_1655,searchDisc5,2021.2.3,59.97434463719304,
images/exp2a_trial_309_colour2_distractors4_l.png,l,1,2,4,0,,,,,0,11,11,11,,,,,,,,,,,,,,,,,,,,,,,,,,,,,,,,,,,,,,,,,,,384.8188105520094,None,2,0.3723606700077653,384.8188105520094,None,,,,,,,,,,,,,,,,None,None,None,,None,None,385.2377909339848,None,1,1,1.2701295129954815,385.2377909339848,None,386.502164655138,None,None,None,None,,19,001,2023_Jan_20_1655,searchDisc5,2021.2.3,59.97434463719304,
images/exp2a_trial_311_colour2_distractors19_l.png,l,1,2,19,0,,,,,0,12,12,12,,,,,,,,,,,,,,,,,,,,,,,,,,,,,,,,,,,,,,,,,,,386.5219692600076,None,2,0.33692790498025715,386.5219692600076,None,,,,,,,,,,,,,,,,None,None,None,,None,None,386.90486780303763,None,1,1,1.5485095890471712,386.90486780303763,None,388.4522275911353,None,None,None,None,,19,001,2023_Jan_20_1655,searchDisc5,2021.2.3,59.97434463719304,
images/exp1a_trial_75_colour3_distractors4_r.png,r,3,3,4,0,,,,,0,13,13,13,,,,,,,,,,,,,,,,,,,,,,,,,,,,,,,,,,,,,,,,,,,388.46963891299674,None,2,0.3888137110043317,388.46963891299674,None,,,,,,,,,,,,,,,,None,None,None,,None,None,388.90282701299293,None,3,1,0.9206983899930492,388.90282701299293,None,389.8189235990925,None,None,None,None,,19,001,2023_Jan_20_1655,searchDisc5,2021.2.3,59.97434463719304,
images/exp1a_trial_136_colour2_distractors19_r.png,r,3,2,19,0,,,,,0,14,14,14,,,,,,,,,,,,,,,,,,,,,,,,,,,,,,,,,,,,,,,,,,,389.8376453649835,None,2,0.3381097210221924,389.8376453649835,None,,,,,,,,,,,,,,,,None,None,None,,None,None,390.22160480200546,None,3,1,0.9184705509687774,390.22160480200546,None,391.13572066213817,None,None,None,None,,19,001,2023_Jan_20_1655,searchDisc5,2021.2.3,59.97434463719304,
images/exp2a_trial_99_colour1_distractors19_r.png,r,3,1,19,0,,,,,0,15,15,15,,,,,,,,,,,,,,,,,,,,,,,,,,,,,,,,,,,,,,,,,,,391.15263573802076,None,2,0.3378094240324572,391.15263573802076,None,,,,,,,,,,,,,,,,None,None,None,,None,None,391.5387039090274,None,3,1,1.1866068780072965,391.5387039090274,None,392.7188991421193,None,None,None,None,,19,001,2023_Jan_20_1655,searchDisc5,2021.2.3,59.97434463719304,
images/exp2c_trial_129_colour1_distractors4_r.png,r,3,1,4,0,,,,,0,16,16,16,,,,,,,,,,,,,,,,,,,,,,,,,,,,,,,,,,,,,,,,,,,392.73672995803645,None,2,0.7059069569804706,392.73672995803645,None,,,,,,,,,,,,,,,,None,None,None,,None,None,393.48877565498697,None,3,1,0.7549701110110618,393.48877565498697,None,394.2367530131072,None,None,None,None,,19,001,2023_Jan_20_1655,searchDisc5,2021.2.3,59.97434463719304,
images/exp2c_trial_306_colour1_distractors19_l.png,l,1,1,19,0,,,,,0,17,17,17,,,,,,,,,,,,,,,,,,,,,,,,,,,,,,,,,,,,,,,,,,,394.2522296769894,None,2,0.3374957030173391,394.2522296769894,None,,,,,,,,,,,,,,,,None,None,None,,None,None,394.63657324103406,None,1,1,0.8880267159547657,394.63657324103406,None,395.5211434630968,None,None,None,None,,19,001,2023_Jan_20_1655,searchDisc5,2021.2.3,59.97434463719304,
images/exp2c_trial_103_colour2_distractors9_r.png,r,3,2,9,0,,,,,0,18,18,18,,,,,,,,,,,,,,,,,,,,,,,,,,,,,,,,,,,,,,,,,,,395.53882792498916,None,2,0.5029447120032273,395.53882792498916,None,,,,,,,,,,,,,,,,None,None,None,,None,None,396.0865304620238,None,3,1,1.0857389010488987,396.0865304620238,None,397.1689527850889,None,None,None,None,,19,001,2023_Jan_20_1655,searchDisc5,2021.2.3,59.97434463719304,
images/exp2a_trial_199_colour2_distractors9_r.png,r,3,2,9,0,,,,,0,19,19,19,,,,,,,,,,,,,,,,,,,,,,,,,,,,,,,,,,,,,,,,,,,397.18635830801213,None,2,0.5552235819632187,397.18635830801213,None,,,,,,,,,,,,,,,,None,None,None,,None,None,397.78909504198236,None,3,1,1.0844961009570397,397.78909504198236,None,398.86931794009286,None,None,None,None,,19,001,2023_Jan_20_1655,searchDisc5,2021.2.3,59.97434463719304,
images/exp2c_trial_149_colour2_distractors4_l.png,l,1,2,4,0,,,,,0,20,20,20,,,,,,,,,,,,,,,,,,,,,,,,,,,,,,,,,,,,,,,,,,,398.8867928450345,None,2,0.40688737301388755,398.8867928450345,None,,,,,,,,,,,,,,,,None,None,None,,None,None,399.3370650919969,None,1,1,1.470757860050071,399.3370650919969,None,400.8035285351274,None,None,None,None,,19,001,2023_Jan_20_1655,searchDisc5,2021.2.3,59.97434463719304,
images/exp2c_trial_173_colour3_distractors19_r.png,r,3,3,19,0,,,,,0,21,21,21,,,,,,,,,,,,,,,,,,,,,,,,,,,,,,,,,,,,,,,,,,,400.82037951698294,None,2,0.6026719779474661,400.82037951698294,None,,,,,,,,,,,,,,,,None,None,None,,None,None,401.46952883299673,None,3,1,1.3039392170030624,401.46952883299673,None,402.76924805908345,None,None,None,None,,19,001,2023_Jan_20_1655,searchDisc5,2021.2.3,59.97434463719304,
images/exp2c_trial_302_colour3_distractors31_r.png,r,3,3,31,0,,,,,0,22,22,22,,,,,,,,,,,,,,,,,,,,,,,,,,,,,,,,,,,,,,,,,,,402.786406195024,None,2,0.35482380900066346,402.786406195024,None,,,,,,,,,,,,,,,,None,None,None,,None,None,403.18571655399865,None,3,1,3.0361769649898633,403.18571655399865,None,406.2193967711122,None,None,None,None,,19,001,2023_Jan_20_1655,searchDisc5,2021.2.3,59.97434463719304,
images/exp1a_trial_92_colour3_distractors19_l.png,l,1,3,19,0,,,,,0,23,23,23,,,,,,,,,,,,,,,,,,,,,,,,,,,,,,,,,,,,,,,,,,,406.23698093602434,None,2,0.43963175400858745,406.23698093602434,None,,,,,,,,,,,,,,,,None,None,None,,None,None,406.72158054600004,None,1,1,1.1163242930197157,406.72158054600004,None,407.83612789813776,None,None,None,None,,19,001,2023_Jan_20_1655,searchDisc5,2021.2.3,59.97434463719304,
images/exp2c_trial_9_colour2_distractors31_r.png,r,3,2,31,0,,,,,0,24,24,24,,,,,,,,,,,,,,,,,,,,,,,,,,,,,,,,,,,,,,,,,,,407.8535757730133,None,2,0.3878679819754325,407.8535757730133,None,,,,,,,,,,,,,,,,None,None,None,,None,None,408.2868114429875,None,3,1,0.919390327995643,408.2868114429875,None,409.20281649311653,None,None,None,None,,19,001,2023_Jan_20_1655,searchDisc5,2021.2.3,59.97434463719304,
images/exp2a_trial_224_colour1_distractors1_r.png,r,3,1,1,0,,,,,0,25,25,25,,,,,,,,,,,,,,,,,,,,,,,,,,,,,,,,,,,,,,,,,,,409.2193325620028,None,2,0.37223808601265773,409.2193325620028,None,,,,,,,,,,,,,,,,None,None,None,,None,None,409.6363954709959,None,3,1,0.9544265129952691,409.6363954709959,None,410.5858702370955,None,None,None,None,,19,001,2023_Jan_20_1655,searchDisc5,2021.2.3,59.97434463719304,
images/exp2a_trial_307_colour1_distractors31_l.png,l,1,1,31,0,,,,,0,26,26,26,,,,,,,,,,,,,,,,,,,,,,,,,,,,,,,,,,,,,,,,,,,410.6028380719945,None,2,0.4222800120478496,410.6028380719945,None,,,,,,,,,,,,,,,,None,None,None,,None,None,411.0725419470109,None,1,1,1.2200767869944684,411.0725419470109,None,412.2872920811118,None,None,None,None,,19,001,2023_Jan_20_1655,searchDisc5,2021.2.3,59.97434463719304,
images/exp2c_trial_203_colour3_distractors4_r.png,r,3,3,4,0,,,,,0,27,27,27,,,,,,,,,,,,,,,,,,,,,,,,,,,,,,,,,,,,,,,,,,,412.30402135202894,None,2,0.3874013720196672,412.30402135202894,None,,,,,,,,,,,,,,,,None,None,None,,None,None,412.7374185270164,None,3,1,2.635613881982863,412.7374185270164,None,415.3696699271153,None,None,None,None,,19,001,2023_Jan_20_1655,searchDisc5,2021.2.3,59.97434463719304,
images/exp2a_trial_252_colour3_distractors19_l.png,l,1,3,19,0,,,,,0,28,28,28,,,,,,,,,,,,,,,,,,,,,,,,,,,,,,,,,,,,,,,,,,,415.38632175000384,None,2,0.9888059200020507,415.38632175000384,None,,,,,,,,,,,,,,,,None,None,None,,None,None,416.42271975503536,None,1,1,1.1534497950342484,416.42271975503536,None,417.57071258011854,None,None,None,None,,19,001,2023_Jan_20_1655,searchDisc5,2021.2.3,59.97434463719304,
images/exp1a_trial_90_colour3_distractors4_l.png,l,1,3,4,0,,,,,0,29,29,29,,,,,,,,,,,,,,,,,,,,,,,,,,,,,,,,,,,,,,,,,,,417.588444116991,None,2,0.4702993769897148,417.588444116991,None,,,,,,,,,,,,,,,,None,None,None,,None,None,418.1043092979817,None,1,1,1.3218875940074213,418.1043092979817,None,419.4198171441152,None,None,None,None,,19,001,2023_Jan_20_1655,searchDisc5,2021.2.3,59.97434463719304,
images/exp2b_trial_87_colour2_distractors19_l.png,l,1,2,19,0,,,,,0,30,30,30,,,,,,,,,,,,,,,,,,,,,,,,,,,,,,,,,,,,,,,,,,,419.4359122510068,None,2,0.39052336500026286,419.4359122510068,None,,,,,,,,,,,,,,,,None,None,None,,None,None,419.87320317100966,None,1,1,0.8010187559993938,419.87320317100966,None,420.66982416413373,None,None,None,None,,19,001,2023_Jan_20_1655,searchDisc5,2021.2.3,59.97434463719304,
images/exp2b_trial_203_colour3_distractors4_r.png,r,3,3,4,0,,,,,0,31,31,31,,,,,,,,,,,,,,,,,,,,,,,,,,,,,,,,,,,,,,,,,,,420.6866874870029,None,2,0.38901983300456777,420.6866874870029,None,,,,,,,,,,,,,,,,None,None,None,,None,None,421.12054602702847,None,3,1,0.755604478996247,421.12054602702847,None,421.8698346851219,None,None,None,None,,19,001,2023_Jan_20_1655,searchDisc5,2021.2.3,59.97434463719304,
images/exp2b_trial_134_colour2_distractors4_r.png,r,3,2,4,0,,,,,0,32,32,32,,,,,,,,,,,,,,,,,,,,,,,,,,,,,,,,,,,,,,,,,,,421.8864228010061,None,2,0.3537283430341631,421.8864228010061,None,,,,,,,,,,,,,,,,None,None,None,,None,None,422.2867447240278,None,3,1,0.8054674959857948,422.2867447240278,None,423.0865393531334,None,None,None,None,,19,001,2023_Jan_20_1655,searchDisc5,2021.2.3,59.97434463719304,
images/exp2a_trial_205_colour3_distractors19_r.png,r,3,3,19,0,,,,,0,33,33,33,,,,,,,,,,,,,,,,,,,,,,,,,,,,,,,,,,,,,,,,,,,423.1037205409957,None,2,0.28810436301864684,423.1037205409957,None,,,,,,,,,,,,,,,,None,None,None,,None,None,423.4367507940042,None,3,1,0.753427212999668,423.4367507940042,None,424.18673302210516,None,None,None,None,,19,001,2023_Jan_20_1655,searchDisc5,2021.2.3,59.97434463719304,
images/exp2a_trial_86_colour2_distractors9_l.png,l,1,2,9,0,,,,,0,34,34,34,,,,,,,,,,,,,,,,,,,,,,,,,,,,,,,,,,,,,,,,,,,424.2042019729852,None,2,0.3384124360163696,424.2042019729852,None,,,,,,,,,,,,,,,,None,None,None,,None,None,424.5876344870194,None,1,1,1.1838041819864884,424.5876344870194,None,425.76996531908514,None,None,None,None,,19,001,2023_Jan_20_1655,searchDisc5,2021.2.3,59.97434463719304,
images/exp2a_trial_258_colour1_distractors9_r.png,r,3,1,9,0,,,,,0,35,35,35,,,,,,,,,,,,,,,,,,,,,,,,,,,,,,,,,,,,,,,,,,,425.78654875198845,None,2,0.33782703895121813,425.78654875198845,None,,,,,,,,,,,,,,,,None,None,None,,None,None,426.170312072034,None,3,1,0.7713616539840586,426.170312072034,None,426.9366480761149,None,None,None,None,,19,001,2023_Jan_20_1655,searchDisc5,2021.2.3,59.97434463719304,
images/exp2c_trial_315_colour3_distractors9_l.png,l,1,3,9,0,,,,,0,36,36,36,,,,,,,,,,,,,,,,,,,,,,,,,,,,,,,,,,,,,,,,,,,426.9531395389931,None,2,0.30550592101644725,426.9531395389931,None,,,,,,,,,,,,,,,,None,None,None,,None,None,427.3039424570161,None,1,1,0.8538646590313874,427.3039424570161,None,428.153332179127,None,None,None,None,,19,001,2023_Jan_20_1655,searchDisc5,2021.2.3,59.97434463719304,
images/exp1a_trial_63_colour0_distractors0_l.png,l,1,0,0,0,,,,,0,37,37,37,,,,,,,,,,,,,,,,,,,,,,,,,,,,,,,,,,,,,,,,,,,428.1700396729866,None,2,0.2891342120128684,428.1700396729866,None,,,,,,,,,,,,,,,,None,None,None,,None,None,428.5035706179915,None,1,1,0.9887442099861801,428.5035706179915,None,429.4867343780992,None,None,None,None,,19,001,2023_Jan_20_1655,searchDisc5,2021.2.3,59.97434463719304,
images/exp1a_trial_198_colour2_distractors4_r.png,r,3,2,4,0,,,,,0,38,38,38,,,,,,,,,,,,,,,,,,,,,,,,,,,,,,,,,,,,,,,,,,,429.5053922299994,None,2,0.3377586990245618,429.5053922299994,None,,,,,,,,,,,,,,,,None,None,None,,None,None,429.8893195660203,None,3,1,0.904196151997894,429.8893195660203,None,430.78612942511097,None,None,None,None,,19,001,2023_Jan_20_1655,searchDisc5,2021.2.3,59.97434463719304,
images/exp2c_trial_269_colour3_distractors19_r.png,r,3,3,19,0,,,,,0,39,39,39,,,,,,,,,,,,,,,,,,,,,,,,,,,,,,,,,,,,,,,,,,,430.8052389980294,None,2,0.27114432503003627,430.8052389980294,None,,,,,,,,,,,,,,,,None,None,None,,None,None,431.12060031999135,None,3,1,0.7707489210297354,431.12060031999135,None,431.88681222411685,None,None,None,None,,19,001,2023_Jan_20_1655,searchDisc5,2021.2.3,59.97434463719304,
images/exp2b_trial_166_colour2_distractors4_r.png,r,3,2,4,0,,,,,0,40,40,40,,,,,,,,,,,,,,,,,,,,,,,,,,,,,,,,,,,,,,,,,,,431.9032540700282,None,2,0.3054398460080847,431.9032540700282,None,,,,,,,,,,,,,,,,None,None,None,,None,None,432.25317703100154,None,3,1,0.7707456370117143,432.25317703100154,None,433.0201084741333,None,None,None,None,,19,001,2023_Jan_20_1655,searchDisc5,2021.2.3,59.97434463719304,
images/exp2a_trial_113_colour1_distractors9_l.png,l,1,1,9,0,,,,,0,41,41,41,,,,,,,,,,,,,,,,,,,,,,,,,,,,,,,,,,,,,,,,,,,433.03672531602206,None,2,0.3058207739959471,433.03672531602206,None,,,,,,,,,,,,,,,,None,None,None,,None,None,433.3870391439996,None,1,1,0.7372300580027513,433.3870391439996,None,434.12012045208246,None,None,None,None,,19,001,2023_Jan_20_1655,searchDisc5,2021.2.3,59.97434463719304,
images/exp2c_trial_87_colour2_distractors19_l.png,l,1,2,19,0,,,,,0,42,42,42,,,,,,,,,,,,,,,,,,,,,,,,,,,,,,,,,,,,,,,,,,,434.13884929101914,None,2,0.28878231497947127,434.13884929101914,None,,,,,,,,,,,,,,,,None,None,None,,None,None,434.470612849982,None,1,1,0.9526555910124443,434.470612849982,None,435.4200383471383,None,None,None,None,,19,001,2023_Jan_20_1655,searchDisc5,2021.2.3,59.97434463719304,
images/exp1a_trial_195_colour1_distractors19_r.png,r,3,1,19,0,,,,,0,43,43,43,,,,,,,,,,,,,,,,,,,,,,,,,,,,,,,,,,,,,,,,,,,435.4372701959801,None,2,0.28859556902898476,435.4372701959801,None,,,,,,,,,,,,,,,,None,None,None,,None,None,435.7704424340045,None,3,1,3.0680283789988607,435.7704424340045,None,438.836922557099,None,None,None,None,,19,001,2023_Jan_20_1655,searchDisc5,2021.2.3,59.97434463719304,
images/exp2c_trial_233_colour2_distractors31_r.png,r,3,2,31,0,,,,,0,44,44,44,,,,,,,,,,,,,,,,,,,,,,,,,,,,,,,,,,,,,,,,,,,438.8535999149899,None,2,0.33773463999386877,438.8535999149899,None,,,,,,,,,,,,,,,,None,None,None,,None,None,439.2380343750119,None,3,1,0.8366762470104732,439.2380343750119,None,440.07028673712045,None,None,None,None,,19,001,2023_Jan_20_1655,searchDisc5,2021.2.3,59.97434463719304,
images/exp1a_trial_110_colour3_distractors31_r.png,r,3,3,31,0,,,,,0,45,45,45,,,,,,,,,,,,,,,,,,,,,,,,,,,,,,,,,,,,,,,,,,,440.0870815049857,None,2,0.30505734303733334,440.0870815049857,None,,,,,,,,,,,,,,,,None,None,None,,None,None,440.4379626350128,None,3,1,0.7326500759809278,440.4379626350128,None,441.1703490401327,None,None,None,None,,19,001,2023_Jan_20_1655,searchDisc5,2021.2.3,59.97434463719304,
images/exp2c_trial_179_colour1_distractors31_l.png,l,1,1,31,0,,,,,0,46,46,46,,,,,,,,,,,,,,,,,,,,,,,,,,,,,,,,,,,,,,,,,,,441.1875442760065,None,2,0.3223352539935149,441.1875442760065,None,,,,,,,,,,,,,,,,None,None,None,,None,None,441.5545478510321,None,1,1,1.018377316009719,441.5545478510321,None,442.57040301012455,None,None,None,None,,19,001,2023_Jan_20_1655,searchDisc5,2021.2.3,59.97434463719304,
images/exp1a_trial_140_colour3_distractors9_r.png,r,3,3,9,0,,,,,0,47,47,47,,,,,,,,,,,,,,,,,,,,,,,,,,,,,,,,,,,,,,,,,,,442.5877453360008,None,2,0.33878037601243705,442.5877453360008,None,,,,,,,,,,,,,,,,None,None,None,,None,None,442.9706617349875,None,3,1,0.718930701026693,442.9706617349875,None,443.6868710881157,None,None,None,None,,19,001,2023_Jan_20_1655,searchDisc5,2021.2.3,59.97434463719304,
images/exp2b_trial_315_colour3_distractors9_l.png,l,1,3,9,0,,,,,0,48,48,48,,,,,,,,,,,,,,,,,,,,,,,,,,,,,,,,,,,,,,,,,,,443.7039835859905,None,2,0.3549119980307296,443.7039835859905,None,,,,,,,,,,,,,,,,None,None,None,,None,None,444.1045328330365,None,1,1,0.9061410860158503,444.1045328330365,None,445.00484294008345,None,None,None,None,,19,001,2023_Jan_20_1655,searchDisc5,2021.2.3,59.97434463719304,
images/exp2a_trial_151_colour2_distractors19_l.png,l,1,2,19,0,,,,,0,49,49,49,,,,,,,,,,,,,,,,,,,,,,,,,,,,,,,,,,,,,,,,,,,445.02095289103454,None,2,0.4185103540075943,445.02095289103454,None,,,,,,,,,,,,,,,,None,None,None,,None,None,445.48988190700766,None,1,1,1.0171587609802373,445.48988190700766,None,446.5038260050991,None,None,None,None,,19,001,2023_Jan_20_1655,searchDisc5,2021.2.3,59.97434463719304,
images/exp2a_trial_42_colour3_distractors1_r.png,r,3,3,1,0,,,,,0,50,50,50,,,,,,,,,,,,,,,,,,,,,,,,,,,,,,,,,,,,,,,,,,,446.5233307320159,None,2,0.33682135096751153,446.5233307320159,None,,,,,,,,,,,,,,,,None,None,None,,None,None,446.9069701330154,None,3,1,0.8395006870268844,446.9069701330154,None,447.73706431908647,None,None,None,None,,19,001,2023_Jan_20_1655,searchDisc5,2021.2.3,59.97434463719304,
images/exp1a_trial_76_colour3_distractors9_r.png,r,3,3,9,0,,,,,0,51,51,51,,,,,,,,,,,,,,,,,,,,,,,,,,,,,,,,,,,,,,,,,,,447.75432135601295,None,2,0.28802053799154237,447.75432135601295,None,,,,,,,,,,,,,,,,None,None,None,,None,None,448.08853970101336,None,3,1,0.6536319819861092,448.08853970101336,None,448.7369104170997,None,None,None,None,,19,001,2023_Jan_20_1655,searchDisc5,2021.2.3,59.97434463719304,
images/exp1a_trial_101_colour2_distractors1_r.png,r,3,2,1,0,,,,,0,52,52,52,,,,,,,,,,,,,,,,,,,,,,,,,,,,,,,,,,,,,,,,,,,448.75501407298725,None,2,0.3225004159612581,448.75501407298725,None,,,,,,,,,,,,,,,,None,None,None,,None,None,449.1203958950355,None,3,1,0.9549367210129276,449.1203958950355,None,450.07071303611735,None,None,None,None,,19,001,2023_Jan_20_1655,searchDisc5,2021.2.3,59.97434463719304,
images/exp2b_trial_251_colour3_distractors9_l.png,l,1,3,9,0,,,,,0,53,53,53,,,,,,,,,,,,,,,,,,,,,,,,,,,,,,,,,,,,,,,,,,,450.0880002870108,None,2,0.2887275700340979,450.0880002870108,None,,,,,,,,,,,,,,,,None,None,None,,None,None,450.4209546460188,None,1,1,0.9205775399459526,450.4209546460188,None,451.33731194009886,None,None,None,None,,19,001,2023_Jan_20_1655,searchDisc5,2021.2.3,59.97434463719304,
images/exp2c_trial_213_colour2_distractors4_l.png,l,1,2,4,0,,,,,0,54,54,54,,,,,,,,,,,,,,,,,,,,,,,,,,,,,,,,,,,,,,,,,,,451.3540662379819,None,2,0.2543161909561604,451.3540662379819,None,,,,,,,,,,,,,,,,None,None,None,,None,None,451.6549923410057,None,1,1,0.8560418059932999,451.6549923410057,None,452.5046956951322,None,None,None,None,,19,001,2023_Jan_20_1655,searchDisc5,2021.2.3,59.97434463719304,
images/exp1a_trial_229_colour2_distractors1_r.png,r,3,2,1,0,,,,,0,55,55,55,,,,,,,,,,,,,,,,,,,,,,,,,,,,,,,,,,,,,,,,,,,452.5210791330319,None,2,0.3213275439920835,452.5210791330319,None,,,,,,,,,,,,,,,,None,None,None,,None,None,452.88791064202087,None,3,1,1.9713542020181194,452.88791064202087,None,454.853978491103,None,None,None,None,,19,001,2023_Jan_20_1655,searchDisc5,2021.2.3,59.97434463719304,
images/exp2c_trial_201_colour2_distractors31_r.png,r,3,2,31,0,,,,,0,56,56,56,,,,,,,,,,,,,,,,,,,,,,,,,,,,,,,,,,,,,,,,,,,454.87070284201764,None,2,0.3380884249927476,454.87070284201764,None,,,,,,,,,,,,,,,,None,None,None,,None,None,455.25463411200326,None,3,1,1.1364557889755815,455.25463411200326,None,456.3877455071255,None,None,None,None,,19,001,2023_Jan_20_1655,searchDisc5,2021.2.3,59.97434463719304,
images/exp2a_trial_122_colour3_distractors4_l.png,l,1,3,4,0,,,,,0,57,57,57,,,,,,,,,,,,,,,,,,,,,,,,,,,,,,,,,,,,,,,,,,,456.4069366939948,None,2,0.3376754660275765,456.4069366939948,None,,,,,,,,,,,,,,,,None,None,None,,None,None,456.7895019110292,None,1,1,0.8403203159687109,456.7895019110292,None,457.620875052124,None,None,None,None,,19,001,2023_Jan_20_1655,searchDisc5,2021.2.3,59.97434463719304,
images/exp1a_trial_169_colour2_distractors31_r.png,r,3,2,31,0,,,,,0,58,58,58,,,,,,,,,,,,,,,,,,,,,,,,,,,,,,,,,,,,,,,,,,,457.6368678470026,None,2,0.28773949499009177,457.6368678470026,None,,,,,,,,,,,,,,,,None,None,None,,None,None,457.9733353939955,None,3,1,1.3819542419514619,457.9733353939955,None,459.3541948280821,None,None,None,None,,19,001,2023_Jan_20_1655,searchDisc5,2021.2.3,59.97434463719304,
images/exp2c_trial_291_colour1_distractors19_r.png,r,3,1,19,0,,,,,0,59,59,59,,,,,,,,,,,,,,,,,,,,,,,,,,,,,,,,,,,,,,,,,,,459.3717746330076,None,2,0.5064484680187888,459.3717746330076,None,,,,,,,,,,,,,,,,None,None,None,,None,None,459.9241048870026,None,3,1,1.584059007000178,459.9241048870026,None,461.50371651910825,None,None,None,None,,19,001,2023_Jan_20_1655,searchDisc5,2021.2.3,59.97434463719304,
images/exp2b_trial_37_colour2_distractors1_r.png,r,3,2,1,0,,,,,0,60,60,60,,,,,,,,,,,,,,,,,,,,,,,,,,,,,,,,,,,,,,,,,,,461.52107844798593,None,2,0.6718901889980771,461.52107844798593,None,,,,,,,,,,,,,,,,None,None,None,,None,None,462.23743162001483,None,3,1,1.2214139100397006,462.23743162001483,None,463.45426612510926,None,None,None,None,,19,001,2023_Jan_20_1655,searchDisc5,2021.2.3,59.97434463719304,
images/exp2b_trial_316_colour3_distractors19_l.png,l,1,3,19,0,,,,,0,61,61,61,,,,,,,,,,,,,,,,,,,,,,,,,,,,,,,,,,,,,,,,,,,463.47167875402374,None,2,0.35452691902173683,463.47167875402374,None,,,,,,,,,,,,,,,,None,None,None,,None,None,463.8718444870319,None,1,1,0.771410584973637,463.8718444870319,None,464.63788079610674,None,None,None,None,,19,001,2023_Jan_20_1655,searchDisc5,2021.2.3,59.97434463719304,
images/exp2c_trial_143_colour1_distractors1_l.png,l,1,1,1,0,,,,,0,62,62,62,,,,,,,,,,,,,,,,,,,,,,,,,,,,,,,,,,,,,,,,,,,464.65439839701867,None,2,0.35527580796042457,464.65439839701867,None,,,,,,,,,,,,,,,,None,None,None,,None,None,465.0575300619821,None,1,1,0.8550002109841444,465.0575300619821,None,465.90431930008924,None,None,None,None,,19,001,2023_Jan_20_1655,searchDisc5,2021.2.3,59.97434463719304,
images/exp2b_trial_256_colour1_distractors1_r.png,r,3,1,1,0,,,,,0,63,63,63,,,,,,,,,,,,,,,,,,,,,,,,,,,,,,,,,,,,,,,,,,,465.9216820630245,None,2,0.32103687000926584,465.9216820630245,None,,,,,,,,,,,,,,,,None,None,None,,None,None,466.287977244996,None,3,1,1.5228114819619805,466.287977244996,None,467.8045266341127,None,None,None,None,,19,001,2023_Jan_20_1655,searchDisc5,2021.2.3,59.97434463719304,
images/exp2c_trial_148_colour2_distractors1_l.png,l,1,2,1,0,,,,,0,64,64,64,,,,,,,,,,,,,,,,,,,,,,,,,,,,,,,,,,,,,,,,,,,467.8217312450288,None,2,0.3231940340483561,467.8217312450288,None,,,,,,,,,,,,,,,,None,None,None,,None,None,468.1883690300165,None,1,1,0.9871708530117758,468.1883690300165,None,469.17115565308484,None,None,None,None,,19,001,2023_Jan_20_1655,searchDisc5,2021.2.3,59.97434463719304,
images/exp2c_trial_37_colour2_distractors1_r.png,r,3,2,1,0,,,,,0,65,65,65,,,,,,,,,,,,,,,,,,,,,,,,,,,,,,,,,,,,,,,,,,,469.1905482120346,None,2,0.35537466598907486,469.1905482120346,None,,,,,,,,,,,,,,,,None,None,None,,None,None,469.59012500103563,None,3,1,0.7739315240178257,469.59012500103563,None,470.35456870211635,None,None,None,None,,19,001,2023_Jan_20_1655,searchDisc5,2021.2.3,59.97434463719304,
images/exp1a_trial_270_colour3_distractors31_r.png,r,3,3,31,0,,,,,0,66,66,66,,,,,,,,,,,,,,,,,,,,,,,,,,,,,,,,,,,,,,,,,,,470.3710845839814,None,2,0.30362004501512274,470.3710845839814,None,,,,,,,,,,,,,,,,None,None,None,,None,None,470.723357276991,None,3,1,0.7989856079802848,470.723357276991,None,471.521204846102,None,None,None,None,,19,001,2023_Jan_20_1655,searchDisc5,2021.2.3,59.97434463719304,
images/exp2b_trial_139_colour3_distractors4_r.png,r,3,3,4,0,,,,,0,67,67,67,,,,,,,,,,,,,,,,,,,,,,,,,,,,,,,,,,,,,,,,,,,471.54080210102256,None,2,0.2708237720071338,471.54080210102256,None,,,,,,,,,,,,,,,,None,None,None,,None,None,471.85489509202307,None,3,1,0.739249219011981,471.85489509202307,None,472.58882927511,None,None,None,None,,19,001,2023_Jan_20_1655,searchDisc5,2021.2.3,59.97434463719304,
images/exp2b_trial_300_colour3_distractors9_r.png,r,3,3,9,0,,,,,0,68,68,68,,,,,,,,,,,,,,,,,,,,,,,,,,,,,,,,,,,,,,,,,,,472.60472608701093,None,2,0.2873262040084228,472.60472608701093,None,,,,,,,,,,,,,,,,None,None,None,,None,None,472.93803287501214,None,3,1,0.769985004037153,472.93803287501214,None,473.705728236126,None,None,None,None,,19,001,2023_Jan_20_1655,searchDisc5,2021.2.3,59.97434463719304,
images/exp1a_trial_240_colour1_distractors4_l.png,l,1,1,4,0,,,,,0,69,69,69,,,,,,,,,,,,,,,,,,,,,,,,,,,,,,,,,,,,,,,,,,,473.72182621003594,None,2,0.27106660400750116,473.72182621003594,None,,,,,,,,,,,,,,,,None,None,None,,None,None,474.038086717017,None,1,1,1.0386385440360755,474.038086717017,None,475.07210129511657,None,None,None,None,,19,001,2023_Jan_20_1655,searchDisc5,2021.2.3,59.97434463719304,
images/exp2a_trial_55_colour2_distractors19_l.png,l,1,2,19,0,,,,,0,70,70,70,,,,,,,,,,,,,,,,,,,,,,,,,,,,,,,,,,,,,,,,,,,475.0882642620127,None,2,0.30403794400626794,475.0882642620127,None,,,,,,,,,,,,,,,,None,None,None,,None,None,475.44015171099454,None,1,1,0.9818033330375329,475.44015171099454,None,476.42130926112293,None,None,None,None,,19,001,2023_Jan_20_1655,searchDisc5,2021.2.3,59.97434463719304,
images/exp2c_trial_119_colour2_distractors19_l.png,l,1,2,19,0,,,,,0,71,71,71,,,,,,,,,,,,,,,,,,,,,,,,,,,,,,,,,,,,,,,,,,,476.43795684102224,None,2,0.28881101100705564,476.43795684102224,None,,,,,,,,,,,,,,,,None,None,None,,None,None,476.77216271101497,None,1,1,0.7898050450021401,476.77216271101497,None,477.5578211721207,None,None,None,None,,19,001,2023_Jan_20_1655,searchDisc5,2021.2.3,59.97434463719304,
images/exp2c_trial_287_colour0_distractors0_l.png,l,1,0,0,0,,,,,0,72,72,72,,,,,,,,,,,,,,,,,,,,,,,,,,,,,,,,,,,,,,,,,,,477.57205446000444,None,2,0.302272487024311,477.57205446000444,None,,,,,,,,,,,,,,,,None,None,None,,None,None,477.92361486301525,None,1,1,1.424456867040135,477.92361486301525,None,479.3381748611049,None,None,None,None,,19,001,2023_Jan_20_1655,searchDisc5,2021.2.3,59.97434463719304,
images/exp2c_trial_276_colour2_distractors1_l.png,l,1,2,1,0,,,,,0,73,73,73,,,,,,,,,,,,,,,,,,,,,,,,,,,,,,,,,,,,,,,,,,,479.3546000859933,None,2,0.504284174006898,479.3546000859933,None,,,,,,,,,,,,,,,,None,None,None,,None,None,479.90530085598584,None,1,1,1.3392668340238743,479.90530085598584,None,481.2402829520928,None,None,None,None,,19,001,2023_Jan_20_1655,searchDisc5,2021.2.3,59.97434463719304,
images/exp2a_trial_213_colour2_distractors4_l.png,l,1,2,4,0,,,,,0,74,74,74,,,,,,,,,,,,,,,,,,,,,,,,,,,,,,,,,,,,,,,,,,,481.25552591402084,None,2,0.38550663902424276,481.25552591402084,None,,,,,,,,,,,,,,,,None,None,None,,None,None,481.6890425099991,None,1,1,0.9887438290170394,481.6890425099991,None,482.6724098561157,None,None,None,None,,19,001,2023_Jan_20_1655,searchDisc5,2021.2.3,59.97434463719304,
images/exp2a_trial_313_colour3_distractors1_l.png,l,1,3,1,0,,,,,0,75,75,75,,,,,,,,,,,,,,,,,,,,,,,,,,,,,,,,,,,,,,,,,,,482.68815411103424,None,2,0.42322681099176407,482.68815411103424,None,,,,,,,,,,,,,,,,None,None,None,,None,None,483.1579314810224,None,1,1,1.054540085955523,483.1579314810224,None,484.2059632440854,None,None,None,None,,19,001,2023_Jan_20_1655,searchDisc5,2021.2.3,59.97434463719304,
images/exp2b_trial_237_colour3_distractors19_r.png,r,3,3,19,0,,,,,0,76,76,76,,,,,,,,,,,,,,,,,,,,,,,,,,,,,,,,,,,,,,,,,,,484.22386576398276,None,2,0.35617950395680964,484.22386576398276,None,,,,,,,,,,,,,,,,None,None,None,,None,None,484.623924250016,None,3,1,1.3026672650012188,484.623924250016,None,485.92271147610734,None,None,None,None,,19,001,2023_Jan_20_1655,searchDisc5,2021.2.3,59.97434463719304,
images/exp1a_trial_35_colour1_distractors19_r.png,r,3,1,19,0,,,,,0,77,77,77,,,,,,,,,,,,,,,,,,,,,,,,,,,,,,,,,,,,,,,,,,,485.9391230029869,None,2,0.3197842809604481,485.9391230029869,None,,,,,,,,,,,,,,,,None,None,None,,None,None,486.3051669410197,None,3,1,2.553714514011517,486.3051669410197,None,488.8561968540947,None,None,None,None,,19,001,2023_Jan_20_1655,searchDisc5,2021.2.3,59.97434463719304,
images/exp2a_trial_98_colour1_distractors9_r.png,r,3,1,9,0,,,,,0,78,78,78,,,,,,,,,,,,,,,,,,,,,,,,,,,,,,,,,,,,,,,,,,,488.8737013650243,None,2,0.5867122579948045,488.8737013650243,None,,,,,,,,,,,,,,,,None,None,None,,None,None,489.50536932301475,None,3,1,1.1388622829690576,489.50536932301475,None,490.6384028031083,None,None,None,None,,19,001,2023_Jan_20_1655,searchDisc5,2021.2.3,59.97434463719304,
images/exp1a_trial_220_colour3_distractors19_l.png,l,1,3,19,0,,,,,0,79,79,79,,,,,,,,,,,,,,,,,,,,,,,,,,,,,,,,,,,,,,,,,,,490.65562467998825,None,2,0.32185926800593734,490.65562467998825,None,,,,,,,,,,,,,,,,None,None,None,,None,None,491.022498011007,None,1,1,0.7851681789616123,491.022498011007,None,491.80513723608453,None,None,None,None,,19,001,2023_Jan_20_1655,searchDisc5,2021.2.3,59.97434463719304,
images/exp2c_trial_314_colour3_distractors4_l.png,l,1,3,4,0,,,,,0,80,80,80,,,,,,,,,,,,,,,,,,,,,,,,,,,,,,,,,,,,,,,,,,,491.82172363001155,None,2,0.35447210003621876,491.82172363001155,None,,,,,,,,,,,,,,,,None,None,None,,None,None,492.2240119969938,None,1,1,0.9409710189793259,492.2240119969938,None,493.155275709118,None,None,None,None,,19,001,2023_Jan_20_1655,searchDisc5,2021.2.3,59.97434463719304,
images/exp2b_trial_76_colour3_distractors9_r.png,r,3,3,9,0,,,,,0,81,81,81,,,,,,,,,,,,,,,,,,,,,,,,,,,,,,,,,,,,,,,,,,,493.1719851770322,None,2,0.3520879500429146,493.1719851770322,None,,,,,,,,,,,,,,,,None,None,None,,None,None,493.5749639120186,None,3,1,1.1882457649917342,493.5749639120186,None,494.7551385171304,None,None,None,None,,19,001,2023_Jan_20_1655,searchDisc5,2021.2.3,59.97434463719304,
images/exp2c_trial_26_colour3_distractors4_l.png,l,1,3,4,0,,,,,0,82,82,82,,,,,,,,,,,,,,,,,,,,,,,,,,,,,,,,,,,,,,,,,,,494.77261461497983,None,2,0.35629732202505693,494.77261461497983,None,,,,,,,,,,,,,,,,None,None,None,,None,None,495.17165842303075,None,1,1,0.9877935190452263,495.17165842303075,None,496.155272240116,None,None,None,None,,19,001,2023_Jan_20_1655,searchDisc5,2021.2.3,59.97434463719304,
images/exp1a_trial_103_colour2_distractors9_r.png,r,3,2,9,0,,,,,0,83,83,83,,,,,,,,,,,,,,,,,,,,,,,,,,,,,,,,,,,,,,,,,,,496.17257824499393,None,2,0.3871986879967153,496.17257824499393,None,,,,,,,,,,,,,,,,None,None,None,,None,None,496.6076078870101,None,3,1,1.0552549060084857,496.6076078870101,None,497.655321533099,None,None,None,None,,19,001,2023_Jan_20_1655,searchDisc5,2021.2.3,59.97434463719304,
images/exp2b_trial_186_colour3_distractors4_l.png,l,1,3,4,0,,,,,0,84,84,84,,,,,,,,,,,,,,,,,,,,,,,,,,,,,,,,,,,,,,,,,,,497.67195357900346,None,2,0.338860834017396,497.67195357900346,None,,,,,,,,,,,,,,,,None,None,None,,None,None,498.05552525201347,None,1,1,0.7389737400226295,498.05552525201347,None,498.78963907110153,None,None,None,None,,19,001,2023_Jan_20_1655,searchDisc5,2021.2.3,59.97434463719304,
images/exp1a_trial_97_colour1_distractors4_r.png,r,3,1,4,0,,,,,0,85,85,85,,,,,,,,,,,,,,,,,,,,,,,,,,,,,,,,,,,,,,,,,,,498.80816512100864,None,2,0.38964936399133876,498.80816512100864,None,,,,,,,,,,,,,,,,None,None,None,,None,None,499.2405613620067,None,3,1,0.7525731339701451,499.2405613620067,None,499.9897054481029,None,None,None,None,,19,001,2023_Jan_20_1655,searchDisc5,2021.2.3,59.97434463719304,
images/exp1a_trial_48_colour1_distractors4_l.png,l,1,1,4,0,,,,,0,86,86,86,,,,,,,,,,,,,,,,,,,,,,,,,,,,,,,,,,,,,,,,,,,500.0061474289978,None,2,0.37106912600575015,500.0061474289978,None,,,,,,,,,,,,,,,,None,None,None,,None,None,500.4254003899987,None,1,1,1.3042324359994382,500.4254003899987,None,501.7221082911186,None,None,None,None,,19,001,2023_Jan_20_1655,searchDisc5,2021.2.3,59.97434463719304,
images/exp2b_trial_121_colour3_distractors1_l.png,l,1,3,1,0,,,,,0,87,87,87,,,,,,,,,,,,,,,,,,,,,,,,,,,,,,,,,,,,,,,,,,,501.73869897803525,None,2,0.3878714669845067,501.73869897803525,None,,,,,,,,,,,,,,,,None,None,None,,None,None,502.1746504509938,None,1,1,0.8588632210157812,502.1746504509938,None,503.0220212620974,None,None,None,None,,19,001,2023_Jan_20_1655,searchDisc5,2021.2.3,59.97434463719304,
images/exp2a_trial_187_colour3_distractors9_l.png,l,1,3,9,0,,,,,0,88,88,88,,,,,,,,,,,,,,,,,,,,,,,,,,,,,,,,,,,,,,,,,,,503.0386977699818,None,2,0.2860137380193919,503.0386977699818,None,,,,,,,,,,,,,,,,None,None,None,,None,None,503.37304697500076,None,1,1,0.755466031958349,503.37304697500076,None,504.1221271251037,None,None,None,None,,19,001,2023_Jan_20_1655,searchDisc5,2021.2.3,59.97434463719304,
images/exp2a_trial_153_colour3_distractors1_l.png,l,1,3,1,0,,,,,0,89,89,89,,,,,,,,,,,,,,,,,,,,,,,,,,,,,,,,,,,,,,,,,,,504.139630087011,None,2,0.3052407890208997,504.139630087011,None,,,,,,,,,,,,,,,,None,None,None,,None,None,504.48905480699614,None,1,1,0.6890339010278694,504.48905480699614,None,505.1722943740955,None,None,None,None,,19,001,2023_Jan_20_1655,searchDisc5,2021.2.3,59.97434463719304,
images/exp1a_trial_86_colour2_distractors9_l.png,l,1,2,9,0,,,,,0,90,90,90,,,,,,,,,,,,,,,,,,,,,,,,,,,,,,,,,,,,,,,,,,,505.18966340698535,None,2,0.3214651860180311,505.18966340698535,None,,,,,,,,,,,,,,,,None,None,None,,None,None,505.5560131309903,None,1,1,0.9199475690256804,505.5560131309903,None,506.47211944510343,None,None,None,None,,19,001,2023_Jan_20_1655,searchDisc5,2021.2.3,59.97434463719304,
images/exp1a_trial_10_colour3_distractors1_r.png,r,3,3,1,0,,,,,0,91,91,91,,,,,,,,,,,,,,,,,,,,,,,,,,,,,,,,,,,,,,,,,,,506.48883232602384,None,2,0.3221480800420977,506.48883232602384,None,,,,,,,,,,,,,,,,None,None,None,,None,None,506.8556720750057,None,3,1,1.4052058390225284,506.8556720750057,None,508.2557180260832,None,None,None,None,,19,001,2023_Jan_20_1655,searchDisc5,2021.2.3,59.97434463719304,
images/exp2c_trial_176_colour1_distractors4_l.png,l,1,1,4,0,,,,,0,92,92,92,,,,,,,,,,,,,,,,,,,,,,,,,,,,,,,,,,,,,,,,,,,508.273022237001,None,2,0.47244951798347756,508.273022237001,None,,,,,,,,,,,,,,,,None,None,None,,None,None,508.78980889200466,None,1,1,0.9711984380264767,508.78980889200466,None,509.75576394209054,None,None,None,None,,19,001,2023_Jan_20_1655,searchDisc5,2021.2.3,59.97434463719304,
images/exp2a_trial_13_colour3_distractors19_r.png,r,3,3,19,0,,,,,0,93,93,93,,,,,,,,,,,,,,,,,,,,,,,,,,,,,,,,,,,,,,,,,,,509.77319873700617,None,2,0.4072243809932843,509.77319873700617,None,,,,,,,,,,,,,,,,None,None,None,,None,None,510.22525284602307,None,3,1,0.9681171580450609,510.22525284602307,None,511.1901458791166,None,None,None,None,,19,001,2023_Jan_20_1655,searchDisc5,2021.2.3,59.97434463719304,
images/exp2a_trial_61_colour3_distractors31_l.png,l,1,3,31,0,,,,,0,94,94,94,,,,,,,,,,,,,,,,,,,,,,,,,,,,,,,,,,,,,,,,,,,511.205673538032,None,2,0.35338936100015417,511.205673538032,None,,,,,,,,,,,,,,,,None,None,None,,None,None,511.6079517339822,None,1,1,0.9527954990044236,511.6079517339822,None,512.555798143096,None,None,None,None,,19,001,2023_Jan_20_1655,searchDisc5,2021.2.3,59.97434463719304,
images/exp2c_trial_190_colour0_distractors0_r.png,r,3,0,0,0,,,,,0,95,95,95,,,,,,,,,,,,,,,,,,,,,,,,,,,,,,,,,,,,,,,,,,,512.5724197310046,None,2,0.3545087520033121,512.5724197310046,None,,,,,,,,,,,,,,,,None,None,None,,None,None,512.9726614130195,None,3,1,0.839682771009393,512.9726614130195,None,513.8057084301312,None,None,None,None,,19,001,2023_Jan_20_1655,searchDisc5,2021.2.3,59.97434463719304,
images/exp2c_trial_77_colour3_distractors19_r.png,r,3,3,19,0,,,,,0,96,96,96,,,,,,,,,,,,,,,,,,,,,,,,,,,,,,,,,,,,,,,,,,,513.8224450630369,None,2,0.37131817103363574,513.8224450630369,None,,,,,,,,,,,,,,,,None,None,None,,None,None,514.2399172530277,None,3,1,0.8035488619934767,514.2399172530277,None,515.0390514840896,None,None,None,None,,19,001,2023_Jan_20_1655,searchDisc5,2021.2.3,59.97434463719304,
images/exp2b_trial_167_colour2_distractors9_r.png,r,3,2,9,0,,,,,0,97,97,97,,,,,,,,,,,,,,,,,,,,,,,,,,,,,,,,,,,,,,,,,,,515.0558015650022,None,2,0.33774618397001177,515.0558015650022,None,,,,,,,,,,,,,,,,None,None,None,,None,None,515.4393430490163,None,3,1,0.8878149910015054,515.4393430490163,None,516.3222828900965,None,None,None,None,,19,001,2023_Jan_20_1655,searchDisc5,2021.2.3,59.97434463719304,
images/exp2c_trial_144_colour1_distractors4_l.png,l,1,1,4,0,,,,,0,98,98,98,,,,,,,,,,,,,,,,,,,,,,,,,,,,,,,,,,,,,,,,,,,516.3412480410188,None,2,0.355708485993091,516.3412480410188,None,,,,,,,,,,,,,,,,None,None,None,,None,None,516.7414808929898,None,1,1,1.0048111400101334,516.7414808929898,None,517.7393372131104,None,None,None,None,,19,001,2023_Jan_20_1655,searchDisc5,2021.2.3,59.97434463719304,
images/exp2c_trial_104_colour2_distractors19_r.png,r,3,2,19,0,,,,,0,99,99,99,,,,,,,,,,,,,,,,,,,,,,,,,,,,,,,,,,,,,,,,,,,517.7565563570242,None,2,0.32180463295662776,517.7565563570242,None,,,,,,,,,,,,,,,,None,None,None,,None,None,518.1237969920039,None,3,1,0.8375892590265721,518.1237969920039,None,518.9570829800854,None,None,None,None,,19,001,2023_Jan_20_1655,searchDisc5,2021.2.3,59.97434463719304,
images/exp2c_trial_253_colour3_distractors31_l.png,l,1,3,31,0,,,,,0,100,100,100,,,,,,,,,,,,,,,,,,,,,,,,,,,,,,,,,,,,,,,,,,,518.9736672180006,None,2,0.3353308559744619,518.9736672180006,None,,,,,,,,,,,,,,,,None,None,None,,None,None,519.3566763940034,None,1,1,1.2052723970264196,519.3566763940034,None,520.55590251112,None,None,None,None,,19,001,2023_Jan_20_1655,searchDisc5,2021.2.3,59.97434463719304,
images/exp1a_trial_62_colour0_distractors0_r.png,r,3,0,0,0,,,,,0,101,101,101,,,,,,,,,,,,,,,,,,,,,,,,,,,,,,,,,,,,,,,,,,,520.5726142470376,None,2,0.3190540749928914,520.5726142470376,None,,,,,,,,,,,,,,,,None,None,None,,None,None,520.940423269989,None,3,1,0.9563951099989936,520.940423269989,None,521.8893830961373,None,None,None,None,,19,001,2023_Jan_20_1655,searchDisc5,2021.2.3,59.97434463719304,
images/exp2b_trial_63_colour0_distractors0_l.png,l,1,0,0,0,,,,,0,102,102,102,,,,,,,,,,,,,,,,,,,,,,,,,,,,,,,,,,,,,,,,,,,521.9059778880328,None,2,0.4556361719733104,521.9059778880328,None,,,,,,,,,,,,,,,,None,None,None,,None,None,522.4053666429827,None,1,1,0.741053088044282,522.4053666429827,None,523.1395045351295,None,None,None,None,,19,001,2023_Jan_20_1655,searchDisc5,2021.2.3,59.97434463719304,
images/exp2c_trial_98_colour1_distractors9_r.png,r,3,1,9,0,,,,,0,103,103,103,,,,,,,,,,,,,,,,,,,,,,,,,,,,,,,,,,,,,,,,,,,523.1589077819954,None,2,0.3218320159940049,523.1589077819954,None,,,,,,,,,,,,,,,,None,None,None,,None,None,523.5259614990209,None,3,1,0.7359786400338635,523.5259614990209,None,524.2568886831344,None,None,None,None,,19,001,2023_Jan_20_1655,searchDisc5,2021.2.3,59.97434463719304,
images/exp1a_trial_111_colour1_distractors1_l.png,l,1,1,1,0,,,,,0,104,104,104,,,,,,,,,,,,,,,,,,,,,,,,,,,,,,,,,,,,,,,,,,,524.2724567470141,None,2,0.4704665499739349,524.2724567470141,None,,,,,,,,,,,,,,,,None,None,None,,None,None,524.7903407000122,None,1,1,1.50634333898779,524.7903407000122,None,526.2894378001278,None,None,None,None,,19,001,2023_Jan_20_1655,searchDisc5,2021.2.3,59.97434463719304,
images/exp2c_trial_249_colour3_distractors1_l.png,l,1,3,1,0,,,,,0,105,105,105,,,,,,,,,,,,,,,,,,,,,,,,,,,,,,,,,,,,,,,,,,,526.3071550190216,None,2,0.32089601102052256,526.3071550190216,None,,,,,,,,,,,,,,,,None,None,None,,None,None,526.672897084034,None,1,1,0.9905878519639373,526.672897084034,None,527.6575017611088,None,None,None,None,,19,001,2023_Jan_20_1655,searchDisc5,2021.2.3,59.97434463719304,
images/exp2a_trial_229_colour2_distractors1_r.png,r,3,2,1,0,,,,,0,106,106,106,,,,,,,,,,,,,,,,,,,,,,,,,,,,,,,,,,,,,,,,,,,527.6757137810346,None,2,0.27046375296777114,527.6757137810346,None,,,,,,,,,,,,,,,,None,None,None,,None,None,527.990500319982,None,3,1,0.8219162829918787,527.990500319982,None,528.8060951760912,None,None,None,None,,19,001,2023_Jan_20_1655,searchDisc5,2021.2.3,59.97434463719304,
images/exp1a_trial_181_colour2_distractors4_l.png,l,1,2,4,0,,,,,0,107,107,107,,,,,,,,,,,,,,,,,,,,,,,,,,,,,,,,,,,,,,,,,,,528.8232794200303,None,2,0.305565431015566,528.8232794200303,None,,,,,,,,,,,,,,,,None,None,None,,None,None,529.1734370730119,None,1,1,1.0380722580011934,529.1734370730119,None,530.2061638091167,None,None,None,None,,19,001,2023_Jan_20_1655,searchDisc5,2021.2.3,59.97434463719304,
images/exp2c_trial_286_colour0_distractors0_r.png,r,3,0,0,0,,,,,0,108,108,108,,,,,,,,,,,,,,,,,,,,,,,,,,,,,,,,,,,,,,,,,,,530.2234113769955,None,2,0.30703247198835015,530.2234113769955,None,,,,,,,,,,,,,,,,None,None,None,,None,None,530.5733736990369,None,3,1,0.8205101789790206,530.5733736990369,None,531.389594864106,None,None,None,None,,19,001,2023_Jan_20_1655,searchDisc5,2021.2.3,59.97434463719304,
images/exp1a_trial_45_colour3_distractors19_r.png,r,3,3,19,0,,,,,0,109,109,109,,,,,,,,,,,,,,,,,,,,,,,,,,,,,,,,,,,,,,,,,,,531.406386548013,None,2,0.2878769950475544,531.406386548013,None,,,,,,,,,,,,,,,,None,None,None,,None,None,531.7397763549816,None,3,1,0.768211574992165,531.7397763549816,None,532.5062444341078,None,None,None,None,,19,001,2023_Jan_20_1655,searchDisc5,2021.2.3,59.97434463719304,
images/exp2c_trial_163_colour1_distractors19_r.png,r,3,1,19,0,,,,,0,110,110,110,,,,,,,,,,,,,,,,,,,,,,,,,,,,,,,,,,,,,,,,,,,532.5238298469922,None,2,0.3060934490058571,532.5238298469922,None,,,,,,,,,,,,,,,,None,None,None,,None,None,532.8737383619882,None,3,1,0.7702334330533631,532.8737383619882,None,533.6407861411047,None,None,None,None,,19,001,2023_Jan_20_1655,searchDisc5,2021.2.3,59.97434463719304,
images/exp1a_trial_224_colour1_distractors1_r.png,r,3,1,1,0,,,,,0,111,111,111,,,,,,,,,,,,,,,,,,,,,,,,,,,,,,,,,,,,,,,,,,,533.657200384012,None,2,0.2877080010366626,533.657200384012,None,,,,,,,,,,,,,,,,None,None,None,,None,None,533.9898126930348,None,3,1,0.9570162770105526,533.9898126930348,None,534.9397416660853,None,None,None,None,,19,001,2023_Jan_20_1655,searchDisc5,2021.2.3,59.97434463719304,
images/exp1a_trial_241_colour1_distractors9_l.png,l,1,1,9,0,,,,,0,112,112,112,,,,,,,,,,,,,,,,,,,,,,,,,,,,,,,,,,,,,,,,,,,534.9570714760339,None,2,0.27013673301553354,534.9570714760339,None,,,,,,,,,,,,,,,,None,None,None,,None,None,535.2741220340249,None,1,1,3.736126774980221,535.2741220340249,None,539.005791119131,None,None,None,None,,19,001,2023_Jan_20_1655,searchDisc5,2021.2.3,59.97434463719304,
images/exp1a_trial_3_colour1_distractors19_r.png,r,3,1,19,0,,,,,0,113,113,113,,,,,,,,,,,,,,,,,,,,,,,,,,,,,,,,,,,,,,,,,,,539.024135410029,None,2,0.2551697750459425,539.024135410029,None,,,,,,,,,,,,,,,,None,None,None,,None,None,539.3237397050252,None,3,1,1.1185055110254325,539.3237397050252,None,540.4398985721112,None,None,None,None,,19,001,2023_Jan_20_1655,searchDisc5,2021.2.3,59.97434463719304,
images/exp2a_trial_257_colour1_distractors4_r.png,r,3,1,4,0,,,,,0,114,114,114,,,,,,,,,,,,,,,,,,,,,,,,,,,,,,,,,,,,,,,,,,,540.4557100969832,None,2,0.2738812750321813,540.4557100969832,None,,,,,,,,,,,,,,,,None,None,None,,None,None,540.7733315289952,None,3,1,1.152864753967151,540.7733315289952,None,541.9232431501208,None,None,None,None,,19,001,2023_Jan_20_1655,searchDisc5,2021.2.3,59.97434463719304,
images/exp1a_trial_171_colour3_distractors4_r.png,r,3,3,4,0,,,,,0,115,115,115,,,,,,,,,,,,,,,,,,,,,,,,,,,,,,,,,,,,,,,,,,,541.9407273620018,None,2,0.28758212202228606,541.9407273620018,None,,,,,,,,,,,,,,,,None,None,None,,None,None,542.2744105359889,None,3,1,0.655300932994578,542.2744105359889,None,542.9232946991164,None,None,None,None,,19,001,2023_Jan_20_1655,searchDisc5,2021.2.3,59.97434463719304,
images/exp2b_trial_131_colour1_distractors19_r.png,r,3,1,19,0,,,,,0,116,116,116,,,,,,,,,,,,,,,,,,,,,,,,,,,,,,,,,,,,,,,,,,,542.9406391460216,None,2,0.28798523399746045,542.9406391460216,None,,,,,,,,,,,,,,,,None,None,None,,None,None,543.2735039840336,None,3,1,0.9533575230161659,543.2735039840336,None,544.2232457430858,None,None,None,None,,19,001,2023_Jan_20_1655,searchDisc5,2021.2.3,59.97434463719304,
images/exp1a_trial_29_colour3_distractors31_l.png,l,1,3,31,0,,,,,0,117,117,117,,,,,,,,,,,,,,,,,,,,,,,,,,,,,,,,,,,,,,,,,,,544.2399211640004,None,2,0.3877152969944291,544.2399211640004,None,,,,,,,,,,,,,,,,None,None,None,,None,None,544.6754979240359,None,1,1,0.9002445290097967,544.6754979240359,None,545.5731416901166,None,None,None,None,,19,001,2023_Jan_20_1655,searchDisc5,2021.2.3,59.97434463719304,
images/exp2b_trial_177_colour1_distractors9_l.png,l,1,1,9,0,,,,,0,118,118,118,,,,,,,,,,,,,,,,,,,,,,,,,,,,,,,,,,,,,,,,,,,545.590322057018,None,2,0.2763458749977872,545.590322057018,None,,,,,,,,,,,,,,,,None,None,None,,None,None,545.9084815789829,None,1,1,1.1666171950055286,545.9084815789829,None,547.0733086130989,None,None,None,None,,19,001,2023_Jan_20_1655,searchDisc5,2021.2.3,59.97434463719304,
images/exp2b_trial_54_colour2_distractors9_l.png,l,1,2,9,0,,,,,0,119,119,119,,,,,,,,,,,,,,,,,,,,,,,,,,,,,,,,,,,,,,,,,,,547.090036618989,None,2,0.25591831404017285,547.090036618989,None,,,,,,,,,,,,,,,,None,None,None,,None,None,547.3911016189959,None,1,1,1.2543332380009815,547.3911016189959,None,548.6401154731342,None,None,None,None,,19,001,2023_Jan_20_1655,searchDisc5,2021.2.3,59.97434463719304,
images/exp2b_trial_75_colour3_distractors4_r.png,r,3,3,4,0,,,,,0,120,120,120,,,,,,,,,,,,,,,,,,,,,,,,,,,,,,,,,,,,,,,,,,,548.6561809849809,None,2,0.27160395798273385,548.6561809849809,None,,,,,,,,,,,,,,,,None,None,None,,None,None,548.9745565910125,None,3,1,0.754100765043404,548.9745565910125,None,549.7231781191134,None,None,None,None,,19,001,2023_Jan_20_1655,searchDisc5,2021.2.3,59.97434463719304,
images/exp1a_trial_2_colour1_distractors9_r.png,r,3,1,9,0,,,,,0,121,121,121,,,,,,,,,,,,,,,,,,,,,,,,,,,,,,,,,,,,,,,,,,,549.7405895440024,None,2,0.28780928102787584,549.7405895440024,None,,,,,,,,,,,,,,,,None,None,None,,None,None,550.0748090310371,None,3,1,1.0538977319956757,550.0748090310371,None,551.1234710250923,None,None,None,None,,19,001,2023_Jan_20_1655,searchDisc5,2021.2.3,59.97434463719304,
images/exp2b_trial_28_colour3_distractors19_l.png,l,1,3,19,0,,,,,0,122,122,122,,,,,,,,,,,,,,,,,,,,,,,,,,,,,,,,,,,,,,,,,,,551.1407511429861,None,2,0.2878905539982952,551.1407511429861,None,,,,,,,,,,,,,,,,None,None,None,,None,None,551.4747331630206,None,1,1,0.804199010017328,551.4747331630206,None,552.2734988291107,None,None,None,None,,19,001,2023_Jan_20_1655,searchDisc5,2021.2.3,59.97434463719304,
images/exp2b_trial_137_colour2_distractors31_r.png,r,3,2,31,0,,,,,0,123,123,123,,,,,,,,,,,,,,,,,,,,,,,,,,,,,,,,,,,,,,,,,,,552.2901394499931,None,2,0.28878434299258515,552.2901394499931,None,,,,,,,,,,,,,,,,None,None,None,,None,None,552.6236769839888,None,3,1,1.6182254019659013,552.6236769839888,None,554.2401405621262,None,None,None,None,,19,001,2023_Jan_20_1655,searchDisc5,2021.2.3,59.97434463719304,
images/exp2a_trial_14_colour3_distractors31_r.png,r,3,3,31,0,,,,,0,124,124,124,,,,,,,,,,,,,,,,,,,,,,,,,,,,,,,,,,,,,,,,,,,554.257319220982,None,2,0.33806355501292273,554.257319220982,None,,,,,,,,,,,,,,,,None,None,None,,None,None,554.6404622159898,None,3,1,0.7853184349951334,554.6404622159898,None,555.4226752230956,None,None,None,None,,19,001,2023_Jan_20_1655,searchDisc5,2021.2.3,59.97434463719304,
images/exp1a_trial_265_colour2_distractors31_r.png,r,3,2,31,0,,,,,0,125,125,125,,,,,,,,,,,,,,,,,,,,,,,,,,,,,,,,,,,,,,,,,,,555.4403635589988,None,2,0.3045934209949337,555.4403635589988,None,,,,,,,,,,,,,,,,None,None,None,,None,None,555.7904782299884,None,3,1,0.9527898950036615,555.7904782299884,None,556.7403334110917,None,None,None,None,,19,001,2023_Jan_20_1655,searchDisc5,2021.2.3,59.97434463719304,
images/exp2b_trial_40_colour2_distractors19_r.png,r,3,2,19,0,,,,,0,126,126,126,,,,,,,,,,,,,,,,,,,,,,,,,,,,,,,,,,,,,,,,,,,556.7576707390253,None,2,0.2857734529534355,556.7576707390253,None,,,,,,,,,,,,,,,,None,None,None,,None,None,557.0935345049948,None,3,1,0.7029143830295652,557.0935345049948,None,557.7900704341067,None,None,None,None,,19,001,2023_Jan_20_1655,searchDisc5,2021.2.3,59.97434463719304,
images/exp2c_trial_33_colour1_distractors4_r.png,r,3,1,4,0,,,,,0,127,127,127,,,,,,,,,,,,,,,,,,,,,,,,,,,,,,,,,,,,,,,,,,,557.806934525026,None,2,0.3047621779842302,557.806934525026,None,,,,,,,,,,,,,,,,None,None,None,,None,None,558.1578103009961,None,3,1,0.8227779520093463,558.1578103009961,None,558.9736737530969,None,None,None,None,,19,001,2023_Jan_20_1655,searchDisc5,2021.2.3,59.97434463719304,
images/exp1a_trial_311_colour2_distractors19_l.png,l,1,2,19,0,,,,,0,128,128,128,,,,,,,,,,,,,,,,,,,,,,,,,,,,,,,,,,,,,,,,,,,558.9903561110259,None,2,0.273557142005302,558.9903561110259,None,,,,,,,,,,,,,,,,None,None,None,,None,None,559.3093023980036,None,1,1,1.032720505958423,559.3093023980036,None,560.340323505114,None,None,None,None,,19,001,2023_Jan_20_1655,searchDisc5,2021.2.3,59.97434463719304,
images/exp2b_trial_263_colour2_distractors9_r.png,r,3,2,9,0,,,,,0,129,129,129,,,,,,,,,,,,,,,,,,,,,,,,,,,,,,,,,,,,,,,,,,,560.3576907039969,None,2,0.27218298899242654,560.3576907039969,None,,,,,,,,,,,,,,,,None,None,None,,None,None,560.6741425120272,None,3,1,0.6876218499965034,560.6741425120272,None,561.3570651171088,None,None,None,None,,19,001,2023_Jan_20_1655,searchDisc5,2021.2.3,59.97434463719304,
images/exp2a_trial_261_colour2_distractors1_r.png,r,3,2,1,0,,,,,0,130,130,130,,,,,,,,,,,,,,,,,,,,,,,,,,,,,,,,,,,,,,,,,,,561.3747812620131,None,2,0.28633809700841084,561.3747812620131,None,,,,,,,,,,,,,,,,None,None,None,,None,None,561.7082351199933,None,3,1,1.0080779750132933,561.7082351199933,None,562.7092137201165,None,None,None,None,,19,001,2023_Jan_20_1655,searchDisc5,2021.2.3,59.97434463719304,
images/exp2b_trial_289_colour1_distractors4_r.png,r,3,1,4,0,,,,,0,131,131,131,,,,,,,,,,,,,,,,,,,,,,,,,,,,,,,,,,,,,,,,,,,562.7245683870278,None,2,0.35619839397259057,562.7245683870278,None,,,,,,,,,,,,,,,,None,None,None,,None,None,563.1238450420205,None,3,1,1.0015554730198346,563.1238450420205,None,564.1237718761025,None,None,None,None,,19,001,2023_Jan_20_1655,searchDisc5,2021.2.3,59.97434463719304,
images/exp2b_trial_269_colour3_distractors19_r.png,r,3,3,19,0,,,,,0,132,132,132,,,,,,,,,,,,,,,,,,,,,,,,,,,,,,,,,,,,,,,,,,,564.1411501709954,None,2,1.1553256760234945,564.1411501709954,None,,,,,,,,,,,,,,,,None,None,None,,None,None,565.3437746010022,None,3,1,0.8201237859902903,565.3437746010022,None,566.1572512410988,None,None,None,None,,19,001,2023_Jan_20_1655,searchDisc5,2021.2.3,59.97434463719304,
images/exp2c_trial_25_colour3_distractors1_l.png,l,1,3,1,0,,,,,0,133,133,133,,,,,,,,,,,,,,,,,,,,,,,,,,,,,,,,,,,,,,,,,,,566.1747590699815,None,2,0.6375988000072539,566.1747590699815,None,,,,,,,,,,,,,,,,None,None,None,,None,None,566.8576585580013,None,1,1,1.855172511015553,566.8576585580013,None,568.7064332470821,None,None,None,None,,19,001,2023_Jan_20_1655,searchDisc5,2021.2.3,59.97434463719304,
images/exp2c_trial_205_colour3_distractors19_r.png,r,3,3,19,0,,,,,0,134,134,134,,,,,,,,,,,,,,,,,,,,,,,,,,,,,,,,,,,,,,,,,,,568.7248989130021,None,2,0.3395326710306108,568.7248989130021,None,,,,,,,,,,,,,,,,None,None,None,,None,None,569.1079214690253,None,3,1,1.2363762740278617,569.1079214690253,None,570.3408350230951,None,None,None,None,,19,001,2023_Jan_20_1655,searchDisc5,2021.2.3,59.97434463719304,
images/exp2b_trial_34_colour1_distractors9_r.png,r,3,1,9,0,,,,,0,135,135,135,,,,,,,,,,,,,,,,,,,,,,,,,,,,,,,,,,,,,,,,,,,570.3581334640039,None,2,0.33859408501302823,570.3581334640039,None,,,,,,,,,,,,,,,,None,None,None,,None,None,570.7406984450063,None,3,1,0.8868232480017468,570.7406984450063,None,571.6240757241088,None,None,None,None,,19,001,2023_Jan_20_1655,searchDisc5,2021.2.3,59.97434463719304,
images/exp2a_trial_76_colour3_distractors9_r.png,r,3,3,9,0,,,,,0,136,136,136,,,,,,,,,,,,,,,,,,,,,,,,,,,,,,,,,,,,,,,,,,,571.6401440980262,None,2,0.28790174500318244,571.6401440980262,None,,,,,,,,,,,,,,,,None,None,None,,None,None,571.9751786910347,None,3,1,0.7885073599754833,571.9751786910347,None,572.7573565921106,None,None,None,None,,19,001,2023_Jan_20_1655,searchDisc5,2021.2.3,59.97434463719304,
images/exp1a_trial_116_colour2_distractors1_l.png,l,1,2,1,0,,,,,0,137,137,137,,,,,,,,,,,,,,,,,,,,,,,,,,,,,,,,,,,,,,,,,,,572.7750044169952,None,2,0.25567189196590334,572.7750044169952,None,,,,,,,,,,,,,,,,None,None,None,,None,None,573.0747364669805,None,1,1,0.7714306230191141,573.0747364669805,None,573.8407587781024,None,None,None,None,,19,001,2023_Jan_20_1655,searchDisc5,2021.2.3,59.97434463719304,
images/exp2c_trial_136_colour2_distractors19_r.png,r,3,2,19,0,,,,,0,138,138,138,,,,,,,,,,,,,,,,,,,,,,,,,,,,,,,,,,,,,,,,,,,573.8579321340076,None,2,0.27229838201310486,573.8579321340076,None,,,,,,,,,,,,,,,,None,None,None,,None,None,574.1749117029831,None,3,1,0.6542080999934115,574.1749117029831,None,574.8250163411197,None,None,None,None,,19,001,2023_Jan_20_1655,searchDisc5,2021.2.3,59.97434463719304,
images/exp1a_trial_305_colour1_distractors9_l.png,l,1,1,9,0,,,,,0,139,139,139,,,,,,,,,,,,,,,,,,,,,,,,,,,,,,,,,,,,,,,,,,,574.8427207210334,None,2,0.2869279099977575,574.8427207210334,None,,,,,,,,,,,,,,,,None,None,None,,None,None,575.1750658529927,None,1,1,0.7547923339880072,575.1750658529927,None,575.924083599128,None,None,None,None,,19,001,2023_Jan_20_1655,searchDisc5,2021.2.3,59.97434463719304,
images/exp2a_trial_176_colour1_distractors4_l.png,l,1,1,4,0,,,,,0,140,140,140,,,,,,,,,,,,,,,,,,,,,,,,,,,,,,,,,,,,,,,,,,,575.9418216710328,None,2,0.26992264797445387,575.9418216710328,None,,,,,,,,,,,,,,,,None,None,None,,None,None,576.2578974650241,None,1,1,0.923299332964234,576.2578974650241,None,577.1742120800831,None,None,None,None,,19,001,2023_Jan_20_1655,searchDisc5,2021.2.3,59.97434463719304,
images/exp1a_trial_120_colour2_distractors31_l.png,l,1,2,31,0,,,,,0,141,141,141,,,,,,,,,,,,,,,,,,,,,,,,,,,,,,,,,,,,,,,,,,,577.1908567250357,None,2,0.23781324998708442,577.1908567250357,None,,,,,,,,,,,,,,,,None,None,None,,None,None,577.4744554400095,None,1,1,0.783265356963966,577.4744554400095,None,578.2575278261269,None,None,None,None,,19,001,2023_Jan_20_1655,searchDisc5,2021.2.3,59.97434463719304,
images/exp2c_trial_145_colour1_distractors9_l.png,l,1,1,9,0,,,,,0,142,142,142,,,,,,,,,,,,,,,,,,,,,,,,,,,,,,,,,,,,,,,,,,,578.2749773249961,None,2,0.22184948698850349,578.2749773249961,None,,,,,,,,,,,,,,,,None,None,None,,None,None,578.5421825330122,None,1,1,0.6705633570090868,578.5421825330122,None,579.2075984811003,None,None,None,None,,19,001,2023_Jan_20_1655,searchDisc5,2021.2.3,59.97434463719304,
images/exp2a_trial_144_colour1_distractors4_l.png,l,1,1,4,0,,,,,0,143,143,143,,,,,,,,,,,,,,,,,,,,,,,,,,,,,,,,,,,,,,,,,,,579.2262783119804,None,2,0.23784502298804,579.2262783119804,None,,,,,,,,,,,,,,,,None,None,None,,None,None,579.5086209290312,None,1,1,0.6724433510098606,579.5086209290312,None,580.1742850880895,None,None,None,None,,19,001,2023_Jan_20_1655,searchDisc5,2021.2.3,59.97434463719304,
images/exp1a_trial_59_colour3_distractors9_l.png,l,1,3,9,0,,,,,0,144,144,144,,,,,,,,,,,,,,,,,,,,,,,,,,,,,,,,,,,,,,,,,,,580.1915146249812,None,2,0.27210398099850863,580.1915146249812,None,,,,,,,,,,,,,,,,None,None,None,,None,None,580.5082489530323,None,1,1,0.6029501269804314,580.5082489530323,None,581.1076665610948,None,None,None,None,,19,001,2023_Jan_20_1655,searchDisc5,2021.2.3,59.97434463719304,
images/exp2a_trial_24_colour2_distractors31_l.png,l,1,2,31,0,,,,,0,145,145,145,,,,,,,,,,,,,,,,,,,,,,,,,,,,,,,,,,,,,,,,,,,581.1250335600344,None,2,0.30481313599739224,581.1250335600344,None,,,,,,,,,,,,,,,,None,None,None,,None,None,581.4745189370005,None,1,1,1.265146959980484,581.4745189370005,None,582.7420966530975,None,None,None,None,,19,001,2023_Jan_20_1655,searchDisc5,2021.2.3,59.97434463719304,
images/exp2b_trial_235_colour3_distractors4_r.png,r,3,3,4,0,,,,,0,146,146,146,,,,,,,,,,,,,,,,,,,,,,,,,,,,,,,,,,,,,,,,,,,582.7586373939994,None,2,0.31842268304899335,582.7586373939994,None,,,,,,,,,,,,,,,,None,None,None,,None,None,583.1245484679821,None,3,1,0.9233456010115333,583.1245484679821,None,584.0421717010962,None,None,None,None,,19,001,2023_Jan_20_1655,searchDisc5,2021.2.3,59.97434463719304,
images/exp2c_trial_94_colour0_distractors0_r.png,r,3,0,0,0,,,,,0,147,147,147,,,,,,,,,,,,,,,,,,,,,,,,,,,,,,,,,,,,,,,,,,,584.0572576650302,None,2,0.3194341830094345,584.0572576650302,None,,,,,,,,,,,,,,,,None,None,None,,None,None,584.424645400024,None,3,1,0.7066041139769368,584.424645400024,None,585.1243453050905,None,None,None,None,,19,001,2023_Jan_20_1655,searchDisc5,2021.2.3,59.97434463719304,
images/exp1a_trial_176_colour1_distractors4_l.png,l,1,1,4,0,,,,,0,148,148,148,,,,,,,,,,,,,,,,,,,,,,,,,,,,,,,,,,,,,,,,,,,585.1417965019937,None,2,0.28980905999196693,585.1417965019937,None,,,,,,,,,,,,,,,,None,None,None,,None,None,585.4755964290234,None,1,1,0.7724914929713123,585.4755964290234,None,586.2410102080961,None,None,None,None,,19,001,2023_Jan_20_1655,searchDisc5,2021.2.3,59.97434463719304,
images/exp2a_trial_164_colour1_distractors31_r.png,r,3,1,31,0,,,,,0,149,149,149,,,,,,,,,,,,,,,,,,,,,,,,,,,,,,,,,,,,,,,,,,,586.2576447270112,None,2,0.23703998298151419,586.2576447270112,None,,,,,,,,,,,,,,,,None,None,None,,None,None,586.5437056710362,None,3,1,1.3517223909730092,586.5437056710362,None,587.8912853291316,None,None,None,None,,19,001,2023_Jan_20_1655,searchDisc5,2021.2.3,59.97434463719304,
images/exp1a_trial_222_colour0_distractors0_r.png,r,3,0,0,0,,,,,0,150,150,150,,,,,,,,,,,,,,,,,,,,,,,,,,,,,,,,,,,,,,,,,,,587.9106738070259,None,2,0.270983848022297,587.9106738070259,None,,,,,,,,,,,,,,,,None,None,None,,None,None,588.2253836939926,None,3,1,0.9058016989729367,588.2253836939926,None,589.1239050120988,None,None,None,None,,19,001,2023_Jan_20_1655,searchDisc5,2021.2.3,59.97434463719304,
images/exp2b_trial_21_colour2_distractors4_l.png,l,1,2,4,0,,,,,0,151,151,151,,,,,,,,,,,,,,,,,,,,,,,,,,,,,,,,,,,,,,,,,,,589.1442900039838,None,2,0.3397738549974747,589.1442900039838,None,,,,,,,,,,,,,,,,None,None,None,,None,None,589.5268672310049,None,1,1,0.8872367090079933,589.5268672310049,None,590.4078829711128,None,None,None,None,,19,001,2023_Jan_20_1655,searchDisc5,2021.2.3,59.97434463719304,
images/exp2c_trial_113_colour1_distractors9_l.png,l,1,1,9,0,,,,,0,152,152,152,,,,,,,,,,,,,,,,,,,,,,,,,,,,,,,,,,,,,,,,,,,590.4253856780124,None,2,0.27304520696634427,590.4253856780124,None,,,,,,,,,,,,,,,,None,None,None,,None,None,590.7414677389897,None,1,1,0.8861432720441371,590.7414677389897,None,591.6246234311315,None,None,None,None,,19,001,2023_Jan_20_1655,searchDisc5,2021.2.3,59.97434463719304,
images/exp2a_trial_168_colour2_distractors19_r.png,r,3,2,19,0,,,,,0,153,153,153,,,,,,,,,,,,,,,,,,,,,,,,,,,,,,,,,,,,,,,,,,,591.6422172570019,None,2,0.322815642983187,591.6422172570019,None,,,,,,,,,,,,,,,,None,None,None,,None,None,592.0084011320141,None,3,1,0.9138749560224824,592.0084011320141,None,592.9257423690927,None,None,None,None,,19,001,2023_Jan_20_1655,searchDisc5,2021.2.3,59.97434463719304,
images/exp2c_trial_154_colour3_distractors4_l.png,l,1,3,4,0,,,,,0,154,154,154,,,,,,,,,,,,,,,,,,,,,,,,,,,,,,,,,,,,,,,,,,,592.9419549939921,None,2,0.30344986595446244,592.9419549939921,None,,,,,,,,,,,,,,,,None,None,None,,None,None,593.2918054499896,None,1,1,0.9051217279629782,593.2918054499896,None,594.1915242890885,None,None,None,None,,19,001,2023_Jan_20_1655,searchDisc5,2021.2.3,59.97434463719304,
images/exp2a_trial_239_colour1_distractors1_l.png,l,1,1,1,0,,,,,0,155,155,155,,,,,,,,,,,,,,,,,,,,,,,,,,,,,,,,,,,,,,,,,,,594.2088059550151,None,2,0.28788390703266487,594.2088059550151,None,,,,,,,,,,,,,,,,None,None,None,,None,None,594.5416023290018,None,1,1,0.8404388089547865,594.5416023290018,None,595.3759157970838,None,None,None,None,,19,001,2023_Jan_20_1655,searchDisc5,2021.2.3,59.97434463719304,
images/exp1a_trial_74_colour3_distractors1_r.png,r,3,3,1,0,,,,,0,156,156,156,,,,,,,,,,,,,,,,,,,,,,,,,,,,,,,,,,,,,,,,,,,595.3922413170221,None,2,0.321819829987362,595.3922413170221,None,,,,,,,,,,,,,,,,None,None,None,,None,None,595.7602905140375,None,3,1,0.7873714530142024,595.7602905140375,None,596.5414261441387,None,None,None,None,,19,001,2023_Jan_20_1655,searchDisc5,2021.2.3,59.97434463719304,
images/exp2a_trial_79_colour1_distractors1_l.png,l,1,1,1,0,,,,,0,157,157,157,,,,,,,,,,,,,,,,,,,,,,,,,,,,,,,,,,,,,,,,,,,596.5582206060062,None,2,0.30412034603068605,596.5582206060062,None,,,,,,,,,,,,,,,,None,None,None,,None,None,596.9082675980171,None,1,1,1.373377658019308,596.9082675980171,None,598.2748060291109,None,None,None,None,,19,001,2023_Jan_20_1655,searchDisc5,2021.2.3,59.97434463719304,
images/exp2c_trial_316_colour3_distractors19_l.png,l,1,3,19,0,,,,,0,158,158,158,,,,,,,,,,,,,,,,,,,,,,,,,,,,,,,,,,,,,,,,,,,598.2914687769953,None,2,0.3044064110144973,598.2914687769953,None,,,,,,,,,,,,,,,,None,None,None,,None,None,598.6422251759795,None,1,1,1.1536493609892204,598.6422251759795,None,599.791543864127,None,None,None,None,,19,001,2023_Jan_20_1655,searchDisc5,2021.2.3,59.97434463719304,
images/exp2c_trial_206_colour3_distractors31_r.png,r,3,3,31,0,,,,,0,159,159,159,,,,,,,,,,,,,,,,,,,,,,,,,,,,,,,,,,,,,,,,,,,599.807739055017,None,2,0.28786036401288584,599.807739055017,None,,,,,,,,,,,,,,,,None,None,None,,None,None,600.1419174780021,None,3,1,1.0525328530347906,600.1419174780021,None,601.1911116301256,None,None,None,None,,19,001,2023_Jan_20_1655,searchDisc5,2021.2.3,59.97434463719304,
images/exp2b_trial_229_colour2_distractors1_r.png,r,3,2,1,0,,,,,0,160,160,160,,,,,,,,,,,,,,,,,,,,,,,,,,,,,,,,,,,,,,,,,,,601.2084312550141,None,2,0.3054251919966191,601.2084312550141,None,,,,,,,,,,,,,,,,None,None,None,,None,None,601.5593477640068,None,3,1,0.6389270289801061,601.5593477640068,None,602.190958449099,None,None,None,None,,19,001,2023_Jan_20_1655,searchDisc5,2021.2.3,59.97434463719304,
images/exp2b_trial_127_colour0_distractors0_l.png,l,1,0,0,0,,,,,0,161,161,161,,,,,,,,,,,,,,,,,,,,,,,,,,,,,,,,,,,,,,,,,,,602.2113007879816,None,2,0.2876351639861241,602.2113007879816,None,,,,,,,,,,,,,,,,None,None,None,,None,None,602.5418581370031,None,1,1,0.8065417389734648,602.5418581370031,None,603.3408673981379,None,None,None,None,,19,001,2023_Jan_20_1655,searchDisc5,2021.2.3,59.97434463719304,
images/exp1a_trial_127_colour0_distractors0_l.png,l,1,0,0,0,,,,,0,162,162,162,,,,,,,,,,,,,,,,,,,,,,,,,,,,,,,,,,,,,,,,,,,603.3585613369942,None,2,0.2737739289877936,603.3585613369942,None,,,,,,,,,,,,,,,,None,None,None,,None,None,603.6783294079942,None,1,1,0.60509601701051,603.6783294079942,None,604.2760315301188,None,None,None,None,,19,001,2023_Jan_20_1655,searchDisc5,2021.2.3,59.97434463719304,
images/exp2c_trial_177_colour1_distractors9_l.png,l,1,1,9,0,,,,,0,163,163,163,,,,,,,,,,,,,,,,,,,,,,,,,,,,,,,,,,,,,,,,,,,604.2914849119843,None,2,0.27105687296716496,604.2914849119843,None,,,,,,,,,,,,,,,,None,None,None,,None,None,604.6085592560121,None,1,1,0.587800152017735,604.6085592560121,None,605.1917365281319,None,None,None,None,,19,001,2023_Jan_20_1655,searchDisc5,2021.2.3,59.97434463719304,
images/exp2c_trial_265_colour2_distractors31_r.png,r,3,2,31,0,,,,,0,164,164,164,,,,,,,,,,,,,,,,,,,,,,,,,,,,,,,,,,,,,,,,,,,605.2112728870125,None,2,0.2887402540072799,605.2112728870125,None,,,,,,,,,,,,,,,,None,None,None,,None,None,605.5421398479957,None,3,1,0.6349859710317105,605.5421398479957,None,606.1749920551141,None,None,None,None,,19,001,2023_Jan_20_1655,searchDisc5,2021.2.3,59.97434463719304,
images/exp2b_trial_171_colour3_distractors4_r.png,r,3,3,4,0,,,,,0,165,165,165,,,,,,,,,,,,,,,,,,,,,,,,,,,,,,,,,,,,,,,,,,,606.1921956859878,None,2,0.32141151500400156,606.1921956859878,None,,,,,,,,,,,,,,,,None,None,None,,None,None,606.5593710209941,None,3,1,0.7554282550117932,606.5593710209941,None,607.3084262831311,None,None,None,None,,19,001,2023_Jan_20_1655,searchDisc5,2021.2.3,59.97434463719304,
images/exp2c_trial_195_colour1_distractors19_r.png,r,3,1,19,0,,,,,0,166,166,166,,,,,,,,,,,,,,,,,,,,,,,,,,,,,,,,,,,,,,,,,,,607.3257096930174,None,2,0.2876130469958298,607.3257096930174,None,,,,,,,,,,,,,,,,None,None,None,,None,None,607.6595628850046,None,3,1,0.9559975190204568,607.6595628850046,None,608.6104531671211,None,None,None,None,,19,001,2023_Jan_20_1655,searchDisc5,2021.2.3,59.97434463719304,
images/exp2c_trial_61_colour3_distractors31_l.png,l,1,3,31,0,,,,,0,167,167,167,,,,,,,,,,,,,,,,,,,,,,,,,,,,,,,,,,,,,,,,,,,608.6252431010362,None,2,0.28511780098779127,608.6252431010362,None,,,,,,,,,,,,,,,,None,None,None,,None,None,608.9617919609882,None,1,1,1.0529304450028576,608.9617919609882,None,610.0084346071293,None,None,None,None,,19,001,2023_Jan_20_1655,searchDisc5,2021.2.3,59.97434463719304,
images/exp2b_trial_90_colour3_distractors4_l.png,l,1,3,4,0,,,,,0,168,168,168,,,,,,,,,,,,,,,,,,,,,,,,,,,,,,,,,,,,,,,,,,,610.0258990619914,None,2,0.2891041309922002,610.0258990619914,None,,,,,,,,,,,,,,,,None,None,None,,None,None,610.3593613129924,None,1,1,0.7225917660398409,610.3593613129924,None,611.0751736711303,None,None,None,None,,19,001,2023_Jan_20_1655,searchDisc5,2021.2.3,59.97434463719304,
images/exp2b_trial_78_colour3_distractors31_r.png,r,3,3,31,0,,,,,0,169,169,169,,,,,,,,,,,,,,,,,,,,,,,,,,,,,,,,,,,,,,,,,,,611.0910475369892,None,2,0.2698551759822294,611.0910475369892,None,,,,,,,,,,,,,,,,None,None,None,,None,None,611.4095016979845,None,3,1,0.8699005470261909,611.4095016979845,None,612.2752101481368,None,None,None,None,,19,001,2023_Jan_20_1655,searchDisc5,2021.2.3,59.97434463719304,
images/exp2a_trial_123_colour3_distractors9_l.png,l,1,3,9,0,,,,,0,170,170,170,,,,,,,,,,,,,,,,,,,,,,,,,,,,,,,,,,,,,,,,,,,612.2918856350007,None,2,0.27188729599583894,612.2918856350007,None,,,,,,,,,,,,,,,,None,None,None,,None,None,612.6088813809911,None,1,1,0.7050338049884886,612.6088813809911,None,613.3096021821315,None,None,None,None,,19,001,2023_Jan_20_1655,searchDisc5,2021.2.3,59.97434463719304,
images/exp1a_trial_185_colour3_distractors1_l.png,l,1,3,1,0,,,,,0,171,171,171,,,,,,,,,,,,,,,,,,,,,,,,,,,,,,,,,,,,,,,,,,,613.3259067260078,None,2,0.2859963679802604,613.3259067260078,None,,,,,,,,,,,,,,,,None,None,None,,None,None,613.6597520810319,None,1,1,0.7065642779925838,613.6597520810319,None,614.3580395150988,None,None,None,None,,19,001,2023_Jan_20_1655,searchDisc5,2021.2.3,59.97434463719304,
images/exp2c_trial_14_colour3_distractors31_r.png,r,3,3,31,0,,,,,0,172,172,172,,,,,,,,,,,,,,,,,,,,,,,,,,,,,,,,,,,,,,,,,,,614.3759937270079,None,2,0.3067744039581157,614.3759937270079,None,,,,,,,,,,,,,,,,None,None,None,,None,None,614.725417499023,None,3,1,2.986308314022608,614.725417499023,None,617.7088320521347,None,None,None,None,,19,001,2023_Jan_20_1655,searchDisc5,2021.2.3,59.97434463719304,
images/exp1a_trial_209_colour1_distractors9_l.png,l,1,1,9,0,,,,,0,173,173,173,,,,,,,,,,,,,,,,,,,,,,,,,,,,,,,,,,,,,,,,,,,617.7262255970272,None,2,0.3348682709620334,617.7262255970272,None,,,,,,,,,,,,,,,,None,None,None,,None,None,618.109697114036,None,1,1,1.3714504669769667,618.109697114036,None,619.4757181041117,None,None,None,None,,19,001,2023_Jan_20_1655,searchDisc5,2021.2.3,59.97434463719304,
images/exp2c_trial_258_colour1_distractors9_r.png,r,3,1,9,0,,,,,0,174,174,174,,,,,,,,,,,,,,,,,,,,,,,,,,,,,,,,,,,,,,,,,,,619.4928799259942,None,2,0.4063385070185177,619.4928799259942,None,,,,,,,,,,,,,,,,None,None,None,,None,None,619.9444221730228,None,3,1,0.8363275469746441,619.9444221730228,None,620.7753147701209,None,None,None,None,,19,001,2023_Jan_20_1655,searchDisc5,2021.2.3,59.97434463719304,
images/exp2b_trial_261_colour2_distractors1_r.png,r,3,2,1,0,,,,,0,175,175,175,,,,,,,,,,,,,,,,,,,,,,,,,,,,,,,,,,,,,,,,,,,620.792612647987,None,2,0.3378402719972655,620.792612647987,None,,,,,,,,,,,,,,,,None,None,None,,None,None,621.1755812040064,None,3,1,0.6387956299586222,621.1755812040064,None,621.808247500105,None,None,None,None,,19,001,2023_Jan_20_1655,searchDisc5,2021.2.3,59.97434463719304,
images/exp2a_trial_106_colour3_distractors1_r.png,r,3,3,1,0,,,,,0,176,176,176,,,,,,,,,,,,,,,,,,,,,,,,,,,,,,,,,,,,,,,,,,,621.8253390290192,None,2,0.30500395299168304,621.8253390290192,None,,,,,,,,,,,,,,,,None,None,None,,None,None,622.1759333160007,None,3,1,0.6239324999623932,622.1759333160007,None,622.7921326381096,None,None,None,None,,19,001,2023_Jan_20_1655,searchDisc5,2021.2.3,59.97434463719304,
images/exp2a_trial_149_colour2_distractors4_l.png,l,1,2,4,0,,,,,0,177,177,177,,,,,,,,,,,,,,,,,,,,,,,,,,,,,,,,,,,,,,,,,,,622.8087711239932,None,2,0.3182579380227253,622.8087711239932,None,,,,,,,,,,,,,,,,None,None,None,,None,None,623.1778112800093,None,1,1,1.2376924149575643,623.1778112800093,None,624.4087992230837,None,None,None,None,,19,001,2023_Jan_20_1655,searchDisc5,2021.2.3,59.97434463719304,
images/exp2a_trial_137_colour2_distractors31_r.png,r,3,2,31,0,,,,,0,178,178,178,,,,,,,,,,,,,,,,,,,,,,,,,,,,,,,,,,,,,,,,,,,624.4276554330136,None,2,0.2733703139820136,624.4276554330136,None,,,,,,,,,,,,,,,,None,None,None,,None,None,624.742323574028,None,3,1,0.8452433429774828,624.742323574028,None,625.5932049151219,None,None,None,None,,19,001,2023_Jan_20_1655,searchDisc5,2021.2.3,59.97434463719304,
images/exp2c_trial_128_colour1_distractors1_r.png,r,3,1,1,0,,,,,0,179,179,179,,,,,,,,,,,,,,,,,,,,,,,,,,,,,,,,,,,,,,,,,,,625.6088557930198,None,2,1.8703839110094123,625.6088557930198,None,,,,,,,,,,,,,,,,None,None,None,,None,None,627.5269289300195,None,3,1,0.9907458249945194,627.5269289300195,None,628.5102499360859,None,None,None,None,,19,001,2023_Jan_20_1655,searchDisc5,2021.2.3,59.97434463719304,
images/exp1a_trial_245_colour2_distractors4_l.png,l,1,2,4,0,,,,,0,180,180,180,,,,,,,,,,,,,,,,,,,,,,,,,,,,,,,,,,,,,,,,,,,628.5265741400071,None,2,0.5040809520287439,628.5265741400071,None,,,,,,,,,,,,,,,,None,None,None,,None,None,629.0770176420338,None,1,1,1.0204533159849234,629.0770176420338,None,630.0915819751157,None,None,None,None,,19,001,2023_Jan_20_1655,searchDisc5,2021.2.3,59.97434463719304,
images/exp2c_trial_108_colour3_distractors9_r.png,r,3,3,9,0,,,,,0,181,181,181,,,,,,,,,,,,,,,,,,,,,,,,,,,,,,,,,,,,,,,,,,,630.1089864450041,None,2,0.2881692979717627,630.1089864450041,None,,,,,,,,,,,,,,,,None,None,None,,None,None,630.4430837410036,None,3,1,0.8548278600210324,630.4430837410036,None,631.2923297751171,None,None,None,None,,19,001,2023_Jan_20_1655,searchDisc5,2021.2.3,59.97434463719304,
images/exp1a_trial_164_colour1_distractors31_r.png,r,3,1,31,0,,,,,0,182,182,182,,,,,,,,,,,,,,,,,,,,,,,,,,,,,,,,,,,,,,,,,,,631.3090106670279,None,2,0.32211010402534157,631.3090106670279,None,,,,,,,,,,,,,,,,None,None,None,,None,None,631.6760666010086,None,3,1,1.2657300059800036,631.6760666010086,None,632.9425286561076,None,None,None,None,,19,001,2023_Jan_20_1655,searchDisc5,2021.2.3,59.97434463719304,
images/exp2c_trial_248_colour2_distractors31_l.png,l,1,2,31,0,,,,,0,183,183,183,,,,,,,,,,,,,,,,,,,,,,,,,,,,,,,,,,,,,,,,,,,632.9611803420121,None,2,0.3219807780114934,632.9611803420121,None,,,,,,,,,,,,,,,,None,None,None,,None,None,633.328173351998,None,1,1,0.8686038739979267,633.328173351998,None,634.1922887330933,None,None,None,None,,19,001,2023_Jan_20_1655,searchDisc5,2021.2.3,59.97434463719304,
images/exp2a_trial_271_colour1_distractors1_l.png,l,1,1,1,0,,,,,0,184,184,184,,,,,,,,,,,,,,,,,,,,,,,,,,,,,,,,,,,,,,,,,,,634.209833261033,None,2,0.28725133498664945,634.209833261033,None,,,,,,,,,,,,,,,,None,None,None,,None,None,634.5433880210039,None,1,1,0.8064510970143601,634.5433880210039,None,635.3425224801234,None,None,None,None,,19,001,2023_Jan_20_1655,searchDisc5,2021.2.3,59.97434463719304,
images/exp2c_trial_44_colour3_distractors9_r.png,r,3,3,9,0,,,,,0,185,185,185,,,,,,,,,,,,,,,,,,,,,,,,,,,,,,,,,,,,,,,,,,,635.3598633449874,None,2,0.30537779099540785,635.3598633449874,None,,,,,,,,,,,,,,,,None,None,None,,None,None,635.7096031139954,None,3,1,2.238243745989166,635.7096031139954,None,637.9437373860914,None,None,None,None,,19,001,2023_Jan_20_1655,searchDisc5,2021.2.3,59.97434463719304,
images/exp1a_trial_115_colour1_distractors31_l.png,l,1,1,31,0,,,,,0,186,186,186,,,,,,,,,,,,,,,,,,,,,,,,,,,,,,,,,,,,,,,,,,,637.9600589140318,None,2,0.3700061780400574,637.9600589140318,None,,,,,,,,,,,,,,,,None,None,None,,None,None,638.377997158037,None,1,1,1.634551980998367,638.377997158037,None,640.0092904691177,None,None,None,None,,19,001,2023_Jan_20_1655,searchDisc5,2021.2.3,59.97434463719304,
images/exp1a_trial_276_colour2_distractors1_l.png,l,1,2,1,0,,,,,0,187,187,187,,,,,,,,,,,,,,,,,,,,,,,,,,,,,,,,,,,,,,,,,,,640.0255049419939,None,2,0.28711657103849575,640.0255049419939,None,,,,,,,,,,,,,,,,None,None,None,,None,None,640.3598242159933,None,1,1,1.0068165499833412,640.3598242159933,None,641.3593479541072,None,None,None,None,,19,001,2023_Jan_20_1655,searchDisc5,2021.2.3,59.97434463719304,
images/exp1a_trial_5_colour2_distractors1_r.png,r,3,2,1,0,,,,,0,188,188,188,,,,,,,,,,,,,,,,,,,,,,,,,,,,,,,,,,,,,,,,,,,641.3760046520038,None,2,0.28786103398306295,641.3760046520038,None,,,,,,,,,,,,,,,,None,None,None,,None,None,641.71015179198,None,3,1,1.50654338800814,641.71015179198,None,643.2093610850919,None,None,None,None,,19,001,2023_Jan_20_1655,searchDisc5,2021.2.3,59.97434463719304,
images/exp1a_trial_96_colour1_distractors1_r.png,r,3,1,1,0,,,,,0,189,189,189,,,,,,,,,,,,,,,,,,,,,,,,,,,,,,,,,,,,,,,,,,,643.2267413869849,None,2,0.32191071804845706,643.2267413869849,None,,,,,,,,,,,,,,,,None,None,None,,None,None,643.593787566002,None,3,1,1.6709895430249162,643.593787566002,None,645.2593748621351,None,None,None,None,,19,001,2023_Jan_20_1655,searchDisc5,2021.2.3,59.97434463719304,
images/exp2b_trial_259_colour1_distractors19_r.png,r,3,1,19,0,,,,,0,190,190,190,,,,,,,,,,,,,,,,,,,,,,,,,,,,,,,,,,,,,,,,,,,645.2761350070359,None,2,0.38991970900679007,645.2761350070359,None,,,,,,,,,,,,,,,,None,None,None,,None,None,645.7118140829843,None,3,1,1.1706406630109996,645.7118140829843,None,646.8770465151232,None,None,None,None,,19,001,2023_Jan_20_1655,searchDisc5,2021.2.3,59.97434463719304,
images/exp2b_trial_183_colour2_distractors19_l.png,l,1,2,19,0,,,,,0,191,191,191,,,,,,,,,,,,,,,,,,,,,,,,,,,,,,,,,,,,,,,,,,,646.8925902440096,None,2,0.31891012098640203,646.8925902440096,None,,,,,,,,,,,,,,,,None,None,None,,None,None,647.2599221040145,None,1,1,1.4717906470177695,647.2599221040145,None,648.7272931441024,None,None,None,None,,19,001,2023_Jan_20_1655,searchDisc5,2021.2.3,59.97434463719304,
images/exp2c_trial_135_colour2_distractors9_r.png,r,3,2,9,0,,,,,0,192,192,192,,,,,,,,,,,,,,,,,,,,,,,,,,,,,,,,,,,,,,,,,,,648.7421436600271,None,2,0.3204829579917714,648.7421436600271,None,,,,,,,,,,,,,,,,None,None,None,,None,None,649.1106451600208,None,3,1,0.7211541860015132,649.1106451600208,None,649.8262536241149,None,None,None,None,,19,001,2023_Jan_20_1655,searchDisc5,2021.2.3,59.97434463719304,
images/exp1a_trial_31_colour0_distractors0_l.png,l,1,0,0,0,,,,,0,193,193,193,,,,,,,,,,,,,,,,,,,,,,,,,,,,,,,,,,,,,,,,,,,649.8431377080269,None,2,0.32107974897371605,649.8431377080269,None,,,,,,,,,,,,,,,,None,None,None,,None,None,650.2091070340248,None,1,1,1.1238810649956577,650.2091070340248,None,651.3271915401041,None,None,None,None,,19,001,2023_Jan_20_1655,searchDisc5,2021.2.3,59.97434463719304,
images/exp2a_trial_173_colour3_distractors19_r.png,r,3,3,19,0,,,,,0,194,194,194,,,,,,,,,,,,,,,,,,,,,,,,,,,,,,,,,,,,,,,,,,,651.3436158929835,None,2,0.2888075360096991,651.3436158929835,None,,,,,,,,,,,,,,,,None,None,None,,None,None,651.6765417770366,None,3,1,0.7514426429988816,651.6765417770366,None,652.4264174331387,None,None,None,None,,19,001,2023_Jan_20_1655,searchDisc5,2021.2.3,59.97434463719304,
images/exp1a_trial_214_colour2_distractors9_l.png,l,1,2,9,0,,,,,0,195,195,195,,,,,,,,,,,,,,,,,,,,,,,,,,,,,,,,,,,,,,,,,,,652.4426344209933,None,2,0.28773227403871715,652.4426344209933,None,,,,,,,,,,,,,,,,None,None,None,,None,None,652.7773326050374,None,1,1,0.787617813970428,652.7773326050374,None,653.5596932460961,None,None,None,None,,19,001,2023_Jan_20_1655,searchDisc5,2021.2.3,59.97434463719304,
images/exp2c_trial_117_colour2_distractors4_l.png,l,1,2,4,0,,,,,0,196,196,196,,,,,,,,,,,,,,,,,,,,,,,,,,,,,,,,,,,,,,,,,,,653.5756880100234,None,2,0.3053389649721794,653.5756880100234,None,,,,,,,,,,,,,,,,None,None,None,,None,None,653.9274507630034,None,1,1,1.1052359929890372,653.9274507630034,None,655.0262770921166,None,None,None,None,,19,001,2023_Jan_20_1655,searchDisc5,2021.2.3,59.97434463719304,
images/exp1a_trial_155_colour3_distractors9_l.png,l,1,3,9,0,,,,,0,197,197,197,,,,,,,,,,,,,,,,,,,,,,,,,,,,,,,,,,,,,,,,,,,655.0430552330217,None,2,0.3380270570050925,655.0430552330217,None,,,,,,,,,,,,,,,,None,None,None,,None,None,655.4267834679922,None,1,1,0.987408385029994,655.4267834679922,None,656.4099212901259,None,None,None,None,,19,001,2023_Jan_20_1655,searchDisc5,2021.2.3,59.97434463719304,
images/exp2c_trial_64_colour1_distractors1_r.png,r,3,1,1,0,,,,,0,198,198,198,,,,,,,,,,,,,,,,,,,,,,,,,,,,,,,,,,,,,,,,,,,656.426608512993,None,2,0.304620407987386,656.426608512993,None,,,,,,,,,,,,,,,,None,None,None,,None,None,656.7774191109929,None,3,1,0.8055984469829127,656.7774191109929,None,657.5765339621051,None,None,None,None,,19,001,2023_Jan_20_1655,searchDisc5,2021.2.3,59.97434463719304,
images/exp2b_trial_223_colour0_distractors0_l.png,l,1,0,0,0,,,,,0,199,199,199,,,,,,,,,,,,,,,,,,,,,,,,,,,,,,,,,,,,,,,,,,,657.5932861710317,None,2,0.2880362780415453,657.5932861710317,None,,,,,,,,,,,,,,,,None,None,None,,None,None,657.9266340920003,None,3,0,0.7237667720182799,657.9266340920003,None,658.6442370811186,None,None,None,None,,19,001,2023_Jan_20_1655,searchDisc5,2021.2.3,59.97434463719304,
images/exp2a_trial_0_colour1_distractors1_r.png,r,3,1,1,0,,,,,0,200,200,200,,,,,,,,,,,,,,,,,,,,,,,,,,,,,,,,,,,,,,,,,,,658.6599205390085,None,2,0.28892715700203553,658.6599205390085,None,,,,,,,,,,,,,,,,None,None,None,,None,None,658.9937828379916,None,3,1,1.1367148400167935,658.9937828379916,None,660.1256179111136,None,None,None,None,,19,001,2023_Jan_20_1655,searchDisc5,2021.2.3,59.97434463719304,
images/exp2a_trial_197_colour2_distractors1_r.png,r,3,2,1,0,,,,,0,201,201,201,,,,,,,,,,,,,,,,,,,,,,,,,,,,,,,,,,,,,,,,,,,660.1432031780132,None,2,0.5570043890038505,660.1432031780132,None,,,,,,,,,,,,,,,,None,None,None,,None,None,660.7463861220167,None,3,1,1.05574391502887,660.7463861220167,None,661.793319004128,None,None,None,None,,19,001,2023_Jan_20_1655,searchDisc5,2021.2.3,59.97434463719304,
images/exp2b_trial_191_colour0_distractors0_l.png,l,1,0,0,0,,,,,0,202,202,202,,,,,,,,,,,,,,,,,,,,,,,,,,,,,,,,,,,,,,,,,,,661.8098784200265,None,2,0.5197757399873808,661.8098784200265,None,,,,,,,,,,,,,,,,None,None,None,,None,None,662.3789658790338,None,1,1,1.1062908039893955,662.3789658790338,None,663.4766286211146,None,None,None,None,,19,001,2023_Jan_20_1655,searchDisc5,2021.2.3,59.97434463719304,
images/exp2c_trial_178_colour1_distractors19_l.png,l,1,1,19,0,,,,,0,203,203,203,,,,,,,,,,,,,,,,,,,,,,,,,,,,,,,,,,,,,,,,,,,663.4924920870108,None,2,0.424000670958776,663.4924920870108,None,,,,,,,,,,,,,,,,None,None,None,,None,None,663.9621130430023,None,1,1,1.15410632599378,663.9621130430023,None,665.1110898291284,None,None,None,None,,19,001,2023_Jan_20_1655,searchDisc5,2021.2.3,59.97434463719304,
images/exp2a_trial_264_colour2_distractors19_r.png,r,3,2,19,0,,,,,0,204,204,204,,,,,,,,,,,,,,,,,,,,,,,,,,,,,,,,,,,,,,,,,,,665.1274704500102,None,2,0.3184084619861096,665.1274704500102,None,,,,,,,,,,,,,,,,None,None,None,,None,None,665.4933554939926,None,3,1,2.1813810680177994,665.4933554939926,None,667.6768962960981,None,None,None,None,,19,001,2023_Jan_20_1655,searchDisc5,2021.2.3,59.97434463719304,
images/exp2a_trial_9_colour2_distractors31_r.png,r,3,2,31,0,,,,,0,205,205,205,,,,,,,,,,,,,,,,,,,,,,,,,,,,,,,,,,,,,,,,,,,667.6942262329976,None,2,0.33777779998490587,667.6942262329976,None,,,,,,,,,,,,,,,,None,None,None,,None,None,668.0772373660002,None,3,1,0.8956015039584599,668.0772373660002,None,668.9769656580814,None,None,None,None,,19,001,2023_Jan_20_1655,searchDisc5,2021.2.3,59.97434463719304,
images/exp2c_trial_151_colour2_distractors19_l.png,l,1,2,19,0,,,,,0,206,206,206,,,,,,,,,,,,,,,,,,,,,,,,,,,,,,,,,,,,,,,,,,,668.9944602629985,None,2,0.32348869199631736,668.9944602629985,None,,,,,,,,,,,,,,,,None,None,None,,None,None,669.3634546429967,None,1,1,0.8847113520023413,669.3634546429967,None,670.2437012631038,None,None,None,None,,19,001,2023_Jan_20_1655,searchDisc5,2021.2.3,59.97434463719304,
images/exp2a_trial_49_colour1_distractors9_l.png,l,1,1,9,0,,,,,0,207,207,207,,,,,,,,,,,,,,,,,,,,,,,,,,,,,,,,,,,,,,,,,,,670.2609617179842,None,2,0.25440947199240327,670.2609617179842,None,,,,,,,,,,,,,,,,None,None,None,,None,None,670.5604587980197,None,1,1,1.4066293059731834,670.5604587980197,None,671.9604051091068,None,None,None,None,,19,001,2023_Jan_20_1655,searchDisc5,2021.2.3,59.97434463719304,
images/exp2b_trial_297_colour2_distractors31_r.png,r,3,2,31,0,,,,,0,208,208,208,,,,,,,,,,,,,,,,,,,,,,,,,,,,,,,,,,,,,,,,,,,671.9774704630254,None,2,0.2876544879982248,671.9774704630254,None,,,,,,,,,,,,,,,,None,None,None,,None,None,672.3103850320331,None,3,1,0.9993797219940461,672.3103850320331,None,673.3103425421344,None,None,None,None,,19,001,2023_Jan_20_1655,searchDisc5,2021.2.3,59.97434463719304,
images/exp2b_trial_9_colour2_distractors31_r.png,r,3,2,31,0,,,,,0,209,209,209,,,,,,,,,,,,,,,,,,,,,,,,,,,,,,,,,,,,,,,,,,,673.3267500560032,None,2,0.4205008639837615,673.3267500560032,None,,,,,,,,,,,,,,,,None,None,None,,None,None,673.7966525470256,None,3,1,1.021452127955854,673.7966525470256,None,674.8102747441211,None,None,None,None,,19,001,2023_Jan_20_1655,searchDisc5,2021.2.3,59.97434463719304,
images/exp2b_trial_41_colour2_distractors31_r.png,r,3,2,31,0,,,,,0,210,210,210,,,,,,,,,,,,,,,,,,,,,,,,,,,,,,,,,,,,,,,,,,,674.8281779289828,None,2,0.33755025098798797,674.8281779289828,None,,,,,,,,,,,,,,,,None,None,None,,None,None,675.2133951309952,None,3,1,0.7856740449788049,675.2133951309952,None,675.9936918300867,None,None,None,None,,19,001,2023_Jan_20_1655,searchDisc5,2021.2.3,59.97434463719304,
images/exp2a_trial_317_colour3_distractors31_l.png,l,1,3,31,0,,,,,0,211,211,211,,,,,,,,,,,,,,,,,,,,,,,,,,,,,,,,,,,,,,,,,,,676.0134870290058,None,2,0.28845701896352693,676.0134870290058,None,,,,,,,,,,,,,,,,None,None,None,,None,None,676.3458901760168,None,1,1,0.7686043329886161,676.3458901760168,None,677.1105511761328,None,None,None,None,,19,001,2023_Jan_20_1655,searchDisc5,2021.2.3,59.97434463719304,
images/exp2c_trial_47_colour1_distractors1_l.png,l,1,1,1,0,,,,,0,212,212,212,,,,,,,,,,,,,,,,,,,,,,,,,,,,,,,,,,,,,,,,,,,677.1269735969836,None,2,0.3203744399943389,677.1269735969836,None,,,,,,,,,,,,,,,,None,None,None,,None,None,677.4948699179804,None,1,1,0.9740103210206144,677.4948699179804,None,678.4603828390885,None,None,None,None,,19,001,2023_Jan_20_1655,searchDisc5,2021.2.3,59.97434463719304,
images/exp2b_trial_221_colour3_distractors31_l.png,l,1,3,31,0,,,,,0,213,213,213,,,,,,,,,,,,,,,,,,,,,,,,,,,,,,,,,,,,,,,,,,,678.4763035579817,None,2,0.28775301697896793,678.4763035579817,None,,,,,,,,,,,,,,,,None,None,None,,None,None,678.8108732579858,None,1,1,0.9196748060057871,678.8108732579858,None,679.7271390711015,None,None,None,None,,19,001,2023_Jan_20_1655,searchDisc5,2021.2.3,59.97434463719304,
images/exp2c_trial_157_colour3_distractors31_l.png,l,1,3,31,0,,,,,0,214,214,214,,,,,,,,,,,,,,,,,,,,,,,,,,,,,,,,,,,,,,,,,,,679.7437734790146,None,2,0.3055273130303249,679.7437734790146,None,,,,,,,,,,,,,,,,None,None,None,,None,None,680.0970228950027,None,1,1,0.8854787080199458,680.0970228950027,None,680.9771776351321,None,None,None,None,,19,001,2023_Jan_20_1655,searchDisc5,2021.2.3,59.97434463719304,
images/exp2c_trial_295_colour2_distractors9_r.png,r,3,2,9,0,,,,,0,215,215,215,,,,,,,,,,,,,,,,,,,,,,,,,,,,,,,,,,,,,,,,,,,680.9943031159928,None,2,0.27102445595664904,680.9943031159928,None,,,,,,,,,,,,,,,,None,None,None,,None,None,681.3115531799849,None,3,1,0.8053621790022589,681.3115531799849,None,682.1104697571194,None,None,None,None,,19,001,2023_Jan_20_1655,searchDisc5,2021.2.3,59.97434463719304,
images/exp1a_trial_40_colour2_distractors19_r.png,r,3,2,19,0,,,,,0,216,216,216,,,,,,,,,,,,,,,,,,,,,,,,,,,,,,,,,,,,,,,,,,,682.1278633439797,None,2,0.3043389479862526,682.1278633439797,None,,,,,,,,,,,,,,,,None,None,None,,None,None,682.4804556210293,None,3,1,0.8347805419471115,682.4804556210293,None,683.310838740092,None,None,None,None,,19,001,2023_Jan_20_1655,searchDisc5,2021.2.3,59.97434463719304,
images/exp2b_trial_18_colour1_distractors19_l.png,l,1,1,19,0,,,,,0,217,217,217,,,,,,,,,,,,,,,,,,,,,,,,,,,,,,,,,,,,,,,,,,,683.3280963090365,None,2,0.3069902790011838,683.3280963090365,None,,,,,,,,,,,,,,,,None,None,None,,None,None,683.677872928034,None,1,1,0.9848313020193018,683.677872928034,None,684.6606284510984,None,None,None,None,,19,001,2023_Jan_20_1655,searchDisc5,2021.2.3,59.97434463719304,
images/exp1a_trial_285_colour3_distractors31_l.png,l,1,3,31,0,,,,,0,218,218,218,,,,,,,,,,,,,,,,,,,,,,,,,,,,,,,,,,,,,,,,,,,684.6772221379797,None,2,0.2874096970190294,684.6772221379797,None,,,,,,,,,,,,,,,,None,None,None,,None,None,685.0107940190355,None,1,1,0.7694616990047507,685.0107940190355,None,685.7782824171067,None,None,None,None,,19,001,2023_Jan_20_1655,searchDisc5,2021.2.3,59.97434463719304,
images/exp2c_trial_211_colour1_distractors31_l.png,l,1,1,31,0,,,,,0,219,219,219,,,,,,,,,,,,,,,,,,,,,,,,,,,,,,,,,,,,,,,,,,,685.7937006169814,None,2,0.2536164539633319,685.7937006169814,None,,,,,,,,,,,,,,,,None,None,None,,None,None,686.0937983070035,None,1,1,0.7191243749693967,686.0937983070035,None,686.8107251690875,None,None,None,None,,19,001,2023_Jan_20_1655,searchDisc5,2021.2.3,59.97434463719304,
images/exp2c_trial_199_colour2_distractors9_r.png,r,3,2,9,0,,,,,0,220,220,220,,,,,,,,,,,,,,,,,,,,,,,,,,,,,,,,,,,,,,,,,,,686.8275969679817,None,2,0.2705736540374346,686.8275969679817,None,,,,,,,,,,,,,,,,None,None,None,,None,None,687.1442130900105,None,3,1,0.8878107279888354,687.1442130900105,None,688.0273219441355,None,None,None,None,,19,001,2023_Jan_20_1655,searchDisc5,2021.2.3,59.97434463719304,
images/exp2a_trial_12_colour3_distractors9_r.png,r,3,3,9,0,,,,,0,221,221,221,,,,,,,,,,,,,,,,,,,,,,,,,,,,,,,,,,,,,,,,,,,688.0440482029808,None,2,0.32102159201167524,688.0440482029808,None,,,,,,,,,,,,,,,,None,None,None,,None,None,688.4139650019933,None,3,1,0.7055046829627827,688.4139650019933,None,689.11190626311,None,None,None,None,,19,001,2023_Jan_20_1655,searchDisc5,2021.2.3,59.97434463719304,
images/exp2c_trial_246_colour2_distractors9_l.png,l,1,2,9,0,,,,,0,222,222,222,,,,,,,,,,,,,,,,,,,,,,,,,,,,,,,,,,,,,,,,,,,689.1281828660285,None,2,0.2876373120234348,689.1281828660285,None,,,,,,,,,,,,,,,,None,None,None,,None,None,689.46087640099,None,1,1,0.8030081710312515,689.46087640099,None,690.2602591360977,None,None,None,None,,19,001,2023_Jan_20_1655,searchDisc5,2021.2.3,59.97434463719304,
images/exp2c_trial_134_colour2_distractors4_r.png,r,3,2,4,0,,,,,0,223,223,223,,,,,,,,,,,,,,,,,,,,,,,,,,,,,,,,,,,,,,,,,,,690.277723171981,None,2,0.2724440550082363,690.277723171981,None,,,,,,,,,,,,,,,,None,None,None,,None,None,690.5937426440069,None,3,1,0.6882965050172061,690.5937426440069,None,691.2774113030813,None,None,None,None,,19,001,2023_Jan_20_1655,searchDisc5,2021.2.3,59.97434463719304,
images/exp2b_trial_309_colour2_distractors4_l.png,l,1,2,4,0,,,,,0,224,224,224,,,,,,,,,,,,,,,,,,,,,,,,,,,,,,,,,,,,,,,,,,,691.2948412069818,None,2,0.28778006898937747,691.2948412069818,None,,,,,,,,,,,,,,,,None,None,None,,None,None,691.627624655026,None,1,1,0.8890180230373517,691.627624655026,None,692.5109910941159,None,None,None,None,,19,001,2023_Jan_20_1655,searchDisc5,2021.2.3,59.97434463719304,
images/exp1a_trial_156_colour3_distractors19_l.png,l,1,3,19,0,,,,,0,225,225,225,,,,,,,,,,,,,,,,,,,,,,,,,,,,,,,,,,,,,,,,,,,692.5282877419959,None,2,0.2897440089727752,692.5282877419959,None,,,,,,,,,,,,,,,,None,None,None,,None,None,692.8609683800023,None,1,1,0.6857939850306138,692.8609683800023,None,693.5452804911241,None,None,None,None,,19,001,2023_Jan_20_1655,searchDisc5,2021.2.3,59.97434463719304,
