ImageFile,targ_side,correctAnswer,colour,distNo,targetType,trials_2.thisRepN,trials_2.thisTrialN,trials_2.thisN,trials_2.thisIndex,trials.thisRepN,trials.thisTrialN,trials.thisN,trials.thisIndex,text_6.started,text_6.stopped,buttonBox.keys,buttonBox.rt,buttonBox.started,buttonBox.stopped,text_7.started,text_7.stopped,buttonBox_3.keys,buttonBox_3.rt,buttonBox_3.started,buttonBox_3.stopped,text_8.started,text_8.stopped,buttonBox_4.keys,buttonBox_4.rt,buttonBox_4.started,buttonBox_4.stopped,text_9.started,text_9.stopped,buttonBox_5.keys,buttonBox_5.rt,buttonBox_5.started,buttonBox_5.stopped,text_2.started,text_2.stopped,buttonBox_6.keys,buttonBox_6.rt,buttonBox_6.started,buttonBox_6.stopped,text_5.started,text_5.stopped,buttonBox_7.keys,buttonBox_7.rt,image_2.started,image_2.stopped,image_3.started,image_3.stopped,buttonBox_8.keys,buttonBox_8.rt,buttonBox_8.started,buttonBox_8.stopped,polygon.started,polygon.stopped,buttonBox_9.keys,buttonBox_9.rt,buttonBox_9.started,buttonBox_9.stopped,image.started,image.stopped,buttonBox_10.keys,buttonBox_10.corr,buttonBox_10.rt,buttonBox_10.started,buttonBox_10.stopped,text_4.started,text_4.stopped,text.started,text.stopped,buttonBox_11.keys,buttonBox_11.rt,buttonBox_11.started,buttonBox_11.stopped,targetTypeInstruction.started,targetTypeInstruction.stopped,buttonBox_2.keys,buttonBox_2.rt,buttonBox_2.started,buttonBox_2.stopped,dispStimuli.started,dispStimuli.stopped,buttonBox_12.keys,buttonBox_12.corr,buttonBox_12.rt,buttonBox_12.started,buttonBox_12.stopped,breakMessage.started,breakMessage.stopped,buttonBox_13.keys,buttonBox_13.started,buttonBox_13.stopped,buttonBox_13.rt,participant,session,date,expName,psychopyVersion,frameRate,
,,,,,,,,,,,,,,13.599939592997544,None,2,25.289186073001474,13.599939592997544,None,,,,,,,,,,,,,,,,,,,,,,,,,,,,,,,,,,,,,,,,,,,,,,,,,,,,,,,,,,,,,,,,,,,,,,,,,,,,,1,001,2023_Jan_17_1403,searchDisc5,2021.2.3,60.105050037836044,
,,,,,,,,,,,,,,,,,,,,38.88156950002303,None,2,12.04585240499,38.88156950002303,None,,,,,,,,,,,,,,,,,,,,,,,,,,,,,,,,,,,,,,,,,,,,,,,,,,,,,,,,,,,,,,,,,,,,,,,1,001,2023_Jan_17_1403,searchDisc5,2021.2.3,60.105050037836044,
,,,,,,,,,,,,,,,,,,,,,,,,,,50.931543720012996,None,2,6.781422227999428,50.931543720012996,None,,,,,,,,,,,,,,,,,,,,,,,,,,,,,,,,,,,,,,,,,,,,,,,,,,,,,,,,,,,,,,,,,1,001,2023_Jan_17_1403,searchDisc5,2021.2.3,60.105050037836044,
,,,,,,,,,,,,,,,,,,,,,,,,,,,,,,,,57.71529632702004,None,2,5.715535071998602,57.71529632702004,None,,,,,,,,,,,,,,,,,,,,,,,,,,,,,,,,,,,,,,,,,,,,,,,,,,,,,,,,,,,1,001,2023_Jan_17_1403,searchDisc5,2021.2.3,60.105050037836044,
,,,,,,,,,,,,,,,,,,,,,,,,,,,,,,,,,,,,,,63.4323564869992,None,2,10.900087480986258,64.41764611500548,None,,,,,,,,,,,,,,,,,,,,,,,,,,,,,,,,,,,,,,,,,,,,,,,,,,,,,1,001,2023_Jan_17_1403,searchDisc5,2021.2.3,60.105050037836044,
,,,,,,,,,,,,,,,,,,,,,,,,,,,,,,,,,,,,,,,,,,,,75.31592291299603,None,2,14.433787148009287,,,,,,,,,,,,,,,,,,,,,,,,,,,,,,,,,,,,,,,,,,,,,,,,,1,001,2023_Jan_17_1403,searchDisc5,2021.2.3,60.105050037836044,
,,,,,,,,,,,,,,,,,,,,,,,,,,,,,,,,,,,,,,,,,,,,,,,,92.76618419401348,None,92.76618419401348,None,2,9.097813450993272,92.76618419401348,None,,,,,,,,,,,,,,,,,,,,,,,,,,,,,,,,,,,,,,,,,1,001,2023_Jan_17_1403,searchDisc5,2021.2.3,60.105050037836044,
Practice arrays/exp1a_trial_17_colour1_distractors9_l.png,l,1,,,,0,0,0,7,,,,,,,,,,,,,,,,,,,,,,,,,,,,,,,,,,,,,,,,,,,,,,,101.88560865601175,None,2,2.9976660879910924,101.88560865601175,None,104.93333996101865,None,1,1,2.204098991001956,104.93333996101865,None,107.13325306901243,None,,,,,,,,,,,,,,,,,,,,,,,,,,1,001,2023_Jan_17_1403,searchDisc5,2021.2.3,60.105050037836044,
Practice arrays/exp1a_trial_12_colour3_distractors9_r.png,r,3,,,,0,1,1,5,,,,,,,,,,,,,,,,,,,,,,,,,,,,,,,,,,,,,,,,,,,,,,,109.13512550800806,None,2,1.7991716209799051,109.13512550800806,None,110.98574688102235,None,3,1,1.5153521580214147,110.98574688102235,None,112.50011591301882,None,,,,,,,,,,,,,,,,,,,,,,,,,,1,001,2023_Jan_17_1403,searchDisc5,2021.2.3,60.105050037836044,
Practice arrays/exp1a_trial_27_colour3_distractors9_l.png,l,1,,,,0,2,2,12,,,,,,,,,,,,,,,,,,,,,,,,,,,,,,,,,,,,,,,,,,,,,,,114.50199229901773,None,2,0.7323714139929507,114.50199229901773,None,115.28515804000199,None,1,1,1.0841182750009466,115.28515804000199,None,116.36702947202139,None,,,,,,,,,,,,,,,,,,,,,,,,,,1,001,2023_Jan_17_1403,searchDisc5,2021.2.3,60.105050037836044,
Practice arrays/exp1a_trial_25_colour3_distractors1_l.png,l,1,,,,0,3,3,11,,,,,,,,,,,,,,,,,,,,,,,,,,,,,,,,,,,,,,,,,,,,,,,118.36887820399716,None,2,0.9639675029902719,118.36887820399716,None,119.38406849800958,None,1,1,2.570316722994903,119.38406849800958,None,121.95037759799743,None,,,,,,,,,,,,,,,,,,,,,,,,,,1,001,2023_Jan_17_1403,searchDisc5,2021.2.3,60.105050037836044,
Practice arrays/exp1a_trial_8_colour2_distractors19_r.png,r,3,,,,0,4,4,3,,,,,,,,,,,,,,,,,,,,,,,,,,,,,,,,,,,,,,,,,,,,,,,123.95249682900612,None,2,0.44708010597969405,123.95249682900612,None,124.45269298000494,None,3,1,1.016958815016551,124.45269298000494,None,125.46719869601657,None,,,,,,,,,,,,,,,,,,,,,,,,,,1,001,2023_Jan_17_1403,searchDisc5,2021.2.3,60.105050037836044,
Practice arrays/exp1a_trial_21_colour2_distractors4_l.png,l,1,,,,0,5,5,9,,,,,,,,,,,,,,,,,,,,,,,,,,,,,,,,,,,,,,,,,,,,,,,127.46931561699603,None,2,0.4304506680055056,127.46931561699603,None,127.95071040900075,None,1,1,0.7374760579841677,127.95071040900075,None,128.68405938599608,None,,,,,,,,,,,,,,,,,,,,,,,,,,1,001,2023_Jan_17_1403,searchDisc5,2021.2.3,60.105050037836044,
Practice arrays/exp1a_trial_30_colour0_distractors0_r.png,r,3,,,,0,6,6,14,,,,,,,,,,,,,,,,,,,,,,,,,,,,,,,,,,,,,,,,,,,,,,,130.68577518800157,None,2,0.41499196900986135,130.68577518800157,None,131.15053856102168,None,3,1,0.7200003479956649,131.15053856102168,None,131.8673403779976,None,,,,,,,,,,,,,,,,,,,,,,,,,,1,001,2023_Jan_17_1403,searchDisc5,2021.2.3,60.105050037836044,
Practice arrays/exp1a_trial_14_colour3_distractors31_r.png,r,3,,,,0,7,7,6,,,,,,,,,,,,,,,,,,,,,,,,,,,,,,,,,,,,,,,,,,,,,,,133.86946203399566,None,2,0.43001154498779215,133.86946203399566,None,134.35304260600242,None,3,1,1.017990237014601,134.35304260600242,None,135.36755062101292,None,,,,,,,,,,,,,,,,,,,,,,,,,,1,001,2023_Jan_17_1403,searchDisc5,2021.2.3,60.105050037836044,
Practice arrays/exp1a_trial_10_colour3_distractors1_r.png,r,3,,,,0,8,8,4,,,,,,,,,,,,,,,,,,,,,,,,,,,,,,,,,,,,,,,,,,,,,,,137.36952001499594,None,2,0.31411168901831843,137.36952001499594,None,137.73665946500842,None,3,1,1.3178366450010799,137.73665946500842,None,139.05087307601934,None,,,,,,,,,,,,,,,,,,,,,,,,,,1,001,2023_Jan_17_1403,searchDisc5,2021.2.3,60.105050037836044,
Practice arrays/exp1a_trial_7_colour2_distractors9_r.png,r,3,,,,0,9,9,2,,,,,,,,,,,,,,,,,,,,,,,,,,,,,,,,,,,,,,,,,,,,,,,141.05259675701382,None,2,0.36584039399167523,141.05259675701382,None,141.46999762402265,None,3,1,0.7496731290011667,141.46999762402265,None,142.21778106101556,None,,,,,,,,,,,,,,,,,,,,,,,,,,1,001,2023_Jan_17_1403,searchDisc5,2021.2.3,60.105050037836044,
Practice arrays/exp1a_trial_16_colour1_distractors4_l.png,l,1,,,,0,10,10,13,,,,,,,,,,,,,,,,,,,,,,,,,,,,,,,,,,,,,,,,,,,,,,,144.2193401560071,None,2,0.36639396401005797,144.2193401560071,None,144.63687548201415,None,1,1,0.9508126300061122,144.63687548201415,None,145.58442556700902,None,,,,,,,,,,,,,,,,,,,,,,,,,,1,001,2023_Jan_17_1403,searchDisc5,2021.2.3,60.105050037836044,
Practice arrays/exp1a_trial_1_colour1_distractors4_r.png,r,3,,,,0,11,11,1,,,,,,,,,,,,,,,,,,,,,,,,,,,,,,,,,,,,,,,,,,,,,,,147.58648318602354,None,2,0.4490839420177508,147.58648318602354,None,148.08679252600996,None,3,1,0.7346899729745928,148.08679252600996,None,148.81776596102281,None,,,,,,,,,,,,,,,,,,,,,,,,,,1,001,2023_Jan_17_1403,searchDisc5,2021.2.3,60.105050037836044,
Practice arrays/exp1a_trial_0_colour1_distractors1_r.png,r,3,,,,0,12,12,0,,,,,,,,,,,,,,,,,,,,,,,,,,,,,,,,,,,,,,,,,,,,,,,150.81953453199822,None,2,0.3492562790052034,150.81953453199822,None,151.22013200900983,None,3,1,1.0501912540057674,151.22013200900983,None,152.26783793000504,None,,,,,,,,,,,,,,,,,,,,,,,,,,1,001,2023_Jan_17_1403,searchDisc5,2021.2.3,60.105050037836044,
Practice arrays/exp1a_trial_23_colour2_distractors19_l.png,l,1,,,,0,13,13,10,,,,,,,,,,,,,,,,,,,,,,,,,,,,,,,,,,,,,,,,,,,,,,,154.27015406702412,None,2,0.3498455710068811,154.27015406702412,None,154.6703937240236,None,1,1,0.8978309789963532,154.6703937240236,None,155.56808624402038,None,,,,,,,,,,,,,,,,,,,,,,,,,,1,001,2023_Jan_17_1403,searchDisc5,2021.2.3,60.105050037836044,
Practice arrays/exp1a_trial_31_colour0_distractors0_l.png,l,1,,,,0,14,14,15,,,,,,,,,,,,,,,,,,,,,,,,,,,,,,,,,,,,,,,,,,,,,,,157.56966859701788,None,2,0.5636796269973274,157.56966859701788,None,158.18491281502065,None,1,1,0.6054557950119488,158.18491281502065,None,158.7848516869999,None,,,,,,,,,,,,,,,,,,,,,,,,,,1,001,2023_Jan_17_1403,searchDisc5,2021.2.3,60.105050037836044,
Practice arrays/exp1a_trial_18_colour1_distractors19_l.png,l,1,,,,0,15,15,8,,,,,,,,,,,,,,,,,,,,,,,,,,,,,,,,,,,,,,,,,,,,,,,160.78661423901212,None,2,0.4803390279994346,160.78661423901212,None,161.31994980599848,None,1,1,0.9168043860117905,161.31994980599848,None,162.2347636920167,None,,,,,,,,,,,,,,,,,,,,,,,,,,1,001,2023_Jan_17_1403,searchDisc5,2021.2.3,60.105050037836044,
,,,,,,,,,,,,,,,,,,,,,,,,,,,,,,,,,,,,,,,,,,,,,,,,,,,,,,,,,,,,,,,,,,,,,,,164.32005385501543,None,2,5.630929745006142,165.3035416660132,None,,,,,,,,,,,,,,,,,,,,1,001,2023_Jan_17_1403,searchDisc5,2021.2.3,60.105050037836044,
images/exp1b_trial_93_colour3_distractors31_l.png,l,1,3,31,1,,,,,0,0,0,0,,,,,,,,,,,,,,,,,,,,,,,,,,,,,,,,,,,,,,,,,,,182.38484686301672,None,2,1.2623553359881043,182.38484686301672,None,,,,,,,,,,,,,,,,171.53696945600677,None,2,8.864654667995637,173.5204653100227,None,183.7053391119989,None,1,1,1.7590585440048017,183.7053391119989,None,185.48538620039471,None,None,None,None,,1,001,2023_Jan_17_1403,searchDisc5,2021.2.3,60.105050037836044,
images/exp1b_trial_211_colour1_distractors31_l.png,l,1,1,31,1,,,,,0,1,1,1,,,,,,,,,,,,,,,,,,,,,,,,,,,,,,,,,,,,,,,,,,,185.50205722701503,None,2,0.9872220550023485,185.50205722701503,None,,,,,,,,,,,,,,,,None,None,None,,None,None,186.53545320400735,None,1,1,1.2690531960106455,186.53545320400735,None,187.80201695922005,None,None,None,None,,1,001,2023_Jan_17_1403,searchDisc5,2021.2.3,60.105050037836044,
images/exp1b_trial_124_colour3_distractors19_l.png,l,1,3,19,1,,,,,0,2,2,2,,,,,,,,,,,,,,,,,,,,,,,,,,,,,,,,,,,,,,,,,,,187.81877750201966,None,2,1.2671400700055528,187.81877750201966,None,,,,,,,,,,,,,,,,None,None,None,,None,None,189.13575761701213,None,1,1,2.2839410100132227,189.13575761701213,None,191.41884384620062,None,None,None,None,,1,001,2023_Jan_17_1403,searchDisc5,2021.2.3,60.105050037836044,
images/exp1b_trial_170_colour3_distractors1_r.png,r,3,3,1,1,,,,,0,3,3,3,,,,,,,,,,,,,,,,,,,,,,,,,,,,,,,,,,,,,,,,,,,191.435441388021,None,2,0.8872161199979018,191.435441388021,None,,,,,,,,,,,,,,,,None,None,None,,None,None,192.37064479500987,None,3,1,0.9882195809914265,192.37064479500987,None,193.35226947821502,None,None,None,None,,1,001,2023_Jan_17_1403,searchDisc5,2021.2.3,60.105050037836044,
images/exp1b_trial_97_colour1_distractors4_r.png,r,3,1,4,1,,,,,0,4,4,4,,,,,,,,,,,,,,,,,,,,,,,,,,,,,,,,,,,,,,,,,,,193.3687794630241,None,2,1.0031561790092383,193.3687794630241,None,,,,,,,,,,,,,,,,None,None,None,,None,None,194.41935807201662,None,3,1,1.0705982959771063,194.41935807201662,None,195.48559731322166,None,None,None,None,,1,001,2023_Jan_17_1403,searchDisc5,2021.2.3,60.105050037836044,
images/exp1b_trial_311_colour2_distractors19_l.png,l,1,2,19,1,,,,,0,5,5,5,,,,,,,,,,,,,,,,,,,,,,,,,,,,,,,,,,,,,,,,,,,195.5024462940055,None,2,1.1712565490161069,195.5024462940055,None,,,,,,,,,,,,,,,,None,None,None,,None,None,196.7213911570143,None,1,1,1.7701122619910166,196.7213911570143,None,198.4856736842048,None,None,None,None,,1,001,2023_Jan_17_1403,searchDisc5,2021.2.3,60.105050037836044,
images/exp1b_trial_12_colour3_distractors9_r.png,r,3,3,9,1,,,,,0,6,6,6,,,,,,,,,,,,,,,,,,,,,,,,,,,,,,,,,,,,,,,,,,,198.50245110600372,None,2,0.8727727730001789,198.50245110600372,None,,,,,,,,,,,,,,,,None,None,None,,None,None,199.4192263430159,None,3,1,1.2468697180156596,199.4192263430159,None,200.66923807021521,None,None,None,None,,1,001,2023_Jan_17_1403,searchDisc5,2021.2.3,60.105050037836044,
images/exp1b_trial_250_colour3_distractors4_l.png,l,1,3,4,1,,,,,0,7,7,7,,,,,,,,,,,,,,,,,,,,,,,,,,,,,,,,,,,,,,,,,,,200.68584910800564,None,2,1.5867797220125794,200.68584910800564,None,,,,,,,,,,,,,,,,None,None,None,,None,None,202.31926005001878,None,1,1,1.0201139650016557,202.31926005001878,None,203.3358798802219,None,None,None,None,,1,001,2023_Jan_17_1403,searchDisc5,2021.2.3,60.105050037836044,
images/exp1b_trial_233_colour2_distractors31_r.png,r,3,2,31,1,,,,,0,8,8,8,,,,,,,,,,,,,,,,,,,,,,,,,,,,,,,,,,,,,,,,,,,203.35449125099694,None,2,2.754272182995919,203.35449125099694,None,,,,,,,,,,,,,,,,None,None,None,,None,None,206.15276330002234,None,3,1,2.4858035579964053,206.15276330002234,None,208.63592321921897,None,None,None,None,,1,001,2023_Jan_17_1403,searchDisc5,2021.2.3,60.105050037836044,
images/exp1b_trial_74_colour3_distractors1_r.png,r,3,3,1,1,,,,,0,9,9,9,,,,,,,,,,,,,,,,,,,,,,,,,,,,,,,,,,,,,,,,,,,208.6523613409954,None,2,0.8869048449851107,208.6523613409954,None,,,,,,,,,,,,,,,,None,None,None,,None,None,209.58826339800726,None,3,1,1.052056549990084,209.58826339800726,None,210.63557661020604,None,None,None,None,,1,001,2023_Jan_17_1403,searchDisc5,2021.2.3,60.105050037836044,
images/exp1b_trial_167_colour2_distractors9_r.png,r,3,2,9,1,,,,,0,10,10,10,,,,,,,,,,,,,,,,,,,,,,,,,,,,,,,,,,,,,,,,,,,210.6526442890172,None,2,0.7548336470208596,210.6526442890172,None,,,,,,,,,,,,,,,,None,None,None,,None,None,211.45466783101438,None,3,1,1.836673806014005,211.45466783101438,None,213.28604925722175,None,None,None,None,,1,001,2023_Jan_17_1403,searchDisc5,2021.2.3,60.105050037836044,
images/exp1b_trial_199_colour2_distractors9_r.png,r,3,2,9,1,,,,,0,11,11,11,,,,,,,,,,,,,,,,,,,,,,,,,,,,,,,,,,,,,,,,,,,213.30269994802075,None,2,0.8548633120080922,213.30269994802075,None,,,,,,,,,,,,,,,,None,None,None,,None,None,214.20343517299625,None,3,1,1.7373983029974625,214.20343517299625,None,215.93622105721442,None,None,None,None,,1,001,2023_Jan_17_1403,searchDisc5,2021.2.3,60.105050037836044,
images/exp1b_trial_107_colour3_distractors4_r.png,r,3,3,4,1,,,,,0,12,12,12,,,,,,,,,,,,,,,,,,,,,,,,,,,,,,,,,,,,,,,,,,,215.95487313601188,None,2,1.8375121260178275,215.95487313601188,None,,,,,,,,,,,,,,,,None,None,None,,None,None,217.83855475700693,None,3,1,0.9175944890012033,217.83855475700693,None,218.75303299921507,None,None,None,None,,1,001,2023_Jan_17_1403,searchDisc5,2021.2.3,60.105050037836044,
images/exp1b_trial_54_colour2_distractors9_l.png,l,1,2,9,1,,,,,0,13,13,13,,,,,,,,,,,,,,,,,,,,,,,,,,,,,,,,,,,,,,,,,,,218.76944280200405,None,2,2.070651018002536,218.76944280200405,None,,,,,,,,,,,,,,,,None,None,None,,None,None,220.88647382101044,None,1,1,1.0696241199912038,220.88647382101044,None,221.95290211921383,None,None,None,None,,1,001,2023_Jan_17_1403,searchDisc5,2021.2.3,60.105050037836044,
images/exp1b_trial_181_colour2_distractors4_l.png,l,1,2,4,1,,,,,0,14,14,14,,,,,,,,,,,,,,,,,,,,,,,,,,,,,,,,,,,,,,,,,,,221.9713408240059,None,2,0.8709062710113358,221.9713408240059,None,,,,,,,,,,,,,,,,None,None,None,,None,None,222.88804732001154,None,1,1,1.1378229129768442,222.88804732001154,None,224.01969273721625,None,None,None,None,,1,001,2023_Jan_17_1403,searchDisc5,2021.2.3,60.105050037836044,
images/exp1b_trial_2_colour1_distractors9_r.png,r,3,1,9,1,,,,,0,15,15,15,,,,,,,,,,,,,,,,,,,,,,,,,,,,,,,,,,,,,,,,,,,224.0363187920011,None,2,1.1212753530126065,224.0363187920011,None,,,,,,,,,,,,,,,,None,None,None,,None,None,225.20585116301663,None,3,1,1.3363194740086328,225.20585116301663,None,226.53654420022212,None,None,None,None,,1,001,2023_Jan_17_1403,searchDisc5,2021.2.3,60.105050037836044,
images/exp1b_trial_70_colour2_distractors4_r.png,r,3,2,4,1,,,,,0,16,16,16,,,,,,,,,,,,,,,,,,,,,,,,,,,,,,,,,,,,,,,,,,,226.55275578101282,None,2,0.7898466920014471,226.55275578101282,None,,,,,,,,,,,,,,,,None,None,None,,None,None,227.3881765360129,None,3,1,0.7860739020106848,227.3881765360129,None,228.1698135582119,None,None,None,None,,1,001,2023_Jan_17_1403,searchDisc5,2021.2.3,60.105050037836044,
images/exp1b_trial_51_colour1_distractors31_l.png,l,1,1,31,1,,,,,0,17,17,17,,,,,,,,,,,,,,,,,,,,,,,,,,,,,,,,,,,,,,,,,,,228.18651338401833,None,2,0.6062036750081461,228.18651338401833,None,,,,,,,,,,,,,,,,None,None,None,,None,None,228.83852972401655,None,1,1,2.3319023580115754,228.83852972401655,None,231.1700349542225,None,None,None,None,,1,001,2023_Jan_17_1403,searchDisc5,2021.2.3,60.105050037836044,
images/exp1b_trial_194_colour1_distractors9_r.png,r,3,1,9,1,,,,,0,18,18,18,,,,,,,,,,,,,,,,,,,,,,,,,,,,,,,,,,,,,,,,,,,231.18621860901476,None,2,0.589846598013537,231.18621860901476,None,,,,,,,,,,,,,,,,None,None,None,,None,None,231.81935159102431,None,3,1,0.8855578340007924,231.81935159102431,None,232.703585105206,None,None,None,None,,1,001,2023_Jan_17_1403,searchDisc5,2021.2.3,60.105050037836044,
images/exp1b_trial_32_colour1_distractors1_r.png,r,3,1,1,1,,,,,0,19,19,19,,,,,,,,,,,,,,,,,,,,,,,,,,,,,,,,,,,,,,,,,,,232.71986069102422,None,2,0.5041179870022461,232.71986069102422,None,,,,,,,,,,,,,,,,None,None,None,,None,None,233.2702274150215,None,3,1,0.7040137040021364,233.2702274150215,None,233.96990835921315,None,None,None,None,,1,001,2023_Jan_17_1403,searchDisc5,2021.2.3,60.105050037836044,
images/exp1b_trial_274_colour1_distractors19_l.png,l,1,1,19,1,,,,,0,20,20,20,,,,,,,,,,,,,,,,,,,,,,,,,,,,,,,,,,,,,,,,,,,233.98842709002201,None,2,0.487795355002163,233.98842709002201,None,,,,,,,,,,,,,,,,None,None,None,,None,None,234.5222622420115,None,1,1,1.3018680780078284,234.5222622420115,None,235.81971268220514,None,None,None,None,,1,001,2023_Jan_17_1403,searchDisc5,2021.2.3,60.105050037836044,
images/exp1b_trial_72_colour2_distractors19_r.png,r,3,2,19,1,,,,,0,21,21,21,,,,,,,,,,,,,,,,,,,,,,,,,,,,,,,,,,,,,,,,,,,235.83608622802421,None,2,0.456727482000133,235.83608622802421,None,,,,,,,,,,,,,,,,None,None,None,,None,None,236.33881707800901,None,3,1,1.6847103319887538,236.33881707800901,None,238.02016098621243,None,None,None,None,,1,001,2023_Jan_17_1403,searchDisc5,2021.2.3,60.105050037836044,
images/exp1b_trial_46_colour3_distractors31_r.png,r,3,3,31,1,,,,,0,22,22,22,,,,,,,,,,,,,,,,,,,,,,,,,,,,,,,,,,,,,,,,,,,238.036609702016,None,2,0.45630389600410126,238.036609702016,None,,,,,,,,,,,,,,,,None,None,None,,None,None,238.53902045299765,None,3,1,2.1169182889861986,238.53902045299765,None,240.6537024052086,None,None,None,None,,1,001,2023_Jan_17_1403,searchDisc5,2021.2.3,60.105050037836044,
images/exp1b_trial_260_colour1_distractors31_r.png,r,3,1,31,1,,,,,0,23,23,23,,,,,,,,,,,,,,,,,,,,,,,,,,,,,,,,,,,,,,,,,,,240.67020867500105,None,2,0.4558043789875228,240.67020867500105,None,,,,,,,,,,,,,,,,None,None,None,,None,None,241.17460347601445,None,3,1,1.0626979490043595,241.17460347601445,None,242.23689117921458,None,None,None,None,,1,001,2023_Jan_17_1403,searchDisc5,2021.2.3,60.105050037836044,
images/exp1b_trial_259_colour1_distractors19_r.png,r,3,1,19,1,,,,,0,24,24,24,,,,,,,,,,,,,,,,,,,,,,,,,,,,,,,,,,,,,,,,,,,242.2529428700218,None,2,0.42270982498303056,242.2529428700218,None,,,,,,,,,,,,,,,,None,None,None,,None,None,242.72253351000836,None,3,1,1.1818658340198454,242.72253351000836,None,243.90360345119552,None,None,None,None,,1,001,2023_Jan_17_1403,searchDisc5,2021.2.3,60.105050037836044,
images/exp1b_trial_228_colour1_distractors31_r.png,r,3,1,31,1,,,,,0,25,25,25,,,,,,,,,,,,,,,,,,,,,,,,,,,,,,,,,,,,,,,,,,,243.92231277399696,None,2,0.45446874102344736,243.92231277399696,None,,,,,,,,,,,,,,,,None,None,None,,None,None,244.42062159400666,None,3,1,1.6178056040080264,244.42062159400666,None,246.03704358921095,None,None,None,None,,1,001,2023_Jan_17_1403,searchDisc5,2021.2.3,60.105050037836044,
images/exp1b_trial_197_colour2_distractors1_r.png,r,3,2,1,1,,,,,0,26,26,26,,,,,,,,,,,,,,,,,,,,,,,,,,,,,,,,,,,,,,,,,,,246.05321157199796,None,2,0.4711604019976221,246.05321157199796,None,,,,,,,,,,,,,,,,None,None,None,,None,None,246.57055784901604,None,3,1,0.6389235030219425,246.57055784901604,None,247.2037174792058,None,None,None,None,,1,001,2023_Jan_17_1403,searchDisc5,2021.2.3,60.105050037836044,
images/exp1b_trial_113_colour1_distractors9_l.png,l,1,1,9,1,,,,,0,27,27,27,,,,,,,,,,,,,,,,,,,,,,,,,,,,,,,,,,,,,,,,,,,247.2204958590155,None,2,0.504494822002016,247.2204958590155,None,,,,,,,,,,,,,,,,None,None,None,,None,None,247.77075110402075,None,1,1,0.6538244690163992,247.77075110402075,None,248.42040348921728,None,None,None,None,,1,001,2023_Jan_17_1403,searchDisc5,2021.2.3,60.105050037836044,
images/exp1b_trial_105_colour2_distractors31_r.png,r,3,2,31,1,,,,,0,28,28,28,,,,,,,,,,,,,,,,,,,,,,,,,,,,,,,,,,,,,,,,,,,248.4371448100137,None,2,0.4392980379925575,248.4371448100137,None,,,,,,,,,,,,,,,,None,None,None,,None,None,248.92215282301186,None,3,1,0.717272822977975,248.92215282301186,None,249.63683420322195,None,None,None,None,,1,001,2023_Jan_17_1403,searchDisc5,2021.2.3,60.105050037836044,
images/exp1b_trial_282_colour3_distractors4_l.png,l,1,3,4,1,,,,,0,29,29,29,,,,,,,,,,,,,,,,,,,,,,,,,,,,,,,,,,,,,,,,,,,249.65301901102066,None,2,0.7879468419996556,249.65301901102066,None,,,,,,,,,,,,,,,,None,None,None,,None,None,250.48967868700856,None,1,1,0.9876274159760214,250.48967868700856,None,251.4705367951974,None,None,None,None,,1,001,2023_Jan_17_1403,searchDisc5,2021.2.3,60.105050037836044,
images/exp1b_trial_244_colour2_distractors1_l.png,l,1,2,1,1,,,,,0,30,30,30,,,,,,,,,,,,,,,,,,,,,,,,,,,,,,,,,,,,,,,,,,,251.48716001102002,None,2,0.871088027022779,251.48716001102002,None,,,,,,,,,,,,,,,,None,None,None,,None,None,252.4038257470238,None,1,1,0.8378992719808593,252.4038257470238,None,253.23645532321825,None,None,None,None,,1,001,2023_Jan_17_1403,searchDisc5,2021.2.3,60.105050037836044,
images/exp1b_trial_58_colour3_distractors4_l.png,l,1,3,4,1,,,,,0,31,31,31,,,,,,,,,,,,,,,,,,,,,,,,,,,,,,,,,,,,,,,,,,,253.25326011300785,None,2,0.7382062779797707,253.25326011300785,None,,,,,,,,,,,,,,,,None,None,None,,None,None,254.03754611301702,None,1,1,1.002592901000753,254.03754611301702,None,255.03676559722226,None,None,None,None,,1,001,2023_Jan_17_1403,searchDisc5,2021.2.3,60.105050037836044,
images/exp1b_trial_157_colour3_distractors31_l.png,l,1,3,31,1,,,,,0,32,32,32,,,,,,,,,,,,,,,,,,,,,,,,,,,,,,,,,,,,,,,,,,,255.05413797299843,None,2,0.8238863209844567,255.05413797299843,None,,,,,,,,,,,,,,,,None,None,None,,None,None,255.92042696502176,None,1,1,0.9998820280015934,255.92042696502176,None,256.92070036819496,None,None,None,None,,1,001,2023_Jan_17_1403,searchDisc5,2021.2.3,60.105050037836044,
images/exp1b_trial_280_colour2_distractors31_l.png,l,1,2,31,1,,,,,0,33,33,33,,,,,,,,,,,,,,,,,,,,,,,,,,,,,,,,,,,,,,,,,,,256.9369878669968,None,2,1.2044338680279907,256.9369878669968,None,,,,,,,,,,,,,,,,None,None,None,,None,None,258.1875382960134,None,1,1,1.936461576988222,258.1875382960134,None,260.12087622222316,None,None,None,None,,1,001,2023_Jan_17_1403,searchDisc5,2021.2.3,60.105050037836044,
images/exp1b_trial_91_colour3_distractors9_l.png,l,1,3,9,1,,,,,0,34,34,34,,,,,,,,,,,,,,,,,,,,,,,,,,,,,,,,,,,,,,,,,,,260.137441148021,None,2,0.5540985480183735,260.137441148021,None,,,,,,,,,,,,,,,,None,None,None,,None,None,260.7394536420179,None,1,1,1.3867693429929204,260.7394536420179,None,262.12071102620394,None,None,None,None,,1,001,2023_Jan_17_1403,searchDisc5,2021.2.3,60.105050037836044,
images/exp1b_trial_266_colour3_distractors1_r.png,r,3,3,1,1,,,,,0,35,35,35,,,,,,,,,,,,,,,,,,,,,,,,,,,,,,,,,,,,,,,,,,,262.1370458879974,None,2,0.4401025499973912,262.1370458879974,None,,,,,,,,,,,,,,,,None,None,None,,None,None,262.6230680720182,None,3,1,0.7532794869912323,262.6230680720182,None,263.37079958721006,None,None,None,None,,1,001,2023_Jan_17_1403,searchDisc5,2021.2.3,60.105050037836044,
images/exp1b_trial_121_colour3_distractors1_l.png,l,1,3,1,1,,,,,0,36,36,36,,,,,,,,,,,,,,,,,,,,,,,,,,,,,,,,,,,,,,,,,,,263.3869685640093,None,2,0.42307588798576035,263.3869685640093,None,,,,,,,,,,,,,,,,None,None,None,,None,None,263.8561791999964,None,1,1,0.7531915930157993,263.8561791999964,None,264.6037691921956,None,None,None,None,,1,001,2023_Jan_17_1403,searchDisc5,2021.2.3,60.105050037836044,
images/exp1b_trial_82_colour1_distractors19_l.png,l,1,1,19,1,,,,,0,37,37,37,,,,,,,,,,,,,,,,,,,,,,,,,,,,,,,,,,,,,,,,,,,264.6204329470056,None,2,0.42332740197889507,264.6204329470056,None,,,,,,,,,,,,,,,,None,None,None,,None,None,265.08930672801216,None,1,1,4.084456777985906,265.08930672801216,None,269.17083562321204,None,None,None,None,,1,001,2023_Jan_17_1403,searchDisc5,2021.2.3,60.105050037836044,
images/exp1b_trial_196_colour1_distractors31_r.png,r,3,1,31,1,,,,,0,38,38,38,,,,,,,,,,,,,,,,,,,,,,,,,,,,,,,,,,,,,,,,,,,269.18739809200633,None,2,1.0704427059972659,269.18739809200633,None,,,,,,,,,,,,,,,,None,None,None,,None,None,270.30471182000474,None,3,1,1.2857048530131578,270.30471182000474,None,271.5876068172074,None,None,None,None,,1,001,2023_Jan_17_1403,searchDisc5,2021.2.3,60.105050037836044,
images/exp1b_trial_295_colour2_distractors9_r.png,r,3,2,9,1,,,,,0,39,39,39,,,,,,,,,,,,,,,,,,,,,,,,,,,,,,,,,,,,,,,,,,,271.60418512902106,None,2,0.43889393398421817,271.60418512902106,None,,,,,,,,,,,,,,,,None,None,None,,None,None,272.08994021001854,None,3,1,0.6670137850160245,272.08994021001854,None,272.75425753621676,None,None,None,None,,1,001,2023_Jan_17_1403,searchDisc5,2021.2.3,60.105050037836044,
images/exp1b_trial_49_colour1_distractors9_l.png,l,1,1,9,1,,,,,0,40,40,40,,,,,,,,,,,,,,,,,,,,,,,,,,,,,,,,,,,,,,,,,,,272.77084863500204,None,2,0.4234105490031652,272.77084863500204,None,,,,,,,,,,,,,,,,None,None,None,,None,None,273.23785064401454,None,1,1,1.4021070709859487,273.23785064401454,None,274.63778849520895,None,None,None,None,,1,001,2023_Jan_17_1403,searchDisc5,2021.2.3,60.105050037836044,
images/exp1b_trial_134_colour2_distractors4_r.png,r,3,2,4,1,,,,,0,41,41,41,,,,,,,,,,,,,,,,,,,,,,,,,,,,,,,,,,,,,,,,,,,274.65403049602173,None,2,0.42112014099257067,274.65403049602173,None,,,,,,,,,,,,,,,,None,None,None,,None,None,275.12323576799827,None,3,1,0.821265215985477,275.12323576799827,None,275.9378213422169,None,None,None,None,,1,001,2023_Jan_17_1403,searchDisc5,2021.2.3,60.105050037836044,
images/exp1b_trial_306_colour1_distractors19_l.png,l,1,1,19,1,,,,,0,42,42,42,,,,,,,,,,,,,,,,,,,,,,,,,,,,,,,,,,,,,,,,,,,275.95460034001735,None,2,0.3378777460020501,275.95460034001735,None,,,,,,,,,,,,,,,,None,None,None,,None,None,276.3378973380022,None,1,1,1.1195056089782156,276.3378973380022,None,277.45440213820257,None,None,None,None,,1,001,2023_Jan_17_1403,searchDisc5,2021.2.3,60.105050037836044,
images/exp1b_trial_26_colour3_distractors4_l.png,l,1,3,4,1,,,,,0,43,43,43,,,,,,,,,,,,,,,,,,,,,,,,,,,,,,,,,,,,,,,,,,,277.47124856500886,None,2,0.406505817983998,277.47124856500886,None,,,,,,,,,,,,,,,,None,None,None,,None,None,277.9231431990047,None,1,1,1.0690523859811947,277.9231431990047,None,278.98780942220765,None,None,None,None,,1,001,2023_Jan_17_1403,searchDisc5,2021.2.3,60.105050037836044,
images/exp1b_trial_319_colour0_distractors0_l.png,l,1,0,0,1,,,,,0,44,44,44,,,,,,,,,,,,,,,,,,,,,,,,,,,,,,,,,,,,,,,,,,,279.0041911190201,None,2,0.40588655599276535,279.0041911190201,None,,,,,,,,,,,,,,,,None,None,None,,None,None,279.45652031101054,None,1,1,0.6381513579981402,279.45652031101054,None,280.0880326852057,None,None,None,None,,1,001,2023_Jan_17_1403,searchDisc5,2021.2.3,60.105050037836044,
images/exp1b_trial_301_colour3_distractors19_r.png,r,3,3,19,1,,,,,0,45,45,45,,,,,,,,,,,,,,,,,,,,,,,,,,,,,,,,,,,,,,,,,,,280.10394080000697,None,2,0.33781298698158935,280.10394080000697,None,,,,,,,,,,,,,,,,None,None,None,,None,None,280.4875542969967,None,3,1,3.4639913979917765,280.4875542969967,None,283.95482228421315,None,None,None,None,,1,001,2023_Jan_17_1403,searchDisc5,2021.2.3,60.105050037836044,
images/exp1b_trial_314_colour3_distractors4_l.png,l,1,3,4,1,,,,,0,46,46,46,,,,,,,,,,,,,,,,,,,,,,,,,,,,,,,,,,,,,,,,,,,283.9711048770114,None,2,0.30446020598174073,283.9711048770114,None,,,,,,,,,,,,,,,,None,None,None,,None,None,284.32154160601203,None,1,1,0.9213709949981421,284.32154160601203,None,285.2379707022192,None,None,None,None,,1,001,2023_Jan_17_1403,searchDisc5,2021.2.3,60.105050037836044,
images/exp1b_trial_249_colour3_distractors1_l.png,l,1,3,1,1,,,,,0,47,47,47,,,,,,,,,,,,,,,,,,,,,,,,,,,,,,,,,,,,,,,,,,,285.25674459000584,None,2,0.3040690000052564,285.25674459000584,None,,,,,,,,,,,,,,,,None,None,None,,None,None,285.6044630999968,None,1,1,0.5880964789830614,285.6044630999968,None,286.18819694822014,None,None,None,None,,1,001,2023_Jan_17_1403,searchDisc5,2021.2.3,60.105050037836044,
images/exp1b_trial_296_colour2_distractors19_r.png,r,3,2,19,1,,,,,0,48,48,48,,,,,,,,,,,,,,,,,,,,,,,,,,,,,,,,,,,,,,,,,,,286.2046109410003,None,2,0.28777804199489765,286.2046109410003,None,,,,,,,,,,,,,,,,None,None,None,,None,None,286.5383764860162,None,3,1,1.8869780199893285,286.5383764860162,None,288.42140234021645,None,None,None,None,,1,001,2023_Jan_17_1403,searchDisc5,2021.2.3,60.105050037836044,
images/exp1b_trial_35_colour1_distractors19_r.png,r,3,1,19,1,,,,,0,49,49,49,,,,,,,,,,,,,,,,,,,,,,,,,,,,,,,,,,,,,,,,,,,288.4379616990045,None,2,0.23959160098456778,288.4379616990045,None,,,,,,,,,,,,,,,,None,None,None,,None,None,288.7208827040158,None,3,1,1.5499097320134751,288.7208827040158,None,290.2714015852107,None,None,None,None,,1,001,2023_Jan_17_1403,searchDisc5,2021.2.3,60.105050037836044,
images/exp1b_trial_66_colour1_distractors9_r.png,r,3,1,9,1,,,,,0,50,50,50,,,,,,,,,,,,,,,,,,,,,,,,,,,,,,,,,,,,,,,,,,,290.2878713090031,None,2,0.30442220499389805,290.2878713090031,None,,,,,,,,,,,,,,,,None,None,None,,None,None,290.63838665699586,None,3,1,0.9210460369940847,290.63838665699586,None,291.5550409451971,None,None,None,None,,1,001,2023_Jan_17_1403,searchDisc5,2021.2.3,60.105050037836044,
images/exp1b_trial_1_colour1_distractors4_r.png,r,3,1,4,1,,,,,0,51,51,51,,,,,,,,,,,,,,,,,,,,,,,,,,,,,,,,,,,,,,,,,,,291.5732068119978,None,2,0.3042470689979382,291.5732068119978,None,,,,,,,,,,,,,,,,None,None,None,,None,None,291.9219530330156,None,3,1,0.7051515679922886,291.9219530330156,None,292.62155089921725,None,None,None,None,,1,001,2023_Jan_17_1403,searchDisc5,2021.2.3,60.105050037836044,
images/exp1b_trial_313_colour3_distractors1_l.png,l,1,3,1,1,,,,,0,52,52,52,,,,,,,,,,,,,,,,,,,,,,,,,,,,,,,,,,,,,,,,,,,292.6376970290148,None,2,0.22338113500154577,292.6376970290148,None,,,,,,,,,,,,,,,,None,None,None,,None,None,292.9051507069962,None,1,1,0.7199759180075489,292.9051507069962,None,293.62157982720237,None,None,None,None,,1,001,2023_Jan_17_1403,searchDisc5,2021.2.3,60.105050037836044,
images/exp1b_trial_265_colour2_distractors31_r.png,r,3,2,31,1,,,,,0,53,53,53,,,,,,,,,,,,,,,,,,,,,,,,,,,,,,,,,,,,,,,,,,,293.6377686680062,None,2,0.2546326779993251,293.6377686680062,None,,,,,,,,,,,,,,,,None,None,None,,None,None,293.93851440399885,None,3,1,1.452172318007797,293.93851440399885,None,295.38754053520097,None,None,None,None,,1,001,2023_Jan_17_1403,searchDisc5,2021.2.3,60.105050037836044,
images/exp1b_trial_195_colour1_distractors19_r.png,r,3,1,19,1,,,,,0,54,54,54,,,,,,,,,,,,,,,,,,,,,,,,,,,,,,,,,,,,,,,,,,,295.40631985402433,None,2,0.23828227701596916,295.40631985402433,None,,,,,,,,,,,,,,,,None,None,None,,None,None,295.688510537002,None,3,1,0.7521996720170137,295.688510537002,None,296.43819913819607,None,None,None,None,,1,001,2023_Jan_17_1403,searchDisc5,2021.2.3,60.105050037836044,
images/exp1b_trial_298_colour3_distractors1_r.png,r,3,3,1,1,,,,,0,55,55,55,,,,,,,,,,,,,,,,,,,,,,,,,,,,,,,,,,,,,,,,,,,296.4569998460065,None,2,0.25468682701466605,296.4569998460065,None,,,,,,,,,,,,,,,,None,None,None,,None,None,296.75525129100424,None,3,1,0.9383112629875541,296.75525129100424,None,297.68820544220216,None,None,None,None,,1,001,2023_Jan_17_1403,searchDisc5,2021.2.3,60.105050037836044,
images/exp1b_trial_183_colour2_distractors19_l.png,l,1,2,19,1,,,,,0,56,56,56,,,,,,,,,,,,,,,,,,,,,,,,,,,,,,,,,,,,,,,,,,,297.70501818699995,None,2,0.18796604601084255,297.70501818699995,None,,,,,,,,,,,,,,,,None,None,None,,None,None,297.9386342820071,None,1,1,1.4869080560165457,297.9386342820071,None,299.4217634321976,None,None,None,None,,1,001,2023_Jan_17_1403,searchDisc5,2021.2.3,60.105050037836044,
images/exp1b_trial_56_colour2_distractors31_l.png,l,1,2,31,1,,,,,0,57,57,57,,,,,,,,,,,,,,,,,,,,,,,,,,,,,,,,,,,,,,,,,,,299.4383139529964,None,2,0.3378508430032525,299.4383139529964,None,,,,,,,,,,,,,,,,None,None,None,,None,None,299.82219905301463,None,1,1,0.9365150230005383,299.82219905301463,None,300.7550755942211,None,None,None,None,,1,001,2023_Jan_17_1403,searchDisc5,2021.2.3,60.105050037836044,
images/exp1b_trial_300_colour3_distractors9_r.png,r,3,3,9,1,,,,,0,58,58,58,,,,,,,,,,,,,,,,,,,,,,,,,,,,,,,,,,,,,,,,,,,300.77163542600465,None,2,0.32082341899513267,300.77163542600465,None,,,,,,,,,,,,,,,,None,None,None,,None,None,301.1388858840219,None,3,1,0.7207338309963234,301.1388858840219,None,301.85515765119635,None,None,None,None,,1,001,2023_Jan_17_1403,searchDisc5,2021.2.3,60.105050037836044,
images/exp1b_trial_206_colour3_distractors31_r.png,r,3,3,31,1,,,,,0,59,59,59,,,,,,,,,,,,,,,,,,,,,,,,,,,,,,,,,,,,,,,,,,,301.8715381360089,None,2,0.2227683069941122,301.8715381360089,None,,,,,,,,,,,,,,,,None,None,None,,None,None,302.14110891800374,None,1,0,0.9474366240028758,302.14110891800374,None,303.08845742921403,None,None,None,None,,1,001,2023_Jan_17_1403,searchDisc5,2021.2.3,60.105050037836044,
images/exp1b_trial_84_colour2_distractors1_l.png,l,1,2,1,1,,,,,0,60,60,60,,,,,,,,,,,,,,,,,,,,,,,,,,,,,,,,,,,,,,,,,,,303.1048008330108,None,2,2.2046889439807273,303.1048008330108,None,,,,,,,,,,,,,,,,None,None,None,,None,None,305.35543115402106,None,1,1,1.1886011449969374,305.35543115402106,None,306.5385328442062,None,None,None,None,,1,001,2023_Jan_17_1403,searchDisc5,2021.2.3,60.105050037836044,
images/exp1b_trial_69_colour2_distractors1_r.png,r,3,2,1,1,,,,,0,61,61,61,,,,,,,,,,,,,,,,,,,,,,,,,,,,,,,,,,,,,,,,,,,306.5553160130221,None,2,0.42093483699136414,306.5553160130221,None,,,,,,,,,,,,,,,,None,None,None,,None,None,307.0241916170053,None,3,1,0.7739228539867327,307.0241916170053,None,307.78863119620655,None,None,None,None,,1,001,2023_Jan_17_1403,searchDisc5,2021.2.3,60.105050037836044,
images/exp1b_trial_102_colour2_distractors4_r.png,r,3,2,4,1,,,,,0,62,62,62,,,,,,,,,,,,,,,,,,,,,,,,,,,,,,,,,,,,,,,,,,,307.8073648560094,None,2,0.31909131599240936,307.8073648560094,None,,,,,,,,,,,,,,,,None,None,None,,None,None,308.17167528602295,None,3,1,0.6876764539920259,308.17167528602295,None,308.85533958619635,None,None,None,None,,1,001,2023_Jan_17_1403,searchDisc5,2021.2.3,60.105050037836044,
images/exp1b_trial_63_colour0_distractors0_l.png,l,1,0,0,1,,,,,0,63,63,63,,,,,,,,,,,,,,,,,,,,,,,,,,,,,,,,,,,,,,,,,,,308.8720427460212,None,2,0.3042313699843362,308.8720427460212,None,,,,,,,,,,,,,,,,None,None,None,,None,None,309.2222647390154,None,1,1,0.806940404989291,309.2222647390154,None,310.0223014232033,None,None,None,None,,1,001,2023_Jan_17_1403,searchDisc5,2021.2.3,60.105050037836044,
images/exp1b_trial_15_colour1_distractors1_l.png,l,1,1,1,1,,,,,0,64,64,64,,,,,,,,,,,,,,,,,,,,,,,,,,,,,,,,,,,,,,,,,,,310.0391532990034,None,2,0.33848783699795604,310.0391532990034,None,,,,,,,,,,,,,,,,None,None,None,,None,None,310.42439008899964,None,1,1,0.6535692409961484,310.42439008899964,None,311.0720254242042,None,None,None,None,,1,001,2023_Jan_17_1403,searchDisc5,2021.2.3,60.105050037836044,
images/exp1b_trial_188_colour3_distractors19_l.png,l,1,3,19,1,,,,,0,65,65,65,,,,,,,,,,,,,,,,,,,,,,,,,,,,,,,,,,,,,,,,,,,311.08867147401907,None,2,0.4565721190010663,311.08867147401907,None,,,,,,,,,,,,,,,,None,None,None,,None,None,311.589183019998,None,1,1,0.9167347080074251,311.589183019998,None,312.5051091041969,None,None,None,None,,1,001,2023_Jan_17_1403,searchDisc5,2021.2.3,60.105050037836044,
images/exp1b_trial_137_colour2_distractors31_r.png,r,3,2,31,1,,,,,0,66,66,66,,,,,,,,,,,,,,,,,,,,,,,,,,,,,,,,,,,,,,,,,,,312.521521289018,None,2,0.3875496049877256,312.521521289018,None,,,,,,,,,,,,,,,,None,None,None,,None,None,312.95770562501275,None,3,1,2.2532759360037744,312.95770562501275,None,315.20544385419635,None,None,None,None,,1,001,2023_Jan_17_1403,searchDisc5,2021.2.3,60.105050037836044,
images/exp1b_trial_254_colour0_distractors0_r.png,r,3,0,0,1,,,,,0,67,67,67,,,,,,,,,,,,,,,,,,,,,,,,,,,,,,,,,,,,,,,,,,,315.2218085050117,None,2,0.2878772960102651,315.2218085050117,None,,,,,,,,,,,,,,,,None,None,None,,None,None,315.5556670820224,None,3,1,2.021020537998993,315.5556670820224,None,317.5721251861978,None,None,None,None,,1,001,2023_Jan_17_1403,searchDisc5,2021.2.3,60.105050037836044,
images/exp1b_trial_184_colour2_distractors31_l.png,l,1,2,31,1,,,,,0,68,68,68,,,,,,,,,,,,,,,,,,,,,,,,,,,,,,,,,,,,,,,,,,,317.58852067100815,None,2,0.9421734790084884,317.58852067100815,None,,,,,,,,,,,,,,,,None,None,None,,None,None,318.57412696201936,None,1,1,1.2319821669952944,318.57412696201936,None,319.80577275720134,None,None,None,None,,1,001,2023_Jan_17_1403,searchDisc5,2021.2.3,60.105050037836044,
images/exp1b_trial_239_colour1_distractors1_l.png,l,1,1,1,1,,,,,0,69,69,69,,,,,,,,,,,,,,,,,,,,,,,,,,,,,,,,,,,,,,,,,,,319.8223518129962,None,2,0.5896140340191778,319.8223518129962,None,,,,,,,,,,,,,,,,None,None,None,,None,None,320.45745293900836,None,1,1,0.6039526280073915,320.45745293900836,None,321.0559296032152,None,None,None,None,,1,001,2023_Jan_17_1403,searchDisc5,2021.2.3,60.105050037836044,
images/exp1b_trial_236_colour3_distractors9_r.png,r,3,3,9,1,,,,,0,70,70,70,,,,,,,,,,,,,,,,,,,,,,,,,,,,,,,,,,,,,,,,,,,321.0742070880078,None,2,0.45429467398207635,321.0742070880078,None,,,,,,,,,,,,,,,,None,None,None,,None,None,321.57187717600027,None,3,1,1.3873009989911225,321.57187717600027,None,322.9557598921965,None,None,None,None,,1,001,2023_Jan_17_1403,searchDisc5,2021.2.3,60.105050037836044,
images/exp1b_trial_290_colour1_distractors9_r.png,r,3,1,9,1,,,,,0,71,71,71,,,,,,,,,,,,,,,,,,,,,,,,,,,,,,,,,,,,,,,,,,,322.9742694559973,None,2,0.354359769000439,322.9742694559973,None,,,,,,,,,,,,,,,,None,None,None,,None,None,323.3747726950096,None,3,1,1.353851902007591,323.3747726950096,None,324.7223304651998,None,None,None,None,,1,001,2023_Jan_17_1403,searchDisc5,2021.2.3,60.105050037836044,
images/exp1b_trial_309_colour2_distractors4_l.png,l,1,2,4,1,,,,,0,72,72,72,,,,,,,,,,,,,,,,,,,,,,,,,,,,,,,,,,,,,,,,,,,324.74088148601004,None,2,0.3211991440039128,324.74088148601004,None,,,,,,,,,,,,,,,,None,None,None,,None,None,325.10607138701016,None,1,1,1.221597488009138,325.10607138701016,None,326.3224355462153,None,None,None,None,,1,001,2023_Jan_17_1403,searchDisc5,2021.2.3,60.105050037836044,
images/exp1b_trial_135_colour2_distractors9_r.png,r,3,2,9,1,,,,,0,73,73,73,,,,,,,,,,,,,,,,,,,,,,,,,,,,,,,,,,,,,,,,,,,326.33914479101077,None,2,0.2898951350071002,326.33914479101077,None,,,,,,,,,,,,,,,,None,None,None,,None,None,326.6726803299971,None,3,1,0.8860932390089147,326.6726803299971,None,327.5559723662009,None,None,None,None,,1,001,2023_Jan_17_1403,searchDisc5,2021.2.3,60.105050037836044,
images/exp1b_trial_92_colour3_distractors19_l.png,l,1,3,19,1,,,,,0,74,74,74,,,,,,,,,,,,,,,,,,,,,,,,,,,,,,,,,,,,,,,,,,,327.57250275299884,None,2,0.32104374101618305,327.57250275299884,None,,,,,,,,,,,,,,,,None,None,None,,None,None,327.9396112130198,None,1,1,0.8848523000197019,327.9396112130198,None,328.8219641542091,None,None,None,None,,1,001,2023_Jan_17_1403,searchDisc5,2021.2.3,60.105050037836044,
images/exp1b_trial_263_colour2_distractors9_r.png,r,3,2,9,1,,,,,0,75,75,75,,,,,,,,,,,,,,,,,,,,,,,,,,,,,,,,,,,,,,,,,,,328.83946655201726,None,2,0.28848578000906855,328.83946655201726,None,,,,,,,,,,,,,,,,None,None,None,,None,None,329.17275921901455,None,3,1,0.9544169480213895,329.17275921901455,None,330.12270405922027,None,None,None,None,,1,001,2023_Jan_17_1403,searchDisc5,2021.2.3,60.105050037836044,
images/exp1b_trial_111_colour1_distractors1_l.png,l,1,1,1,1,,,,,0,76,76,76,,,,,,,,,,,,,,,,,,,,,,,,,,,,,,,,,,,,,,,,,,,330.13924009300536,None,2,0.32101008598692715,330.13924009300536,None,,,,,,,,,,,,,,,,None,None,None,,None,None,330.50592593100737,None,1,1,0.7718164859979879,330.50592593100737,None,331.272551132206,None,None,None,None,,1,001,2023_Jan_17_1403,searchDisc5,2021.2.3,60.105050037836044,
images/exp1b_trial_292_colour1_distractors31_r.png,r,3,1,31,1,,,,,0,77,77,77,,,,,,,,,,,,,,,,,,,,,,,,,,,,,,,,,,,,,,,,,,,331.2891619200236,None,2,0.3375007580034435,331.2891619200236,None,,,,,,,,,,,,,,,,None,None,None,,None,None,331.6728990720003,None,3,1,1.501073126011761,331.6728990720003,None,333.17264959220483,None,None,None,None,,1,001,2023_Jan_17_1403,searchDisc5,2021.2.3,60.105050037836044,
images/exp1b_trial_100_colour1_distractors31_r.png,r,3,1,31,1,,,,,0,78,78,78,,,,,,,,,,,,,,,,,,,,,,,,,,,,,,,,,,,,,,,,,,,333.19110181200085,None,2,0.28778072600835003,333.19110181200085,None,,,,,,,,,,,,,,,,None,None,None,,None,None,333.5230903790216,None,3,1,0.9175058770051692,333.5230903790216,None,334.4393517481949,None,None,None,None,,1,001,2023_Jan_17_1403,searchDisc5,2021.2.3,60.105050037836044,
images/exp1b_trial_154_colour3_distractors4_l.png,l,1,3,4,1,,,,,0,79,79,79,,,,,,,,,,,,,,,,,,,,,,,,,,,,,,,,,,,,,,,,,,,334.4552793340117,None,2,0.24027062999084592,334.4552793340117,None,,,,,,,,,,,,,,,,None,None,None,,None,None,334.73945670900866,None,1,1,1.2020114790066145,334.73945670900866,None,335.9391936822067,None,None,None,None,,1,001,2023_Jan_17_1403,searchDisc5,2021.2.3,60.105050037836044,
images/exp1b_trial_200_colour2_distractors19_r.png,r,3,2,19,1,,,,,0,80,80,80,,,,,,,,,,,,,,,,,,,,,,,,,,,,,,,,,,,,,,,,,,,335.9582048029988,None,2,0.27131928500602953,335.9582048029988,None,,,,,,,,,,,,,,,,None,None,None,,None,None,336.2728170060145,None,3,1,1.0202850839996245,336.2728170060145,None,337.28934570720594,None,None,None,None,,1,001,2023_Jan_17_1403,searchDisc5,2021.2.3,60.105050037836044,
images/exp1b_trial_126_colour0_distractors0_r.png,r,3,0,0,1,,,,,0,81,81,81,,,,,,,,,,,,,,,,,,,,,,,,,,,,,,,,,,,,,,,,,,,337.30612849700265,None,2,0.22285792001639493,337.30612849700265,None,,,,,,,,,,,,,,,,None,None,None,,None,None,337.5752198800037,None,3,1,0.6541488410148304,337.5752198800037,None,338.2227847342001,None,None,None,None,,1,001,2023_Jan_17_1403,searchDisc5,2021.2.3,60.105050037836044,
images/exp1b_trial_209_colour1_distractors9_l.png,l,1,1,9,1,,,,,0,82,82,82,,,,,,,,,,,,,,,,,,,,,,,,,,,,,,,,,,,,,,,,,,,338.2394213360094,None,2,0.2542872980120592,338.2394213360094,None,,,,,,,,,,,,,,,,None,None,None,,None,None,338.53895168702,None,1,1,0.6870228610059712,338.53895168702,None,339.2229247022042,None,None,None,None,,1,001,2023_Jan_17_1403,searchDisc5,2021.2.3,60.105050037836044,
images/exp1b_trial_112_colour1_distractors4_l.png,l,1,1,4,1,,,,,0,83,83,83,,,,,,,,,,,,,,,,,,,,,,,,,,,,,,,,,,,,,,,,,,,339.23931649600854,None,2,0.239584321010625,339.23931649600854,None,,,,,,,,,,,,,,,,None,None,None,,None,None,339.52222712599905,None,1,1,0.7361578469863161,339.52222712599905,None,340.2562442562048,None,None,None,None,,1,001,2023_Jan_17_1403,searchDisc5,2021.2.3,60.105050037836044,
images/exp1b_trial_264_colour2_distractors19_r.png,r,3,2,19,1,,,,,0,84,84,84,,,,,,,,,,,,,,,,,,,,,,,,,,,,,,,,,,,,,,,,,,,340.2727550660202,None,2,0.22218640401843004,340.2727550660202,None,,,,,,,,,,,,,,,,None,None,None,,None,None,340.5417563439987,None,3,1,1.1006565120187588,340.5417563439987,None,341.63928661121463,None,None,None,None,,1,001,2023_Jan_17_1403,searchDisc5,2021.2.3,60.105050037836044,
images/exp1b_trial_99_colour1_distractors19_r.png,r,3,1,19,1,,,,,0,85,85,85,,,,,,,,,,,,,,,,,,,,,,,,,,,,,,,,,,,,,,,,,,,341.65826987702167,None,2,0.2070457880035974,341.65826987702167,None,,,,,,,,,,,,,,,,None,None,None,,None,None,341.90597777601215,None,3,1,1.1172663299948908,341.90597777601215,None,343.02293978519447,None,None,None,None,,1,001,2023_Jan_17_1403,searchDisc5,2021.2.3,60.105050037836044,
images/exp1b_trial_226_colour1_distractors9_r.png,r,3,1,9,1,,,,,0,86,86,86,,,,,,,,,,,,,,,,,,,,,,,,,,,,,,,,,,,,,,,,,,,343.04126781001105,None,2,0.22151017101714388,343.04126781001105,None,,,,,,,,,,,,,,,,None,None,None,,None,None,343.3066030940099,None,3,1,1.0855817449919414,343.3066030940099,None,344.38983437120623,None,None,None,None,,1,001,2023_Jan_17_1403,searchDisc5,2021.2.3,60.105050037836044,
images/exp1b_trial_140_colour3_distractors9_r.png,r,3,3,9,1,,,,,0,87,87,87,,,,,,,,,,,,,,,,,,,,,,,,,,,,,,,,,,,,,,,,,,,344.40629383400665,None,2,0.22302709001814947,344.40629383400665,None,,,,,,,,,,,,,,,,None,None,None,,None,None,344.6730876810034,None,3,1,0.9351726270106155,344.6730876810034,None,345.60668306621665,None,None,None,None,,1,001,2023_Jan_17_1403,searchDisc5,2021.2.3,60.105050037836044,
images/exp1b_trial_190_colour0_distractors0_r.png,r,3,0,0,1,,,,,0,88,88,88,,,,,,,,,,,,,,,,,,,,,,,,,,,,,,,,,,,,,,,,,,,345.6231127330102,None,2,0.23722060900763609,345.6231127330102,None,,,,,,,,,,,,,,,,None,None,None,,None,None,345.9066364559985,None,3,1,0.6891872790001798,345.9066364559985,None,346.58980517419695,None,None,None,None,,1,001,2023_Jan_17_1403,searchDisc5,2021.2.3,60.105050037836044,
images/exp1b_trial_138_colour3_distractors1_r.png,r,3,3,1,1,,,,,0,89,89,89,,,,,,,,,,,,,,,,,,,,,,,,,,,,,,,,,,,,,,,,,,,346.60847807701793,None,2,0.254412525013322,346.60847807701793,None,,,,,,,,,,,,,,,,None,None,None,,None,None,346.9065765090054,None,3,1,0.9055560590059031,346.9065765090054,None,347.806304937214,None,None,None,None,,1,001,2023_Jan_17_1403,searchDisc5,2021.2.3,60.105050037836044,
images/exp1b_trial_3_colour1_distractors19_r.png,r,3,1,19,1,,,,,0,90,90,90,,,,,,,,,,,,,,,,,,,,,,,,,,,,,,,,,,,,,,,,,,,347.824428212014,None,2,0.2546818760165479,347.824428212014,None,,,,,,,,,,,,,,,,None,None,None,,None,None,348.1226439420134,None,3,1,0.8019015940080862,348.1226439420134,None,348.92308394522115,None,None,None,None,,1,001,2023_Jan_17_1403,searchDisc5,2021.2.3,60.105050037836044,
images/exp1b_trial_285_colour3_distractors31_l.png,l,1,3,31,1,,,,,0,91,91,91,,,,,,,,,,,,,,,,,,,,,,,,,,,,,,,,,,,,,,,,,,,348.9398336239974,None,2,0.20659408697974868,348.9398336239974,None,,,,,,,,,,,,,,,,None,None,None,,None,None,349.19165139301913,None,1,1,1.500324324995745,349.19165139301913,None,350.6897904182115,None,None,None,None,,1,001,2023_Jan_17_1403,searchDisc5,2021.2.3,60.105050037836044,
images/exp1b_trial_142_colour3_distractors31_r.png,r,3,3,31,1,,,,,0,92,92,92,,,,,,,,,,,,,,,,,,,,,,,,,,,,,,,,,,,,,,,,,,,350.7062598199991,None,2,0.2542736989853438,350.7062598199991,None,,,,,,,,,,,,,,,,None,None,None,,None,None,351.00682184501784,None,3,1,0.8704479449952487,351.00682184501784,None,351.87339823720686,None,None,None,None,,1,001,2023_Jan_17_1403,searchDisc5,2021.2.3,60.105050037836044,
images/exp1b_trial_81_colour1_distractors9_l.png,l,1,1,9,1,,,,,0,93,93,93,,,,,,,,,,,,,,,,,,,,,,,,,,,,,,,,,,,,,,,,,,,351.8893922280113,None,2,0.269168834987795,351.8893922280113,None,,,,,,,,,,,,,,,,None,None,None,,None,None,352.2064758420165,None,1,1,0.8543219289858826,352.2064758420165,None,353.0564094212168,None,None,None,None,,1,001,2023_Jan_17_1403,searchDisc5,2021.2.3,60.105050037836044,
images/exp1b_trial_106_colour3_distractors1_r.png,r,3,3,1,1,,,,,0,94,94,94,,,,,,,,,,,,,,,,,,,,,,,,,,,,,,,,,,,,,,,,,,,353.07475298500503,None,2,0.28793915497954004,353.07475298500503,None,,,,,,,,,,,,,,,,None,None,None,,None,None,353.4066239820095,None,3,1,0.6717687700001989,353.4066239820095,None,354.0730956542102,None,None,None,None,,1,001,2023_Jan_17_1403,searchDisc5,2021.2.3,60.105050037836044,
images/exp1b_trial_44_colour3_distractors9_r.png,r,3,3,9,1,,,,,0,95,95,95,,,,,,,,,,,,,,,,,,,,,,,,,,,,,,,,,,,,,,,,,,,354.08905112301,None,2,0.2714230569836218,354.08905112301,None,,,,,,,,,,,,,,,,None,None,None,,None,None,354.4090956080181,None,3,1,0.7539168600051198,354.4090956080181,None,355.1567080142122,None,None,None,None,,1,001,2023_Jan_17_1403,searchDisc5,2021.2.3,60.105050037836044,
images/exp1b_trial_128_colour1_distractors1_r.png,r,3,1,1,1,,,,,0,96,96,96,,,,,,,,,,,,,,,,,,,,,,,,,,,,,,,,,,,,,,,,,,,355.17322566499934,None,2,0.2711258950002957,355.17322566499934,None,,,,,,,,,,,,,,,,None,None,None,,None,None,355.490009576024,None,3,1,0.7052372499892954,355.490009576024,None,356.1899123132025,None,None,None,None,,1,001,2023_Jan_17_1403,searchDisc5,2021.2.3,60.105050037836044,
images/exp1b_trial_205_colour3_distractors19_r.png,r,3,3,19,1,,,,,0,97,97,97,,,,,,,,,,,,,,,,,,,,,,,,,,,,,,,,,,,,,,,,,,,356.20661264500814,None,2,0.2399337080132682,356.20661264500814,None,,,,,,,,,,,,,,,,None,None,None,,None,None,356.4899019470031,None,3,1,1.535198173020035,356.4899019470031,None,358.0232700562192,None,None,None,None,,1,001,2023_Jan_17_1403,searchDisc5,2021.2.3,60.105050037836044,
images/exp1b_trial_217_colour3_distractors1_l.png,l,1,3,1,1,,,,,0,98,98,98,,,,,,,,,,,,,,,,,,,,,,,,,,,,,,,,,,,,,,,,,,,358.04187135302345,None,2,0.2856755509856157,358.04187135302345,None,,,,,,,,,,,,,,,,None,None,None,,None,None,358.3737157100113,None,1,1,0.8221037210023496,358.3737157100113,None,359.190292953208,None,None,None,None,,1,001,2023_Jan_17_1403,searchDisc5,2021.2.3,60.105050037836044,
images/exp1b_trial_283_colour3_distractors9_l.png,l,1,3,9,1,,,,,0,99,99,99,,,,,,,,,,,,,,,,,,,,,,,,,,,,,,,,,,,,,,,,,,,359.2067001319956,None,2,0.48961213999427855,359.2067001319956,None,,,,,,,,,,,,,,,,None,None,None,,None,None,359.74225455202395,None,1,1,1.351979663973907,359.74225455202395,None,361.09022772721073,None,None,None,None,,1,001,2023_Jan_17_1403,searchDisc5,2021.2.3,60.105050037836044,
images/exp1b_trial_225_colour1_distractors4_r.png,r,3,1,4,1,,,,,0,100,100,100,,,,,,,,,,,,,,,,,,,,,,,,,,,,,,,,,,,,,,,,,,,361.10848399202223,None,2,0.3377412320114672,361.10848399202223,None,,,,,,,,,,,,,,,,None,None,None,,None,None,361.49241374401026,None,3,1,0.721495245990809,361.49241374401026,None,362.2068170042039,None,None,None,None,,1,001,2023_Jan_17_1403,searchDisc5,2021.2.3,60.105050037836044,
images/exp1b_trial_83_colour1_distractors31_l.png,l,1,1,31,1,,,,,0,101,101,101,,,,,,,,,,,,,,,,,,,,,,,,,,,,,,,,,,,,,,,,,,,362.2232549050241,None,2,0.22379675201955251,362.2232549050241,None,,,,,,,,,,,,,,,,None,None,None,,None,None,362.4918260370032,None,1,1,1.2150260730122682,362.4918260370032,None,363.70681756820704,None,None,None,None,,1,001,2023_Jan_17_1403,searchDisc5,2021.2.3,60.105050037836044,
images/exp1b_trial_65_colour1_distractors4_r.png,r,3,1,4,1,,,,,0,102,102,102,,,,,,,,,,,,,,,,,,,,,,,,,,,,,,,,,,,,,,,,,,,363.72273099201266,None,2,0.30431402300018817,363.72273099201266,None,,,,,,,,,,,,,,,,None,None,None,,None,None,364.07340491900686,None,3,1,0.6213621129863895,364.07340491900686,None,364.6903579612117,None,None,None,None,,1,001,2023_Jan_17_1403,searchDisc5,2021.2.3,60.105050037836044,
images/exp1b_trial_219_colour3_distractors9_l.png,l,1,3,9,1,,,,,0,103,103,103,,,,,,,,,,,,,,,,,,,,,,,,,,,,,,,,,,,,,,,,,,,364.70681697901455,None,2,0.23984930399456061,364.70681697901455,None,,,,,,,,,,,,,,,,None,None,None,,None,None,364.9925213759998,None,1,1,1.2351702140003908,364.9925213759998,None,366.22350735119835,None,None,None,None,,1,001,2023_Jan_17_1403,searchDisc5,2021.2.3,60.105050037836044,
images/exp1b_trial_110_colour3_distractors31_r.png,r,3,3,31,1,,,,,0,104,104,104,,,,,,,,,,,,,,,,,,,,,,,,,,,,,,,,,,,,,,,,,,,366.24009279100574,None,2,0.2563694810087327,366.24009279100574,None,,,,,,,,,,,,,,,,None,None,None,,None,None,366.5401244960085,None,3,1,1.7835712009982672,366.5401244960085,None,368.3235029082134,None,None,None,None,,1,001,2023_Jan_17_1403,searchDisc5,2021.2.3,60.105050037836044,
images/exp1b_trial_176_colour1_distractors4_l.png,l,1,1,4,1,,,,,0,105,105,105,,,,,,,,,,,,,,,,,,,,,,,,,,,,,,,,,,,,,,,,,,,368.3403432180057,None,2,0.22127532001468353,368.3403432180057,None,,,,,,,,,,,,,,,,None,None,None,,None,None,368.6084909570054,None,1,1,0.7885292650025804,368.6084909570054,None,369.39025309220597,None,None,None,None,,1,001,2023_Jan_17_1403,searchDisc5,2021.2.3,60.105050037836044,
images/exp1b_trial_45_colour3_distractors19_r.png,r,3,3,19,1,,,,,0,106,106,106,,,,,,,,,,,,,,,,,,,,,,,,,,,,,,,,,,,,,,,,,,,369.40710542100715,None,2,0.18780515299295075,369.40710542100715,None,,,,,,,,,,,,,,,,None,None,None,,None,None,369.6428617850179,None,3,1,0.7839876489888411,369.6428617850179,None,370.4233753422013,None,None,None,None,,1,001,2023_Jan_17_1403,searchDisc5,2021.2.3,60.105050037836044,
images/exp1b_trial_224_colour1_distractors1_r.png,r,3,1,1,1,,,,,0,107,107,107,,,,,,,,,,,,,,,,,,,,,,,,,,,,,,,,,,,,,,,,,,,370.44028065601015,None,2,0.15545130299869925,370.44028065601015,None,,,,,,,,,,,,,,,,None,None,None,,None,None,370.64058750102413,None,3,1,0.9214084659761284,370.64058750102413,None,371.55705340420536,None,None,None,None,,1,001,2023_Jan_17_1403,searchDisc5,2021.2.3,60.105050037836044,
images/exp1b_trial_13_colour3_distractors19_r.png,r,3,3,19,1,,,,,0,108,108,108,,,,,,,,,,,,,,,,,,,,,,,,,,,,,,,,,,,,,,,,,,,371.57532178002293,None,2,0.13779092201730236,371.57532178002293,None,,,,,,,,,,,,,,,,None,None,None,,None,None,371.7587426280079,None,3,1,1.5682832489837892,371.7587426280079,None,373.3231234372215,None,None,None,None,,1,001,2023_Jan_17_1403,searchDisc5,2021.2.3,60.105050037836044,
images/exp1b_trial_218_colour3_distractors4_l.png,l,1,3,4,1,,,,,0,109,109,109,,,,,,,,,,,,,,,,,,,,,,,,,,,,,,,,,,,,,,,,,,,373.34051726802136,None,2,0.22399681201204658,373.34051726802136,None,,,,,,,,,,,,,,,,None,None,None,,None,None,373.6094363510201,None,1,1,0.6858351429982577,373.6094363510201,None,374.2903665051999,None,None,None,None,,1,001,2023_Jan_17_1403,searchDisc5,2021.2.3,60.105050037836044,
images/exp1b_trial_10_colour3_distractors1_r.png,r,3,3,1,1,,,,,0,110,110,110,,,,,,,,,,,,,,,,,,,,,,,,,,,,,,,,,,,,,,,,,,,374.3085392060166,None,2,0.2545388849976007,374.3085392060166,None,,,,,,,,,,,,,,,,None,None,None,,None,None,374.6074186710175,None,3,1,0.5884078170056455,374.6074186710175,None,375.1902960091975,None,None,None,None,,1,001,2023_Jan_17_1403,searchDisc5,2021.2.3,60.105050037836044,
images/exp1b_trial_302_colour3_distractors31_r.png,r,3,3,31,1,,,,,0,111,111,111,,,,,,,,,,,,,,,,,,,,,,,,,,,,,,,,,,,,,,,,,,,375.2064906989981,None,2,0.2421096689940896,375.2064906989981,None,,,,,,,,,,,,,,,,None,None,None,,None,None,375.4928850849974,None,3,1,1.7812762729881797,375.4928850849974,None,377.2738248442038,None,None,None,None,,1,001,2023_Jan_17_1403,searchDisc5,2021.2.3,60.105050037836044,
images/exp1b_trial_64_colour1_distractors1_r.png,r,3,1,1,1,,,,,0,112,112,112,,,,,,,,,,,,,,,,,,,,,,,,,,,,,,,,,,,,,,,,,,,377.2902530959982,None,2,0.2399645549885463,377.2902530959982,None,,,,,,,,,,,,,,,,None,None,None,,None,None,377.5742034630093,None,3,1,0.8702764349873178,377.5742034630093,None,378.44080537620175,None,None,None,None,,1,001,2023_Jan_17_1403,searchDisc5,2021.2.3,60.105050037836044,
images/exp1b_trial_59_colour3_distractors9_l.png,l,1,3,9,1,,,,,0,113,113,113,,,,,,,,,,,,,,,,,,,,,,,,,,,,,,,,,,,,,,,,,,,378.45947213302134,None,2,0.17261494899867103,378.45947213302134,None,,,,,,,,,,,,,,,,None,None,None,,None,None,378.6762587480189,None,1,1,1.6867448920093011,378.6762587480189,None,380.35730869420513,None,None,None,None,,1,001,2023_Jan_17_1403,searchDisc5,2021.2.3,60.105050037836044,
images/exp1b_trial_158_colour0_distractors0_r.png,r,3,0,0,1,,,,,0,114,114,114,,,,,,,,,,,,,,,,,,,,,,,,,,,,,,,,,,,,,,,,,,,380.3755082580028,None,2,0.46920767999836244,380.3755082580028,None,,,,,,,,,,,,,,,,None,None,None,,None,None,380.8908863310062,None,3,1,0.6235103310027625,380.8908863310062,None,381.5073662391951,None,None,None,None,,1,001,2023_Jan_17_1403,searchDisc5,2021.2.3,60.105050037836044,
images/exp1b_trial_220_colour3_distractors19_l.png,l,1,3,19,1,,,,,0,115,115,115,,,,,,,,,,,,,,,,,,,,,,,,,,,,,,,,,,,,,,,,,,,381.52352006800356,None,2,0.2216202770068776,381.52352006800356,None,,,,,,,,,,,,,,,,None,None,None,,None,None,381.7922639110184,None,1,1,1.0997232790105045,381.7922639110184,None,382.89081292921037,None,None,None,None,,1,001,2023_Jan_17_1403,searchDisc5,2021.2.3,60.105050037836044,
images/exp1b_trial_269_colour3_distractors19_r.png,r,3,3,19,1,,,,,0,116,116,116,,,,,,,,,,,,,,,,,,,,,,,,,,,,,,,,,,,,,,,,,,,382.90940209600376,None,2,0.20657623701845296,382.90940209600376,None,,,,,,,,,,,,,,,,None,None,None,,None,None,383.157035398006,None,3,1,0.8830136870092247,383.157035398006,None,384.04081346020394,None,None,None,None,,1,001,2023_Jan_17_1403,searchDisc5,2021.2.3,60.105050037836044,
images/exp1b_trial_163_colour1_distractors19_r.png,r,3,1,19,1,,,,,0,117,117,117,,,,,,,,,,,,,,,,,,,,,,,,,,,,,,,,,,,,,,,,,,,384.0573603170051,None,2,0.17101631400873885,384.0573603170051,None,,,,,,,,,,,,,,,,None,None,None,,None,None,384.2764306690078,None,1,0,1.2523048449947964,384.2764306690078,None,385.5240409672115,None,None,None,None,,1,001,2023_Jan_17_1403,searchDisc5,2021.2.3,60.105050037836044,
images/exp1b_trial_268_colour3_distractors9_r.png,r,3,3,9,1,,,,,0,118,118,118,,,,,,,,,,,,,,,,,,,,,,,,,,,,,,,,,,,,,,,,,,,385.54058985901065,None,2,0.3044322330097202,385.54058985901065,None,,,,,,,,,,,,,,,,None,None,None,,None,None,385.8904609080055,None,3,1,1.253073689993471,385.8904609080055,None,387.1400674691977,None,None,None,None,,1,001,2023_Jan_17_1403,searchDisc5,2021.2.3,60.105050037836044,
images/exp1b_trial_156_colour3_distractors19_l.png,l,1,3,19,1,,,,,0,119,119,119,,,,,,,,,,,,,,,,,,,,,,,,,,,,,,,,,,,,,,,,,,,387.15758338800515,None,2,0.3552359379827976,387.15758338800515,None,,,,,,,,,,,,,,,,None,None,None,,None,None,387.55764699701103,None,1,1,1.0024350840249099,387.55764699701103,None,388.55762477319513,None,None,None,None,,1,001,2023_Jan_17_1403,searchDisc5,2021.2.3,60.105050037836044,
images/exp1b_trial_171_colour3_distractors4_r.png,r,3,3,4,1,,,,,0,120,120,120,,,,,,,,,,,,,,,,,,,,,,,,,,,,,,,,,,,,,,,,,,,388.5738041810109,None,2,0.28763894899748266,388.5738041810109,None,,,,,,,,,,,,,,,,None,None,None,,None,None,388.907529796008,None,3,1,1.0546484449878335,388.907529796008,None,389.9576367682166,None,None,None,None,,1,001,2023_Jan_17_1403,searchDisc5,2021.2.3,60.105050037836044,
images/exp1b_trial_315_colour3_distractors9_l.png,l,1,3,9,1,,,,,0,121,121,121,,,,,,,,,,,,,,,,,,,,,,,,,,,,,,,,,,,,,,,,,,,389.9759063149977,None,2,0.2711261759977788,389.9759063149977,None,,,,,,,,,,,,,,,,None,None,None,,None,None,390.2910604450153,None,1,1,0.8862920269893948,390.2910604450153,None,391.17438302720257,None,None,None,None,,1,001,2023_Jan_17_1403,searchDisc5,2021.2.3,60.105050037836044,
images/exp1b_trial_210_colour1_distractors19_l.png,l,1,1,19,1,,,,,0,122,122,122,,,,,,,,,,,,,,,,,,,,,,,,,,,,,,,,,,,,,,,,,,,391.1904827010003,None,2,0.25428287498652935,391.1904827010003,None,,,,,,,,,,,,,,,,None,None,None,,None,None,391.49121906701475,None,1,1,0.8185035369824618,391.49121906701475,None,392.3077291992231,None,None,None,None,,1,001,2023_Jan_17_1403,searchDisc5,2021.2.3,60.105050037836044,
images/exp1b_trial_271_colour1_distractors1_l.png,l,1,1,1,1,,,,,0,123,123,123,,,,,,,,,,,,,,,,,,,,,,,,,,,,,,,,,,,,,,,,,,,392.324345541012,None,2,0.2540768299950287,392.324345541012,None,,,,,,,,,,,,,,,,None,None,None,,None,None,392.62452659002156,None,1,1,0.7721113620209508,392.62452659002156,None,393.39089321721985,None,None,None,None,,1,001,2023_Jan_17_1403,searchDisc5,2021.2.3,60.105050037836044,
images/exp1b_trial_252_colour3_distractors19_l.png,l,1,3,19,1,,,,,0,124,124,124,,,,,,,,,,,,,,,,,,,,,,,,,,,,,,,,,,,,,,,,,,,393.40766007002094,None,2,0.23990333700203337,393.40766007002094,None,,,,,,,,,,,,,,,,None,None,None,,None,None,393.69317630000296,None,1,1,1.4172431720071472,393.69317630000296,None,395.1076082552172,None,None,None,None,,1,001,2023_Jan_17_1403,searchDisc5,2021.2.3,60.105050037836044,
images/exp1b_trial_0_colour1_distractors1_r.png,r,3,1,1,1,,,,,0,125,125,125,,,,,,,,,,,,,,,,,,,,,,,,,,,,,,,,,,,,,,,,,,,395.12435050000204,None,2,0.23737830700702034,395.12435050000204,None,,,,,,,,,,,,,,,,None,None,None,,None,None,395.40785650501493,None,1,0,0.6893740659870673,395.40785650501493,None,396.09106344119937,None,None,None,None,,1,001,2023_Jan_17_1403,searchDisc5,2021.2.3,60.105050037836044,
images/exp1b_trial_222_colour0_distractors0_r.png,r,3,0,0,1,,,,,0,126,126,126,,,,,,,,,,,,,,,,,,,,,,,,,,,,,,,,,,,,,,,,,,,396.1094171279983,None,2,2.571330359001877,396.1094171279983,None,,,,,,,,,,,,,,,,None,None,None,,None,None,398.72673833402223,None,3,1,0.5551265680114739,398.72673833402223,None,399.27442111719574,None,None,None,None,,1,001,2023_Jan_17_1403,searchDisc5,2021.2.3,60.105050037836044,
images/exp1b_trial_145_colour1_distractors9_l.png,l,1,1,9,1,,,,,0,127,127,127,,,,,,,,,,,,,,,,,,,,,,,,,,,,,,,,,,,,,,,,,,,399.2909644040046,None,2,0.7886941329925321,399.2909644040046,None,,,,,,,,,,,,,,,,None,None,None,,None,None,400.1268190550036,None,1,1,1.1036830090160947,400.1268190550036,None,401.22439724720607,None,None,None,None,,1,001,2023_Jan_17_1403,searchDisc5,2021.2.3,60.105050037836044,
images/exp1b_trial_67_colour1_distractors19_r.png,r,3,1,19,1,,,,,0,128,128,128,,,,,,,,,,,,,,,,,,,,,,,,,,,,,,,,,,,,,,,,,,,401.24280903700856,None,2,0.4078279290115461,401.24280903700856,None,,,,,,,,,,,,,,,,None,None,None,,None,None,401.6934973169991,None,3,1,0.6827015669841785,401.6934973169991,None,402.37444273421715,None,None,None,None,,1,001,2023_Jan_17_1403,searchDisc5,2021.2.3,60.105050037836044,
images/exp1b_trial_132_colour1_distractors31_r.png,r,3,1,31,1,,,,,0,129,129,129,,,,,,,,,,,,,,,,,,,,,,,,,,,,,,,,,,,,,,,,,,,402.3932097800134,None,2,0.2710231999808457,402.3932097800134,None,,,,,,,,,,,,,,,,None,None,None,,None,None,402.70803634400363,None,3,1,1.0184046390058938,402.70803634400363,None,403.7245751592127,None,None,None,None,,1,001,2023_Jan_17_1403,searchDisc5,2021.2.3,60.105050037836044,
images/exp1b_trial_96_colour1_distractors1_r.png,r,3,1,1,1,,,,,0,130,130,130,,,,,,,,,,,,,,,,,,,,,,,,,,,,,,,,,,,,,,,,,,,403.7411641710205,None,2,0.2545123150048312,403.7411641710205,None,,,,,,,,,,,,,,,,None,None,None,,None,None,404.041360393021,None,3,1,0.7220578709966503,404.041360393021,None,404.75792181921133,None,None,None,None,,1,001,2023_Jan_17_1403,searchDisc5,2021.2.3,60.105050037836044,
images/exp1b_trial_281_colour3_distractors1_l.png,l,1,3,1,1,,,,,0,131,131,131,,,,,,,,,,,,,,,,,,,,,,,,,,,,,,,,,,,,,,,,,,,404.7745025450131,None,2,0.20449044401175343,404.7745025450131,None,,,,,,,,,,,,,,,,None,None,None,,None,None,405.02694415699807,None,1,1,0.7217091700003948,405.02694415699807,None,405.74132522819855,None,None,None,None,,1,001,2023_Jan_17_1403,searchDisc5,2021.2.3,60.105050037836044,
images/exp1b_trial_24_colour2_distractors31_l.png,l,1,2,31,1,,,,,0,132,132,132,,,,,,,,,,,,,,,,,,,,,,,,,,,,,,,,,,,,,,,,,,,405.7579460630077,None,2,0.2878272520028986,405.7579460630077,None,,,,,,,,,,,,,,,,None,None,None,,None,None,406.09141472302144,None,1,1,1.6864007489930373,406.09141472302144,None,407.77466701921367,None,None,None,None,,1,001,2023_Jan_17_1403,searchDisc5,2021.2.3,60.105050037836044,
images/exp1b_trial_270_colour3_distractors31_r.png,r,3,3,31,1,,,,,0,133,133,133,,,,,,,,,,,,,,,,,,,,,,,,,,,,,,,,,,,,,,,,,,,407.79131040899665,None,2,0.5545966400241014,407.79131040899665,None,,,,,,,,,,,,,,,,None,None,None,,None,None,408.3929653039959,None,3,1,1.0679758030164521,408.3929653039959,None,409.45822057720216,None,None,None,None,,1,001,2023_Jan_17_1403,searchDisc5,2021.2.3,60.105050037836044,
images/exp1b_trial_60_colour3_distractors19_l.png,l,1,3,19,1,,,,,0,134,134,134,,,,,,,,,,,,,,,,,,,,,,,,,,,,,,,,,,,,,,,,,,,409.47479503200157,None,2,0.32240950100822374,409.47479503200157,None,,,,,,,,,,,,,,,,None,None,None,,None,None,409.841864697024,None,1,1,1.916835958021693,409.841864697024,None,411.7582577822177,None,None,None,None,,1,001,2023_Jan_17_1403,searchDisc5,2021.2.3,60.105050037836044,
images/exp1b_trial_238_colour3_distractors31_r.png,r,3,3,31,1,,,,,0,135,135,135,,,,,,,,,,,,,,,,,,,,,,,,,,,,,,,,,,,,,,,,,,,411.7747619370057,None,2,0.32105223898543045,411.7747619370057,None,,,,,,,,,,,,,,,,None,None,None,,None,None,412.1417060730164,None,3,1,1.751702273992123,412.1417060730164,None,413.891459303195,None,None,None,None,,1,001,2023_Jan_17_1403,searchDisc5,2021.2.3,60.105050037836044,
images/exp1b_trial_193_colour1_distractors4_r.png,r,3,1,4,1,,,,,0,136,136,136,,,,,,,,,,,,,,,,,,,,,,,,,,,,,,,,,,,,,,,,,,,413.90823013099725,None,2,0.22236935602268204,413.90823013099725,None,,,,,,,,,,,,,,,,None,None,None,,None,None,414.17705948802177,None,3,1,0.7367724830110092,414.17705948802177,None,414.9083490132034,None,None,None,None,,1,001,2023_Jan_17_1403,searchDisc5,2021.2.3,60.105050037836044,
images/exp1b_trial_175_colour1_distractors1_l.png,l,1,1,1,1,,,,,0,137,137,137,,,,,,,,,,,,,,,,,,,,,,,,,,,,,,,,,,,,,,,,,,,414.92450027301675,None,2,0.222723970975494,414.92450027301675,None,,,,,,,,,,,,,,,,None,None,None,,None,None,415.19367165499716,None,1,1,0.7699296220089309,415.19367165499716,None,415.9582557122194,None,None,None,None,,1,001,2023_Jan_17_1403,searchDisc5,2021.2.3,60.105050037836044,
images/exp1b_trial_179_colour1_distractors31_l.png,l,1,1,31,1,,,,,0,138,138,138,,,,,,,,,,,,,,,,,,,,,,,,,,,,,,,,,,,,,,,,,,,415.9765449340048,None,2,0.32153436599764973,415.9765449340048,None,,,,,,,,,,,,,,,,None,None,None,,None,None,416.34166356999776,None,1,1,0.7515151379921008,416.34166356999776,None,417.0917916662147,None,None,None,None,,1,001,2023_Jan_17_1403,searchDisc5,2021.2.3,60.105050037836044,
images/exp1b_trial_289_colour1_distractors4_r.png,r,3,1,4,1,,,,,0,139,139,139,,,,,,,,,,,,,,,,,,,,,,,,,,,,,,,,,,,,,,,,,,,417.11047327000415,None,2,0.23751171000185423,417.11047327000415,None,,,,,,,,,,,,,,,,None,None,None,,None,None,417.39185805700254,None,3,1,0.6713988480041735,417.39185805700254,None,418.0584080712142,None,None,None,None,,1,001,2023_Jan_17_1403,searchDisc5,2021.2.3,60.105050037836044,
images/exp1b_trial_117_colour2_distractors4_l.png,l,1,2,4,1,,,,,0,140,140,140,,,,,,,,,,,,,,,,,,,,,,,,,,,,,,,,,,,,,,,,,,,418.0749600820127,None,2,0.24173835999681614,418.0749600820127,None,,,,,,,,,,,,,,,,None,None,None,,None,None,418.36061472899746,None,1,1,0.901051232998725,418.36061472899746,None,419.25829549921036,None,None,None,None,,1,001,2023_Jan_17_1403,searchDisc5,2021.2.3,60.105050037836044,
images/exp1b_trial_71_colour2_distractors9_r.png,r,3,2,9,1,,,,,0,141,141,141,,,,,,,,,,,,,,,,,,,,,,,,,,,,,,,,,,,,,,,,,,,419.27450257501914,None,2,0.2713523820275441,419.27450257501914,None,,,,,,,,,,,,,,,,None,None,None,,None,None,419.5915922099957,None,3,1,0.6866610549914185,419.5915922099957,None,420.27495522821846,None,None,None,None,,1,001,2023_Jan_17_1403,searchDisc5,2021.2.3,60.105050037836044,
images/exp1b_trial_101_colour2_distractors1_r.png,r,3,2,1,1,,,,,0,142,142,142,,,,,,,,,,,,,,,,,,,,,,,,,,,,,,,,,,,,,,,,,,,420.2914946380188,None,2,0.25659506299416535,420.2914946380188,None,,,,,,,,,,,,,,,,None,None,None,,None,None,420.59392327500973,None,3,1,0.7193694960151333,420.59392327500973,None,421.3085252301971,None,None,None,None,,1,001,2023_Jan_17_1403,searchDisc5,2021.2.3,60.105050037836044,
images/exp1b_trial_88_colour2_distractors31_l.png,l,1,2,31,1,,,,,0,143,143,143,,,,,,,,,,,,,,,,,,,,,,,,,,,,,,,,,,,,,,,,,,,421.32516860202304,None,2,0.22306425601709634,421.32516860202304,None,,,,,,,,,,,,,,,,None,None,None,,None,None,421.5942680290027,None,1,1,0.8340041459887289,421.5942680290027,None,422.42500767520687,None,None,None,None,,1,001,2023_Jan_17_1403,searchDisc5,2021.2.3,60.105050037836044,
images/exp1b_trial_294_colour2_distractors4_r.png,r,3,2,4,1,,,,,0,144,144,144,,,,,,,,,,,,,,,,,,,,,,,,,,,,,,,,,,,,,,,,,,,422.4417639010062,None,2,0.2543231960153207,422.4417639010062,None,,,,,,,,,,,,,,,,None,None,None,,None,None,422.7422757660097,None,3,1,1.0547279829916079,422.7422757660097,None,423.7916824682179,None,None,None,None,,1,001,2023_Jan_17_1403,searchDisc5,2021.2.3,60.105050037836044,
images/exp1b_trial_160_colour1_distractors1_r.png,r,3,1,1,1,,,,,0,145,145,145,,,,,,,,,,,,,,,,,,,,,,,,,,,,,,,,,,,,,,,,,,,423.8082845030003,None,2,0.20658111502416432,423.8082845030003,None,,,,,,,,,,,,,,,,None,None,None,,None,None,424.06086254600086,None,3,1,0.7865677939844318,424.06086254600086,None,424.8417814072018,None,None,None,None,,1,001,2023_Jan_17_1403,searchDisc5,2021.2.3,60.105050037836044,
images/exp1b_trial_76_colour3_distractors9_r.png,r,3,3,9,1,,,,,0,146,146,146,,,,,,,,,,,,,,,,,,,,,,,,,,,,,,,,,,,,,,,,,,,424.85846777501865,None,2,0.18780217599123716,424.85846777501865,None,,,,,,,,,,,,,,,,None,None,None,,None,None,425.09415012801765,None,3,1,1.0216492809995543,425.09415012801765,None,426.10871617020166,None,None,None,None,,1,001,2023_Jan_17_1403,searchDisc5,2021.2.3,60.105050037836044,
images/exp1b_trial_231_colour2_distractors9_r.png,r,3,2,9,1,,,,,0,147,147,147,,,,,,,,,,,,,,,,,,,,,,,,,,,,,,,,,,,,,,,,,,,426.12751651002327,None,2,0.17179817601572722,426.12751651002327,None,,,,,,,,,,,,,,,,None,None,None,,None,None,426.34407246499904,None,3,1,1.1516593910055235,426.34407246499904,None,427.49129570320656,None,None,None,None,,1,001,2023_Jan_17_1403,searchDisc5,2021.2.3,60.105050037836044,
images/exp1b_trial_276_colour2_distractors1_l.png,l,1,2,1,1,,,,,0,148,148,148,,,,,,,,,,,,,,,,,,,,,,,,,,,,,,,,,,,,,,,,,,,427.5087541960238,None,2,0.17182767199119553,427.5087541960238,None,,,,,,,,,,,,,,,,None,None,None,,None,None,427.7275154820236,None,1,1,0.6889556169917341,427.7275154820236,None,428.40871994120243,None,None,None,None,,1,001,2023_Jan_17_1403,searchDisc5,2021.2.3,60.105050037836044,
images/exp1b_trial_68_colour1_distractors31_r.png,r,3,1,31,1,,,,,0,149,149,149,,,,,,,,,,,,,,,,,,,,,,,,,,,,,,,,,,,,,,,,,,,428.42719577401294,None,2,0.15419917399412952,428.42719577401294,None,,,,,,,,,,,,,,,,None,None,None,,None,None,428.63002189801773,None,3,1,1.4113500310049858,428.63002189801773,None,430.0413145272032,None,None,None,None,,1,001,2023_Jan_17_1403,searchDisc5,2021.2.3,60.105050037836044,
images/exp1b_trial_7_colour2_distractors9_r.png,r,3,2,9,1,,,,,0,150,150,150,,,,,,,,,,,,,,,,,,,,,,,,,,,,,,,,,,,,,,,,,,,430.05853036700864,None,2,0.15529157500714064,430.05853036700864,None,,,,,,,,,,,,,,,,None,None,None,,None,None,430.2607690760051,None,3,1,0.7701056800142396,430.2607690760051,None,431.02521274720493,None,None,None,None,,1,001,2023_Jan_17_1403,searchDisc5,2021.2.3,60.105050037836044,
images/exp1b_trial_17_colour1_distractors9_l.png,l,1,1,9,1,,,,,0,151,151,151,,,,,,,,,,,,,,,,,,,,,,,,,,,,,,,,,,,,,,,,,,,431.0440517940151,None,2,0.1539028979896102,431.0440517940151,None,,,,,,,,,,,,,,,,None,None,None,,None,None,431.2437609519984,None,1,1,1.1036354489915539,431.2437609519984,None,432.3412099082052,None,None,None,None,,1,001,2023_Jan_17_1403,searchDisc5,2021.2.3,60.105050037836044,
images/exp1b_trial_232_colour2_distractors19_r.png,r,3,2,19,1,,,,,0,152,152,152,,,,,,,,,,,,,,,,,,,,,,,,,,,,,,,,,,,,,,,,,,,432.36092113002087,None,2,0.22177195397671312,432.36092113002087,None,,,,,,,,,,,,,,,,None,None,None,,None,None,432.6256276850181,None,3,1,0.7864004120056052,432.6256276850181,None,433.4087623932137,None,None,None,None,,1,001,2023_Jan_17_1403,searchDisc5,2021.2.3,60.105050037836044,
images/exp1b_trial_22_colour2_distractors9_l.png,l,1,2,9,1,,,,,0,153,153,153,,,,,,,,,,,,,,,,,,,,,,,,,,,,,,,,,,,,,,,,,,,433.4253895209986,None,2,0.17114955899887718,433.4253895209986,None,,,,,,,,,,,,,,,,None,None,None,,None,None,433.6416069830011,None,1,1,0.788153784989845,433.6416069830011,None,434.4256501172058,None,None,None,None,,1,001,2023_Jan_17_1403,searchDisc5,2021.2.3,60.105050037836044,
images/exp1b_trial_165_colour2_distractors1_r.png,r,3,2,1,1,,,,,0,154,154,154,,,,,,,,,,,,,,,,,,,,,,,,,,,,,,,,,,,,,,,,,,,434.4421329710167,None,2,0.18776002098456956,434.4421329710167,None,,,,,,,,,,,,,,,,None,None,None,,None,None,434.6775296990236,None,3,1,0.6736466540023685,434.6775296990236,None,435.34200862220314,None,None,None,None,,1,001,2023_Jan_17_1403,searchDisc5,2021.2.3,60.105050037836044,
images/exp1b_trial_116_colour2_distractors1_l.png,l,1,2,1,1,,,,,0,155,155,155,,,,,,,,,,,,,,,,,,,,,,,,,,,,,,,,,,,,,,,,,,,435.3586697160208,None,2,0.1713491319969762,435.3586697160208,None,,,,,,,,,,,,,,,,None,None,None,,None,None,435.57795214501675,None,1,1,0.8861055999877863,435.57795214501675,None,436.45902572722116,None,None,None,None,,1,001,2023_Jan_17_1403,searchDisc5,2021.2.3,60.105050037836044,
images/exp1b_trial_240_colour1_distractors4_l.png,l,1,1,4,1,,,,,0,156,156,156,,,,,,,,,,,,,,,,,,,,,,,,,,,,,,,,,,,,,,,,,,,436.4756249500206,None,2,0.15414322601282038,436.4756249500206,None,,,,,,,,,,,,,,,,None,None,None,,None,None,436.67549058201257,None,1,1,0.8875510689977091,436.67549058201257,None,437.55863697720633,None,None,None,None,,1,001,2023_Jan_17_1403,searchDisc5,2021.2.3,60.105050037836044,
images/exp1b_trial_246_colour2_distractors9_l.png,l,1,2,9,1,,,,,0,157,157,157,,,,,,,,,,,,,,,,,,,,,,,,,,,,,,,,,,,,,,,,,,,437.5758452959999,None,2,0.15471486799651757,437.5758452959999,None,,,,,,,,,,,,,,,,None,None,None,,None,None,437.77780259400606,None,1,1,0.6877331550058443,437.77780259400606,None,438.4588394122111,None,None,None,None,,1,001,2023_Jan_17_1403,searchDisc5,2021.2.3,60.105050037836044,
images/exp1b_trial_146_colour1_distractors19_l.png,l,1,1,19,1,,,,,0,158,158,158,,,,,,,,,,,,,,,,,,,,,,,,,,,,,,,,,,,,,,,,,,,438.47751782101113,None,2,0.15461886700359173,438.47751782101113,None,,,,,,,,,,,,,,,,None,None,None,,None,None,438.67726269800914,None,1,1,1.0716005149879493,438.67726269800914,None,439.74243919221044,None,None,None,None,,1,001,2023_Jan_17_1403,searchDisc5,2021.2.3,60.105050037836044,
images/exp1b_trial_37_colour2_distractors1_r.png,r,3,2,1,1,,,,,0,159,159,159,,,,,,,,,,,,,,,,,,,,,,,,,,,,,,,,,,,,,,,,,,,439.7588506550237,None,2,0.25133414499578066,439.7588506550237,None,,,,,,,,,,,,,,,,None,None,None,,None,None,440.05904656101484,None,3,1,0.7732360740192235,440.05904656101484,None,440.8256445592124,None,None,None,None,,1,001,2023_Jan_17_1403,searchDisc5,2021.2.3,60.105050037836044,
images/exp1b_trial_131_colour1_distractors19_r.png,r,3,1,19,1,,,,,0,160,160,160,,,,,,,,,,,,,,,,,,,,,,,,,,,,,,,,,,,,,,,,,,,440.8446207270026,None,2,0.17335374301183037,440.8446207270026,None,,,,,,,,,,,,,,,,None,None,None,,None,None,441.0613716880034,None,3,1,1.500602235988481,441.0613716880034,None,442.5587847012066,None,None,None,None,,1,001,2023_Jan_17_1403,searchDisc5,2021.2.3,60.105050037836044,
images/exp1b_trial_248_colour2_distractors31_l.png,l,1,2,31,1,,,,,0,161,161,161,,,,,,,,,,,,,,,,,,,,,,,,,,,,,,,,,,,,,,,,,,,442.57525927000097,None,2,0.1554975509934593,442.57525927000097,None,,,,,,,,,,,,,,,,None,None,None,,None,None,442.7776225870184,None,1,1,1.651648380997358,442.7776225870184,None,444.4257079792005,None,None,None,None,,1,001,2023_Jan_17_1403,searchDisc5,2021.2.3,60.105050037836044,
images/exp1b_trial_261_colour2_distractors1_r.png,r,3,2,1,1,,,,,0,162,162,162,,,,,,,,,,,,,,,,,,,,,,,,,,,,,,,,,,,,,,,,,,,444.44250526299584,None,2,0.22290263601462357,444.44250526299584,None,,,,,,,,,,,,,,,,None,None,None,,None,None,444.7108821849979,None,3,1,0.7695770699938294,444.7108821849979,None,445.4757206612121,None,None,None,None,,1,001,2023_Jan_17_1403,searchDisc5,2021.2.3,60.105050037836044,
images/exp1b_trial_123_colour3_distractors9_l.png,l,1,3,9,1,,,,,0,163,163,163,,,,,,,,,,,,,,,,,,,,,,,,,,,,,,,,,,,,,,,,,,,445.4944989470241,None,2,0.18971312599023804,445.4944989470241,None,,,,,,,,,,,,,,,,None,None,None,,None,None,445.7273464150203,None,1,1,2.0015444529999513,445.7273464150203,None,447.72571743921435,None,None,None,None,,1,001,2023_Jan_17_1403,searchDisc5,2021.2.3,60.105050037836044,
images/exp1b_trial_73_colour2_distractors31_r.png,r,3,2,31,1,,,,,0,164,164,164,,,,,,,,,,,,,,,,,,,,,,,,,,,,,,,,,,,,,,,,,,,447.74240017699776,None,2,0.2378395800187718,447.74240017699776,None,,,,,,,,,,,,,,,,None,None,None,,None,None,448.02540781800053,None,3,1,2.1714857729966752,448.02540781800053,None,450.19242294521246,None,None,None,None,,1,001,2023_Jan_17_1403,searchDisc5,2021.2.3,60.105050037836044,
images/exp1b_trial_28_colour3_distractors19_l.png,l,1,3,19,1,,,,,0,165,165,165,,,,,,,,,,,,,,,,,,,,,,,,,,,,,,,,,,,,,,,,,,,450.2108553450089,None,2,0.2185713869985193,450.2108553450089,None,,,,,,,,,,,,,,,,None,None,None,,None,None,450.47631293101585,None,1,1,0.886246713984292,450.47631293101585,None,451.3591631712188,None,None,None,None,,1,001,2023_Jan_17_1403,searchDisc5,2021.2.3,60.105050037836044,
images/exp1b_trial_108_colour3_distractors9_r.png,r,3,3,9,1,,,,,0,166,166,166,,,,,,,,,,,,,,,,,,,,,,,,,,,,,,,,,,,,,,,,,,,451.3775157229975,None,2,0.22147278898046352,451.3775157229975,None,,,,,,,,,,,,,,,,None,None,None,,None,None,451.64211016200716,None,3,1,1.1694604969816282,451.64211016200716,None,452.8091300312226,None,None,None,None,,1,001,2023_Jan_17_1403,searchDisc5,2021.2.3,60.105050037836044,
images/exp1b_trial_166_colour2_distractors4_r.png,r,3,2,4,1,,,,,0,167,167,167,,,,,,,,,,,,,,,,,,,,,,,,,,,,,,,,,,,,,,,,,,,452.82539660600014,None,2,0.2234089270059485,452.82539660600014,None,,,,,,,,,,,,,,,,None,None,None,,None,None,453.09275926300324,None,3,1,0.8693462750234175,453.09275926300324,None,453.959202119222,None,None,None,None,,1,001,2023_Jan_17_1403,searchDisc5,2021.2.3,60.105050037836044,
images/exp1b_trial_304_colour1_distractors4_l.png,l,1,1,4,1,,,,,0,168,168,168,,,,,,,,,,,,,,,,,,,,,,,,,,,,,,,,,,,,,,,,,,,453.9777702320134,None,2,0.254427605017554,453.9777702320134,None,,,,,,,,,,,,,,,,None,None,None,,None,None,454.2762554430228,None,1,1,0.7216247059986927,454.2762554430228,None,454.99275316922285,None,None,None,None,,1,001,2023_Jan_17_1403,searchDisc5,2021.2.3,60.105050037836044,
images/exp1b_trial_36_colour1_distractors31_r.png,r,3,1,31,1,,,,,0,169,169,169,,,,,,,,,,,,,,,,,,,,,,,,,,,,,,,,,,,,,,,,,,,455.0096487510018,None,2,0.22348205398884602,455.0096487510018,None,,,,,,,,,,,,,,,,None,None,None,,None,None,455.2763532109966,None,3,1,1.2984658580098767,455.2763532109966,None,456.5758959202067,None,None,None,None,,1,001,2023_Jan_17_1403,searchDisc5,2021.2.3,60.105050037836044,
images/exp1b_trial_159_colour0_distractors0_l.png,l,1,0,0,1,,,,,0,170,170,170,,,,,,,,,,,,,,,,,,,,,,,,,,,,,,,,,,,,,,,,,,,456.59228749602335,None,2,0.2212752960040234,456.59228749602335,None,,,,,,,,,,,,,,,,None,None,None,,None,None,456.86167846701574,None,1,1,0.6719929990067612,456.86167846701574,None,457.52615232420794,None,None,None,None,,1,001,2023_Jan_17_1403,searchDisc5,2021.2.3,60.105050037836044,
images/exp1b_trial_95_colour0_distractors0_l.png,l,1,0,0,1,,,,,0,171,171,171,,,,,,,,,,,,,,,,,,,,,,,,,,,,,,,,,,,,,,,,,,,457.54251760200714,None,2,0.20646630600094795,457.54251760200714,None,,,,,,,,,,,,,,,,None,None,None,,None,None,457.79472986402106,None,1,1,0.6539173040073365,457.79472986402106,None,458.4425725412002,None,None,None,None,,1,001,2023_Jan_17_1403,searchDisc5,2021.2.3,60.105050037836044,
images/exp1b_trial_143_colour1_distractors1_l.png,l,1,1,1,1,,,,,0,172,172,172,,,,,,,,,,,,,,,,,,,,,,,,,,,,,,,,,,,,,,,,,,,458.4593775840185,None,2,0.18674207100411877,458.4593775840185,None,,,,,,,,,,,,,,,,None,None,None,,None,None,458.6946221560065,None,1,1,0.955539903981844,458.6946221560065,None,459.6428858462168,None,None,None,None,,1,001,2023_Jan_17_1403,searchDisc5,2021.2.3,60.105050037836044,
images/exp1b_trial_317_colour3_distractors31_l.png,l,1,3,31,1,,,,,0,173,173,173,,,,,,,,,,,,,,,,,,,,,,,,,,,,,,,,,,,,,,,,,,,459.65951939101797,None,2,0.17078143497928977,459.65951939101797,None,,,,,,,,,,,,,,,,None,None,None,,None,None,459.8779035740008,None,1,1,1.202421611000318,459.8779035740008,None,461.07607165821537,None,None,None,None,,1,001,2023_Jan_17_1403,searchDisc5,2021.2.3,60.105050037836044,
images/exp1b_trial_273_colour1_distractors9_l.png,l,1,1,9,1,,,,,0,174,174,174,,,,,,,,,,,,,,,,,,,,,,,,,,,,,,,,,,,,,,,,,,,461.0951548650046,None,2,0.1732637480017729,461.0951548650046,None,,,,,,,,,,,,,,,,None,None,None,,None,None,461.3113234699995,None,1,1,0.9185679900110699,461.3113234699995,None,462.22633640620916,None,None,None,None,,1,001,2023_Jan_17_1403,searchDisc5,2021.2.3,60.105050037836044,
images/exp1b_trial_213_colour2_distractors4_l.png,l,1,2,4,1,,,,,0,175,175,175,,,,,,,,,,,,,,,,,,,,,,,,,,,,,,,,,,,,,,,,,,,462.2428429160209,None,2,0.18976909801131114,462.2428429160209,None,,,,,,,,,,,,,,,,None,None,None,,None,None,462.478022203024,None,1,1,0.8360910000046715,462.478022203024,None,463.3095933522127,None,None,None,None,,1,001,2023_Jan_17_1403,searchDisc5,2021.2.3,60.105050037836044,
images/exp1b_trial_149_colour2_distractors4_l.png,l,1,2,4,1,,,,,0,176,176,176,,,,,,,,,,,,,,,,,,,,,,,,,,,,,,,,,,,,,,,,,,,463.325790228002,None,2,0.1710582230007276,463.325790228002,None,,,,,,,,,,,,,,,,None,None,None,,None,None,463.54457614800776,None,1,1,0.62120406399481,463.54457614800776,None,464.1595659742161,None,None,None,None,,1,001,2023_Jan_17_1403,searchDisc5,2021.2.3,60.105050037836044,
images/exp1b_trial_202_colour3_distractors1_r.png,r,3,3,1,1,,,,,0,177,177,177,,,,,,,,,,,,,,,,,,,,,,,,,,,,,,,,,,,,,,,,,,,464.1756320919958,None,2,0.171132319024764,464.1756320919958,None,,,,,,,,,,,,,,,,None,None,None,,None,None,464.39315345001523,None,3,1,0.8886489270080347,464.39315345001523,None,465.27625276321487,None,None,None,None,,1,001,2023_Jan_17_1403,searchDisc5,2021.2.3,60.105050037836044,
images/exp1b_trial_229_colour2_distractors1_r.png,r,3,2,1,1,,,,,0,178,178,178,,,,,,,,,,,,,,,,,,,,,,,,,,,,,,,,,,,,,,,,,,,465.2928631649993,None,2,0.4232128959847614,465.2928631649993,None,,,,,,,,,,,,,,,,None,None,None,,None,None,465.76190658000996,None,3,1,0.6364358560240362,465.76190658000996,None,466.3927756011981,None,None,None,None,,1,001,2023_Jan_17_1403,searchDisc5,2021.2.3,60.105050037836044,
images/exp1b_trial_216_colour2_distractors31_l.png,l,1,2,31,1,,,,,0,179,179,179,,,,,,,,,,,,,,,,,,,,,,,,,,,,,,,,,,,,,,,,,,,466.4093946570065,None,2,0.20643809900502674,466.4093946570065,None,,,,,,,,,,,,,,,,None,None,None,,None,None,466.6621966540115,None,1,1,1.317352629994275,466.6621966540115,None,467.976301419214,None,None,None,None,,1,001,2023_Jan_17_1403,searchDisc5,2021.2.3,60.105050037836044,
images/exp1b_trial_89_colour3_distractors1_l.png,l,1,3,1,1,,,,,0,180,180,180,,,,,,,,,,,,,,,,,,,,,,,,,,,,,,,,,,,,,,,,,,,467.99311291001504,None,2,0.2728856980102137,467.99311291001504,None,,,,,,,,,,,,,,,,None,None,None,,None,None,468.3099710250099,None,1,1,0.6701733089867048,468.3099710250099,None,468.97634932822257,None,None,None,None,,1,001,2023_Jan_17_1403,searchDisc5,2021.2.3,60.105050037836044,
images/exp1b_trial_189_colour3_distractors31_l.png,l,1,3,31,1,,,,,0,181,181,181,,,,,,,,,,,,,,,,,,,,,,,,,,,,,,,,,,,,,,,,,,,468.9931019990181,None,2,0.2232799250050448,468.9931019990181,None,,,,,,,,,,,,,,,,None,None,None,,None,None,469.25986943702446,None,1,1,0.7501693019876257,469.25986943702446,None,470.00980112219986,None,None,None,None,,1,001,2023_Jan_17_1403,searchDisc5,2021.2.3,60.105050037836044,
images/exp1b_trial_316_colour3_distractors19_l.png,l,1,3,19,1,,,,,0,182,182,182,,,,,,,,,,,,,,,,,,,,,,,,,,,,,,,,,,,,,,,,,,,470.0261704120203,None,2,0.2701784429955296,470.0261704120203,None,,,,,,,,,,,,,,,,None,None,None,,None,None,470.3435473690042,None,1,1,0.6519484969903715,470.3435473690042,None,470.9933561912185,None,None,None,None,,1,001,2023_Jan_17_1403,searchDisc5,2021.2.3,60.105050037836044,
images/exp1b_trial_27_colour3_distractors9_l.png,l,1,3,9,1,,,,,0,183,183,183,,,,,,,,,,,,,,,,,,,,,,,,,,,,,,,,,,,,,,,,,,,471.0097071310156,None,2,0.2711865289893467,471.0097071310156,None,,,,,,,,,,,,,,,,None,None,None,,None,None,471.3268920610135,None,1,1,1.8695673780166544,471.3268920610135,None,473.193223487222,None,None,None,None,,1,001,2023_Jan_17_1403,searchDisc5,2021.2.3,60.105050037836044,
images/exp1b_trial_39_colour2_distractors9_r.png,r,3,2,9,1,,,,,0,184,184,184,,,,,,,,,,,,,,,,,,,,,,,,,,,,,,,,,,,,,,,,,,,473.2096870050009,None,2,0.27292510701227,473.2096870050009,None,,,,,,,,,,,,,,,,None,None,None,,None,None,473.52659205600503,None,3,1,1.084665739996126,473.52659205600503,None,474.60911478121125,None,None,None,None,,1,001,2023_Jan_17_1403,searchDisc5,2021.2.3,60.105050037836044,
images/exp1b_trial_187_colour3_distractors9_l.png,l,1,3,9,1,,,,,0,185,185,185,,,,,,,,,,,,,,,,,,,,,,,,,,,,,,,,,,,,,,,,,,,474.62660140902153,None,2,0.4075393490202259,474.62660140902153,None,,,,,,,,,,,,,,,,None,None,None,,None,None,475.0791013490234,None,1,1,2.3512453400180675,475.0791013490234,None,477.4265982222132,None,None,None,None,,1,001,2023_Jan_17_1403,searchDisc5,2021.2.3,60.105050037836044,
images/exp1b_trial_122_colour3_distractors4_l.png,l,1,3,4,1,,,,,0,186,186,186,,,,,,,,,,,,,,,,,,,,,,,,,,,,,,,,,,,,,,,,,,,477.44539744601934,None,2,0.2375917280151043,477.44539744601934,None,,,,,,,,,,,,,,,,None,None,None,,None,None,477.7269184500037,None,1,1,0.7874717199883889,477.7269184500037,None,478.51004989921057,None,None,None,None,,1,001,2023_Jan_17_1403,searchDisc5,2021.2.3,60.105050037836044,
images/exp1b_trial_212_colour2_distractors1_l.png,l,1,2,1,1,,,,,0,187,187,187,,,,,,,,,,,,,,,,,,,,,,,,,,,,,,,,,,,,,,,,,,,478.526369033003,None,2,0.20666983001865447,478.526369033003,None,,,,,,,,,,,,,,,,None,None,None,,None,None,478.778949339001,None,1,1,0.7198028400016483,478.778949339001,None,479.49329204620153,None,None,None,None,,1,001,2023_Jan_17_1403,searchDisc5,2021.2.3,60.105050037836044,
images/exp1b_trial_40_colour2_distractors19_r.png,r,3,2,19,1,,,,,0,188,188,188,,,,,,,,,,,,,,,,,,,,,,,,,,,,,,,,,,,,,,,,,,,479.5100659120071,None,2,0.18785524502163753,479.5100659120071,None,,,,,,,,,,,,,,,,None,None,None,,None,None,479.7459625269985,None,3,1,0.9864881329995114,479.7459625269985,None,480.7260895232175,None,None,None,None,,1,001,2023_Jan_17_1403,searchDisc5,2021.2.3,60.105050037836044,
images/exp1b_trial_29_colour3_distractors31_l.png,l,1,3,31,1,,,,,0,189,189,189,,,,,,,,,,,,,,,,,,,,,,,,,,,,,,,,,,,,,,,,,,,480.7436121480132,None,2,0.2383290629950352,480.7436121480132,None,,,,,,,,,,,,,,,,None,None,None,,None,None,481.0268747200025,None,1,1,1.0685827400011476,481.0268747200025,None,482.09336615020584,None,None,None,None,,1,001,2023_Jan_17_1403,searchDisc5,2021.2.3,60.105050037836044,
images/exp1b_trial_18_colour1_distractors19_l.png,l,1,1,19,1,,,,,0,190,190,190,,,,,,,,,,,,,,,,,,,,,,,,,,,,,,,,,,,,,,,,,,,482.11014243902173,None,2,0.18785867298720405,482.11014243902173,None,,,,,,,,,,,,,,,,None,None,None,,None,None,482.3454131500039,None,1,1,0.9192546120029874,482.3454131500039,None,483.2601882932213,None,None,None,None,,1,001,2023_Jan_17_1403,searchDisc5,2021.2.3,60.105050037836044,
images/exp1b_trial_305_colour1_distractors9_l.png,l,1,1,9,1,,,,,0,191,191,191,,,,,,,,,,,,,,,,,,,,,,,,,,,,,,,,,,,,,,,,,,,483.27665750999586,None,2,0.19015307200606912,483.27665750999586,None,,,,,,,,,,,,,,,,None,None,None,,None,None,483.51231297000777,None,1,1,0.7694458999903873,483.51231297000777,None,484.2767601292144,None,None,None,None,,1,001,2023_Jan_17_1403,searchDisc5,2021.2.3,60.105050037836044,
images/exp1b_trial_256_colour1_distractors1_r.png,r,3,1,1,1,,,,,0,192,192,192,,,,,,,,,,,,,,,,,,,,,,,,,,,,,,,,,,,,,,,,,,,484.2951177570212,None,2,0.20513913198374212,484.2951177570212,None,,,,,,,,,,,,,,,,None,None,None,,None,None,484.54335480800364,None,3,1,0.7701069870090578,484.54335480800364,None,485.3102696372225,None,None,None,None,,1,001,2023_Jan_17_1403,searchDisc5,2021.2.3,60.105050037836044,
images/exp1b_trial_192_colour1_distractors1_r.png,r,3,1,1,1,,,,,0,193,193,193,,,,,,,,,,,,,,,,,,,,,,,,,,,,,,,,,,,,,,,,,,,485.3266884330078,None,2,0.3043357229907997,485.3266884330078,None,,,,,,,,,,,,,,,,None,None,None,,None,None,485.67704085001606,None,3,1,0.722074468008941,485.67704085001606,None,486.3935120842216,None,None,None,None,,1,001,2023_Jan_17_1403,searchDisc5,2021.2.3,60.105050037836044,
images/exp1b_trial_141_colour3_distractors19_r.png,r,3,3,19,1,,,,,0,194,194,194,,,,,,,,,,,,,,,,,,,,,,,,,,,,,,,,,,,,,,,,,,,486.4102103660116,None,2,0.27189429698046297,486.4102103660116,None,,,,,,,,,,,,,,,,None,None,None,,None,None,486.7265279170242,None,3,1,1.0517084760067519,486.7265279170242,None,487.7768820872152,None,None,None,None,,1,001,2023_Jan_17_1403,searchDisc5,2021.2.3,60.105050037836044,
images/exp1b_trial_55_colour2_distractors19_l.png,l,1,2,19,1,,,,,0,195,195,195,,,,,,,,,,,,,,,,,,,,,,,,,,,,,,,,,,,,,,,,,,,487.7934774949972,None,2,0.25370371900498867,487.7934774949972,None,,,,,,,,,,,,,,,,None,None,None,,None,None,488.09345758901327,None,1,1,0.7535055440093856,488.09345758901327,None,488.84363939521427,None,None,None,None,,1,001,2023_Jan_17_1403,searchDisc5,2021.2.3,60.105050037836044,
images/exp1b_trial_297_colour2_distractors31_r.png,r,3,2,31,1,,,,,0,196,196,196,,,,,,,,,,,,,,,,,,,,,,,,,,,,,,,,,,,,,,,,,,,488.8602695760201,None,2,0.2231558710045647,488.8602695760201,None,,,,,,,,,,,,,,,,None,None,None,,None,None,489.12907090299996,None,3,1,1.2177404399844818,489.12907090299996,None,490.34378867321357,None,None,None,None,,1,001,2023_Jan_17_1403,searchDisc5,2021.2.3,60.105050037836044,
images/exp1b_trial_53_colour2_distractors4_l.png,l,1,2,4,1,,,,,0,197,197,197,,,,,,,,,,,,,,,,,,,,,,,,,,,,,,,,,,,,,,,,,,,490.36038660499617,None,2,0.25835130098857917,490.36038660499617,None,,,,,,,,,,,,,,,,None,None,None,,None,None,490.66062843301916,None,1,1,0.6170063060126267,490.66062843301916,None,491.2769066092005,None,None,None,None,,1,001,2023_Jan_17_1403,searchDisc5,2021.2.3,60.105050037836044,
images/exp1b_trial_30_colour0_distractors0_r.png,r,3,0,0,1,,,,,0,198,198,198,,,,,,,,,,,,,,,,,,,,,,,,,,,,,,,,,,,,,,,,,,,491.29521771500004,None,2,0.2074552199919708,491.29521771500004,None,,,,,,,,,,,,,,,,None,None,None,,None,None,491.54386809602147,None,3,1,0.6859489259950351,491.54386809602147,None,492.2269986352039,None,None,None,None,,1,001,2023_Jan_17_1403,searchDisc5,2021.2.3,60.105050037836044,
images/exp1b_trial_79_colour1_distractors1_l.png,l,1,1,1,1,,,,,0,199,199,199,,,,,,,,,,,,,,,,,,,,,,,,,,,,,,,,,,,,,,,,,,,492.2435392900079,None,2,0.22335240000393242,492.2435392900079,None,,,,,,,,,,,,,,,,None,None,None,,None,None,492.5099536580092,None,1,1,0.7702928459912073,492.5099536580092,None,493.2772364491975,None,None,None,None,,1,001,2023_Jan_17_1403,searchDisc5,2021.2.3,60.105050037836044,
images/exp1b_trial_5_colour2_distractors1_r.png,r,3,2,1,1,,,,,0,200,200,200,,,,,,,,,,,,,,,,,,,,,,,,,,,,,,,,,,,,,,,,,,,493.2938520089956,None,2,0.15404779399977997,493.2938520089956,None,,,,,,,,,,,,,,,,None,None,None,,None,None,493.49539619800635,None,3,1,0.6546675919962581,493.49539619800635,None,494.1439201352041,None,None,None,None,,1,001,2023_Jan_17_1403,searchDisc5,2021.2.3,60.105050037836044,
images/exp1b_trial_191_colour0_distractors0_l.png,l,1,0,0,1,,,,,0,201,201,201,,,,,,,,,,,,,,,,,,,,,,,,,,,,,,,,,,,,,,,,,,,494.1603200560203,None,2,0.9729086899897084,494.1603200560203,None,,,,,,,,,,,,,,,,None,None,None,,None,None,495.1769171979977,None,1,1,0.6726344549970236,495.1769171979977,None,495.84405563819746,None,None,None,None,,1,001,2023_Jan_17_1403,searchDisc5,2021.2.3,60.105050037836044,
images/exp1b_trial_20_colour2_distractors1_l.png,l,1,2,1,1,,,,,0,202,202,202,,,,,,,,,,,,,,,,,,,,,,,,,,,,,,,,,,,,,,,,,,,495.86031548300525,None,2,0.31893198599573225,495.86031548300525,None,,,,,,,,,,,,,,,,None,None,None,,None,None,496.2275017820066,None,1,1,0.9391261590062641,496.2275017820066,None,497.160610585197,None,None,None,None,,1,001,2023_Jan_17_1403,searchDisc5,2021.2.3,60.105050037836044,
images/exp1b_trial_133_colour2_distractors1_r.png,r,3,2,1,1,,,,,0,203,203,203,,,,,,,,,,,,,,,,,,,,,,,,,,,,,,,,,,,,,,,,,,,497.17692648101365,None,2,0.3878653699939605,497.17692648101365,None,,,,,,,,,,,,,,,,None,None,None,,None,None,497.6122084160161,None,3,1,0.6716792059887666,497.6122084160161,None,498.27703025621304,None,None,None,None,,1,001,2023_Jan_17_1403,searchDisc5,2021.2.3,60.105050037836044,
images/exp1b_trial_11_colour3_distractors4_r.png,r,3,3,4,1,,,,,0,204,204,204,,,,,,,,,,,,,,,,,,,,,,,,,,,,,,,,,,,,,,,,,,,498.29371370200533,None,2,0.30440045599243604,498.29371370200533,None,,,,,,,,,,,,,,,,None,None,None,,None,None,498.64396684101666,None,3,1,0.838141968997661,498.64396684101666,None,499.477158866197,None,None,None,None,,1,001,2023_Jan_17_1403,searchDisc5,2021.2.3,60.105050037836044,
images/exp1b_trial_50_colour1_distractors19_l.png,l,1,1,19,1,,,,,0,205,205,205,,,,,,,,,,,,,,,,,,,,,,,,,,,,,,,,,,,,,,,,,,,499.4938393890043,None,2,0.2879748660197947,499.4938393890043,None,,,,,,,,,,,,,,,,None,None,None,,None,None,499.8269891210075,None,1,1,1.202310716995271,499.8269891210075,None,501.0270189881994,None,None,None,None,,1,001,2023_Jan_17_1403,searchDisc5,2021.2.3,60.105050037836044,
images/exp1b_trial_119_colour2_distractors19_l.png,l,1,2,19,1,,,,,0,206,206,206,,,,,,,,,,,,,,,,,,,,,,,,,,,,,,,,,,,,,,,,,,,501.04328794401954,None,2,0.25677858700510114,501.04328794401954,None,,,,,,,,,,,,,,,,None,None,None,,None,None,501.3459593890002,None,1,1,1.2182150370208547,501.3459593890002,None,502.5607039632014,None,None,None,None,,1,001,2023_Jan_17_1403,searchDisc5,2021.2.3,60.105050037836044,
images/exp1b_trial_204_colour3_distractors9_r.png,r,3,3,9,1,,,,,0,207,207,207,,,,,,,,,,,,,,,,,,,,,,,,,,,,,,,,,,,,,,,,,,,502.5772209340066,None,2,0.24122498801443726,502.5772209340066,None,,,,,,,,,,,,,,,,None,None,None,,None,None,502.86308224202367,None,3,1,0.9334259320166893,502.86308224202367,None,503.794072615201,None,None,None,None,,1,001,2023_Jan_17_1403,searchDisc5,2021.2.3,60.105050037836044,
images/exp1b_trial_21_colour2_distractors4_l.png,l,1,2,4,1,,,,,0,208,208,208,,,,,,,,,,,,,,,,,,,,,,,,,,,,,,,,,,,,,,,,,,,503.81263277700054,None,2,0.22327573099755682,503.81263277700054,None,,,,,,,,,,,,,,,,None,None,None,,None,None,504.07763747801073,None,1,1,0.7687535449804273,504.07763747801073,None,504.84401319020253,None,None,None,None,,1,001,2023_Jan_17_1403,searchDisc5,2021.2.3,60.105050037836044,
images/exp1b_trial_214_colour2_distractors9_l.png,l,1,2,9,1,,,,,0,209,209,209,,,,,,,,,,,,,,,,,,,,,,,,,,,,,,,,,,,,,,,,,,,504.86250512700644,None,2,0.271147318999283,504.86250512700644,None,,,,,,,,,,,,,,,,None,None,None,,None,None,505.17760912000085,None,1,1,0.9541890019900165,505.17760912000085,None,506.12740525421395,None,None,None,None,,1,001,2023_Jan_17_1403,searchDisc5,2021.2.3,60.105050037836044,
images/exp1b_trial_34_colour1_distractors9_r.png,r,3,1,9,1,,,,,0,210,210,210,,,,,,,,,,,,,,,,,,,,,,,,,,,,,,,,,,,,,,,,,,,506.1442845200072,None,2,0.25453909300267696,506.1442845200072,None,,,,,,,,,,,,,,,,None,None,None,,None,None,506.4444172049989,None,3,1,0.8039713079924695,506.4444172049989,None,507.24420759220084,None,None,None,None,,1,001,2023_Jan_17_1403,searchDisc5,2021.2.3,60.105050037836044,
images/exp1b_trial_162_colour1_distractors9_r.png,r,3,1,9,1,,,,,0,211,211,211,,,,,,,,,,,,,,,,,,,,,,,,,,,,,,,,,,,,,,,,,,,507.26067542200326,None,2,0.20688484798301943,507.26067542200326,None,,,,,,,,,,,,,,,,None,None,None,,None,None,507.5130905570113,None,3,1,1.3200826899847016,507.5130905570113,None,508.82740848620597,None,None,None,None,,1,001,2023_Jan_17_1403,searchDisc5,2021.2.3,60.105050037836044,
images/exp1b_trial_278_colour2_distractors9_l.png,l,1,2,9,1,,,,,0,212,212,212,,,,,,,,,,,,,,,,,,,,,,,,,,,,,,,,,,,,,,,,,,,508.84374050202314,None,2,0.16936453600646928,508.84374050202314,None,,,,,,,,,,,,,,,,None,None,None,,None,None,509.0629845140211,None,1,1,0.7212569100083783,509.0629845140211,None,509.7778013791976,None,None,None,None,,1,001,2023_Jan_17_1403,searchDisc5,2021.2.3,60.105050037836044,
images/exp1b_trial_275_colour1_distractors31_l.png,l,1,1,31,1,,,,,0,213,213,213,,,,,,,,,,,,,,,,,,,,,,,,,,,,,,,,,,,,,,,,,,,509.79402394700446,None,2,0.18743185701896437,509.79402394700446,None,,,,,,,,,,,,,,,,None,None,None,,None,None,510.0292997350043,None,1,1,0.9176166710094549,510.0292997350043,None,510.94373827522213,None,None,None,None,,1,001,2023_Jan_17_1403,searchDisc5,2021.2.3,60.105050037836044,
images/exp1b_trial_136_colour2_distractors19_r.png,r,3,2,19,1,,,,,0,214,214,214,,,,,,,,,,,,,,,,,,,,,,,,,,,,,,,,,,,,,,,,,,,510.9610211359977,None,2,0.19026504500652663,510.9610211359977,None,,,,,,,,,,,,,,,,None,None,None,,None,None,511.19675896601984,None,3,1,2.068597495002905,511.19675896601984,None,513.2609527612076,None,None,None,None,,1,001,2023_Jan_17_1403,searchDisc5,2021.2.3,60.105050037836044,
images/exp1b_trial_267_colour3_distractors4_r.png,r,3,3,4,1,,,,,0,215,215,215,,,,,,,,,,,,,,,,,,,,,,,,,,,,,,,,,,,,,,,,,,,513.2770003570186,None,2,0.18875831298646517,513.2770003570186,None,,,,,,,,,,,,,,,,None,None,None,,None,None,513.5133742500038,None,3,1,0.7698322010110132,513.5133742500038,None,514.2776333262009,None,None,None,None,,1,001,2023_Jan_17_1403,searchDisc5,2021.2.3,60.105050037836044,
images/exp1b_trial_151_colour2_distractors19_l.png,l,1,2,19,1,,,,,0,216,216,216,,,,,,,,,,,,,,,,,,,,,,,,,,,,,,,,,,,,,,,,,,,514.2962161220203,None,2,0.20630437298677862,514.2962161220203,None,,,,,,,,,,,,,,,,None,None,None,,None,None,514.5446432150202,None,1,1,2.2995400019863155,514.5446432150202,None,516.8436852021987,None,None,None,None,,1,001,2023_Jan_17_1403,searchDisc5,2021.2.3,60.105050037836044,
images/exp1b_trial_207_colour1_distractors1_l.png,l,1,1,1,1,,,,,0,217,217,217,,,,,,,,,,,,,,,,,,,,,,,,,,,,,,,,,,,,,,,,,,,516.8612166030216,None,2,0.35516226998879574,516.8612166030216,None,,,,,,,,,,,,,,,,None,None,None,,None,None,517.2609223100008,None,1,1,0.8055971080029849,517.2609223100008,None,518.0611957612127,None,None,None,None,,1,001,2023_Jan_17_1403,searchDisc5,2021.2.3,60.105050037836044,
images/exp1b_trial_255_colour0_distractors0_l.png,l,1,0,0,1,,,,,0,218,218,218,,,,,,,,,,,,,,,,,,,,,,,,,,,,,,,,,,,,,,,,,,,518.0776174250059,None,2,0.27047224997659214,518.0776174250059,None,,,,,,,,,,,,,,,,None,None,None,,None,None,518.3968641710235,None,1,1,0.5227124990196899,518.3968641710235,None,518.9110659252183,None,None,None,None,,1,001,2023_Jan_17_1403,searchDisc5,2021.2.3,60.105050037836044,
images/exp1b_trial_16_colour1_distractors4_l.png,l,1,1,4,1,,,,,0,219,219,219,,,,,,,,,,,,,,,,,,,,,,,,,,,,,,,,,,,,,,,,,,,518.9276866480068,None,2,0.23787428298965096,518.9276866480068,None,,,,,,,,,,,,,,,,None,None,None,,None,None,519.2114985990047,None,1,1,0.7215755869983695,519.2114985990047,None,519.9278585701977,None,None,None,None,,1,001,2023_Jan_17_1403,searchDisc5,2021.2.3,60.105050037836044,
images/exp1b_trial_62_colour0_distractors0_r.png,r,3,0,0,1,,,,,0,220,220,220,,,,,,,,,,,,,,,,,,,,,,,,,,,,,,,,,,,,,,,,,,,519.9442334000196,None,2,0.2396005450282246,519.9442334000196,None,,,,,,,,,,,,,,,,None,None,None,,None,None,520.2300630219979,None,3,1,0.6201370019989554,520.2300630219979,None,520.8443749951985,None,None,None,None,,1,001,2023_Jan_17_1403,searchDisc5,2021.2.3,60.105050037836044,
images/exp1b_trial_120_colour2_distractors31_l.png,l,1,2,31,1,,,,,0,221,221,221,,,,,,,,,,,,,,,,,,,,,,,,,,,,,,,,,,,,,,,,,,,520.8611610180233,None,2,0.18790059798629954,520.8611610180233,None,,,,,,,,,,,,,,,,None,None,None,,None,None,521.0969811200048,None,1,1,0.6528546150075272,521.0969811200048,None,521.7445010531956,None,None,None,None,,1,001,2023_Jan_17_1403,searchDisc5,2021.2.3,60.105050037836044,
images/exp1b_trial_247_colour2_distractors19_l.png,l,1,2,19,1,,,,,0,222,222,222,,,,,,,,,,,,,,,,,,,,,,,,,,,,,,,,,,,,,,,,,,,521.7608227250166,None,2,0.25665384499006905,521.7608227250166,None,,,,,,,,,,,,,,,,None,None,None,,None,None,522.0607218860241,None,1,1,1.101729059999343,522.0607218860241,None,523.1612947491958,None,None,None,None,,1,001,2023_Jan_17_1403,searchDisc5,2021.2.3,60.105050037836044,
images/exp1b_trial_61_colour3_distractors31_l.png,l,1,3,31,1,,,,,0,223,223,223,,,,,,,,,,,,,,,,,,,,,,,,,,,,,,,,,,,,,,,,,,,523.1799175460183,None,2,0.2713288399972953,523.1799175460183,None,,,,,,,,,,,,,,,,None,None,None,,None,None,523.4947535920073,None,1,1,2.4369044240156654,523.4947535920073,None,525.9281953202008,None,None,None,None,,1,001,2023_Jan_17_1403,searchDisc5,2021.2.3,60.105050037836044,
images/exp1b_trial_284_colour3_distractors19_l.png,l,1,3,19,1,,,,,0,224,224,224,,,,,,,,,,,,,,,,,,,,,,,,,,,,,,,,,,,,,,,,,,,525.9441458660003,None,2,0.3694854129862506,525.9441458660003,None,,,,,,,,,,,,,,,,None,None,None,,None,None,526.3629974409996,None,1,1,2.519620428996859,526.3629974409996,None,528.8780782082031,None,None,None,None,,1,001,2023_Jan_17_1403,searchDisc5,2021.2.3,60.105050037836044,
