ImageFile,targ_side,correctAnswer,colour,distNo,targetType,trials_2.thisRepN,trials_2.thisTrialN,trials_2.thisN,trials_2.thisIndex,trials.thisRepN,trials.thisTrialN,trials.thisN,trials.thisIndex,text_6.started,text_6.stopped,buttonBox.keys,buttonBox.rt,buttonBox.started,buttonBox.stopped,text_7.started,text_7.stopped,buttonBox_3.keys,buttonBox_3.rt,buttonBox_3.started,buttonBox_3.stopped,text_8.started,text_8.stopped,buttonBox_4.keys,buttonBox_4.rt,buttonBox_4.started,buttonBox_4.stopped,text_9.started,text_9.stopped,buttonBox_5.keys,buttonBox_5.rt,buttonBox_5.started,buttonBox_5.stopped,text_2.started,text_2.stopped,buttonBox_6.keys,buttonBox_6.rt,buttonBox_6.started,buttonBox_6.stopped,text_5.started,text_5.stopped,buttonBox_7.keys,buttonBox_7.rt,image_2.started,image_2.stopped,image_3.started,image_3.stopped,buttonBox_8.keys,buttonBox_8.rt,buttonBox_8.started,buttonBox_8.stopped,polygon.started,polygon.stopped,buttonBox_9.keys,buttonBox_9.rt,buttonBox_9.started,buttonBox_9.stopped,image.started,image.stopped,buttonBox_10.keys,buttonBox_10.corr,buttonBox_10.rt,buttonBox_10.started,buttonBox_10.stopped,text_4.started,text_4.stopped,text.started,text.stopped,buttonBox_11.keys,buttonBox_11.rt,buttonBox_11.started,buttonBox_11.stopped,targetTypeInstruction.started,targetTypeInstruction.stopped,buttonBox_2.keys,buttonBox_2.rt,buttonBox_2.started,buttonBox_2.stopped,dispStimuli.started,dispStimuli.stopped,buttonBox_12.keys,buttonBox_12.corr,buttonBox_12.rt,buttonBox_12.started,buttonBox_12.stopped,breakMessage.started,breakMessage.stopped,buttonBox_13.keys,buttonBox_13.started,buttonBox_13.stopped,buttonBox_13.rt,participant,session,date,expName,psychopyVersion,frameRate,
,,,,,,,,,,,,,,13.76774713897612,None,2,56.3496068950044,13.76774713897612,None,,,,,,,,,,,,,,,,,,,,,,,,,,,,,,,,,,,,,,,,,,,,,,,,,,,,,,,,,,,,,,,,,,,,,,,,,,,,,20,001,2023_Jan_23_0958,searchDisc5,2021.2.3,59.75259972524412,
,,,,,,,,,,,,,,,,,,,,70.11709661601344,None,2,34.9162879580399,70.11709661601344,None,,,,,,,,,,,,,,,,,,,,,,,,,,,,,,,,,,,,,,,,,,,,,,,,,,,,,,,,,,,,,,,,,,,,,,,20,001,2023_Jan_23_0958,searchDisc5,2021.2.3,59.75259972524412,
,,,,,,,,,,,,,,,,,,,,,,,,,,105.03458898398094,None,2,9.598968622041866,105.03458898398094,None,,,,,,,,,,,,,,,,,,,,,,,,,,,,,,,,,,,,,,,,,,,,,,,,,,,,,,,,,,,,,,,,,20,001,2023_Jan_23_0958,searchDisc5,2021.2.3,59.75259972524412,
,,,,,,,,,,,,,,,,,,,,,,,,,,,,,,,,114.63688350201119,None,2,12.612731159024406,114.63688350201119,None,,,,,,,,,,,,,,,,,,,,,,,,,,,,,,,,,,,,,,,,,,,,,,,,,,,,,,,,,,,20,001,2023_Jan_23_0958,searchDisc5,2021.2.3,59.75259972524412,
,,,,,,,,,,,,,,,,,,,,,,,,,,,,,,,,,,,,,,127.25169136596378,None,2,26.300730999035295,128.23732511798153,None,,,,,,,,,,,,,,,,,,,,,,,,,,,,,,,,,,,,,,,,,,,,,,,,,,,,,20,001,2023_Jan_23_0958,searchDisc5,2021.2.3,59.75259972524412,
,,,,,,,,,,,,,,,,,,,,,,,,,,,,,,,,,,,,,,,,,,,,154.53784917498706,None,2,25.282021926017478,,,,,,,,,,,,,,,,,,,,,,,,,,,,,,,,,,,,,,,,,,,,,,,,,20,001,2023_Jan_23_0958,searchDisc5,2021.2.3,59.75259972524412,
,,,,,,,,,,,,,,,,,,,,,,,,,,,,,,,,,,,,,,,,,,,,,,,,182.81996638298733,None,182.81996638298733,None,2,8.616000871988945,182.81996638298733,None,,,,,,,,,,,,,,,,,,,,,,,,,,,,,,,,,,,,,,,,,20,001,2023_Jan_23_0958,searchDisc5,2021.2.3,59.75259972524412,
Practice arrays/exp1a_trial_14_colour3_distractors31_r.png,r,3,,,,0,0,0,6,,,,,,,,,,,,,,,,,,,,,,,,,,,,,,,,,,,,,,,,,,,,,,,191.47021928901086,None,2,51.73305595695274,191.47021928901086,None,243.25643662398215,None,3,1,2.0683973880368285,243.25643662398215,None,245.320836858009,None,,,,,,,,,,,,,,,,,,,,,,,,,,20,001,2023_Jan_23_0958,searchDisc5,2021.2.3,59.75259972524412,
Practice arrays/exp1a_trial_23_colour2_distractors19_l.png,l,1,,,,0,1,1,10,,,,,,,,,,,,,,,,,,,,,,,,,,,,,,,,,,,,,,,,,,,,,,,247.32367884000996,None,2,1.5137431520270184,247.32367884000996,None,248.89044679899234,None,1,1,1.0477743610390462,248.89044679899234,None,249.93822548701428,None,,,,,,,,,,,,,,,,,,,,,,,,,,20,001,2023_Jan_23_0958,searchDisc5,2021.2.3,59.75259972524412,
Practice arrays/exp1a_trial_16_colour1_distractors4_l.png,l,1,,,,0,2,2,13,,,,,,,,,,,,,,,,,,,,,,,,,,,,,,,,,,,,,,,,,,,,,,,251.9397894240101,None,2,0.6471240969840437,251.9397894240101,None,252.63848182099173,None,1,1,1.1872974910074845,252.63848182099173,None,253.82104895298835,None,,,,,,,,,,,,,,,,,,,,,,,,,,20,001,2023_Jan_23_0958,searchDisc5,2021.2.3,59.75259972524412,
Practice arrays/exp1a_trial_25_colour3_distractors1_l.png,l,1,,,,0,3,3,11,,,,,,,,,,,,,,,,,,,,,,,,,,,,,,,,,,,,,,,,,,,,,,,255.82376414799364,None,2,0.6139095309772529,255.82376414799364,None,256.48850936000235,None,1,1,0.8215937130153179,256.48850936000235,None,257.3051195599837,None,,,,,,,,,,,,,,,,,,,,,,,,,,20,001,2023_Jan_23_0958,searchDisc5,2021.2.3,59.75259972524412,
Practice arrays/exp1a_trial_1_colour1_distractors4_r.png,r,3,,,,0,4,4,1,,,,,,,,,,,,,,,,,,,,,,,,,,,,,,,,,,,,,,,,,,,,,,,259.30678213201463,None,2,1.1472585910232738,259.30678213201463,None,260.50517586199567,None,3,1,0.786721320997458,260.50517586199567,None,261.28844616096467,None,,,,,,,,,,,,,,,,,,,,,,,,,,20,001,2023_Jan_23_0958,searchDisc5,2021.2.3,59.75259972524412,
Practice arrays/exp1a_trial_0_colour1_distractors1_r.png,r,3,,,,0,5,5,0,,,,,,,,,,,,,,,,,,,,,,,,,,,,,,,,,,,,,,,,,,,,,,,263.29078494600253,None,2,1.1305978869786486,263.29078494600253,None,264.47195331699913,None,3,1,0.8215040920185857,264.47195331699913,None,265.2881256469991,None,,,,,,,,,,,,,,,,,,,,,,,,,,20,001,2023_Jan_23_0958,searchDisc5,2021.2.3,59.75259972524412,
Practice arrays/exp1a_trial_18_colour1_distractors19_l.png,l,1,,,,0,6,6,8,,,,,,,,,,,,,,,,,,,,,,,,,,,,,,,,,,,,,,,,,,,,,,,267.2904705830151,None,2,1.014061929017771,267.2904705830151,None,268.35769808199257,None,1,1,0.7165149089996703,268.35769808199257,None,269.0720838140114,None,,,,,,,,,,,,,,,,,,,,,,,,,,20,001,2023_Jan_23_0958,searchDisc5,2021.2.3,59.75259972524412,
Practice arrays/exp1a_trial_27_colour3_distractors9_l.png,l,1,,,,0,7,7,12,,,,,,,,,,,,,,,,,,,,,,,,,,,,,,,,,,,,,,,,,,,,,,,271.074031163007,None,2,0.6139481650316156,271.074031163007,None,271.73885766096646,None,1,1,0.6862718909978867,271.73885766096646,None,272.4219806509791,None,,,,,,,,,,,,,,,,,,,,,,,,,,20,001,2023_Jan_23_0958,searchDisc5,2021.2.3,59.75259972524412,
Practice arrays/exp1a_trial_8_colour2_distractors19_r.png,r,3,,,,0,8,8,3,,,,,,,,,,,,,,,,,,,,,,,,,,,,,,,,,,,,,,,,,,,,,,,274.42419144901214,None,2,0.6137967059621587,274.42419144901214,None,275.0910132119898,None,3,1,0.8331614569760859,275.0910132119898,None,275.92213007301325,None,,,,,,,,,,,,,,,,,,,,,,,,,,20,001,2023_Jan_23_0958,searchDisc5,2021.2.3,59.75259972524412,
Practice arrays/exp1a_trial_7_colour2_distractors9_r.png,r,3,,,,0,9,9,2,,,,,,,,,,,,,,,,,,,,,,,,,,,,,,,,,,,,,,,,,,,,,,,277.92429849196924,None,2,1.180664617975708,277.92429849196924,None,279.15737091499614,None,3,1,0.6516372130136006,279.15737091499614,None,279.80556413001614,None,,,,,,,,,,,,,,,,,,,,,,,,,,20,001,2023_Jan_23_0958,searchDisc5,2021.2.3,59.75259972524412,
Practice arrays/exp1a_trial_30_colour0_distractors0_r.png,r,3,,,,0,10,10,14,,,,,,,,,,,,,,,,,,,,,,,,,,,,,,,,,,,,,,,,,,,,,,,281.8073456119746,None,2,1.1309661470004357,281.8073456119746,None,282.98946021398297,None,3,1,0.6367570809670724,282.98946021398297,None,283.62244945496786,None,,,,,,,,,,,,,,,,,,,,,,,,,,20,001,2023_Jan_23_0958,searchDisc5,2021.2.3,59.75259972524412,
Practice arrays/exp1a_trial_10_colour3_distractors1_r.png,r,3,,,,0,11,11,4,,,,,,,,,,,,,,,,,,,,,,,,,,,,,,,,,,,,,,,,,,,,,,,285.62474501901306,None,2,0.9971593900118023,285.62474501901306,None,286.67265366000356,None,3,1,0.6186615279875696,286.67265366000356,None,287.2893399029854,None,,,,,,,,,,,,,,,,,,,,,,,,,,20,001,2023_Jan_23_0958,searchDisc5,2021.2.3,59.75259972524412,
Practice arrays/exp1a_trial_31_colour0_distractors0_l.png,l,1,,,,0,12,12,15,,,,,,,,,,,,,,,,,,,,,,,,,,,,,,,,,,,,,,,,,,,,,,,289.2910724239773,None,2,1.7303026609588414,289.2910724239773,None,291.0728707519593,None,1,1,0.6720499930088408,291.0728707519593,None,291.7394390999689,None,,,,,,,,,,,,,,,,,,,,,,,,,,20,001,2023_Jan_23_0958,searchDisc5,2021.2.3,59.75259972524412,
Practice arrays/exp1a_trial_21_colour2_distractors4_l.png,l,1,,,,0,13,13,9,,,,,,,,,,,,,,,,,,,,,,,,,,,,,,,,,,,,,,,,,,,,,,,293.74104090500623,None,2,1.4492349029751495,293.74104090500623,None,295.24201694497606,None,1,1,0.8517913550022058,295.24201694497606,None,296.0894326000125,None,,,,,,,,,,,,,,,,,,,,,,,,,,20,001,2023_Jan_23_0958,searchDisc5,2021.2.3,59.75259972524412,
Practice arrays/exp1a_trial_17_colour1_distractors9_l.png,l,1,,,,0,14,14,7,,,,,,,,,,,,,,,,,,,,,,,,,,,,,,,,,,,,,,,,,,,,,,,298.09161490696715,None,2,1.6474549809936434,298.09161490696715,None,299.79180068697315,None,1,1,0.7189785109949298,299.79180068697315,None,300.5062974260072,None,,,,,,,,,,,,,,,,,,,,,,,,,,20,001,2023_Jan_23_0958,searchDisc5,2021.2.3,59.75259972524412,
Practice arrays/exp1a_trial_12_colour3_distractors9_r.png,r,3,,,,0,15,15,5,,,,,,,,,,,,,,,,,,,,,,,,,,,,,,,,,,,,,,,,,,,,,,,302.50846888299566,None,2,1.0825038160546683,302.50846888299566,None,303.6418732390157,None,3,1,0.7005297319847159,303.6418732390157,None,304.33971442998154,None,,,,,,,,,,,,,,,,,,,,,,,,,,20,001,2023_Jan_23_0958,searchDisc5,2021.2.3,59.75259972524412,
,,,,,,,,,,,,,,,,,,,,,,,,,,,,,,,,,,,,,,,,,,,,,,,,,,,,,,,,,,,,,,,,,,,,,,,306.4249026890029,None,2,15.685047220031265,307.4085552569595,None,,,,,,,,,,,,,,,,,,,,20,001,2023_Jan_23_0958,searchDisc5,2021.2.3,59.75259972524412,
images/exp2a_trial_205_colour3_distractors19_r.png,r,3,3,19,0,,,,,0,0,0,0,,,,,,,,,,,,,,,,,,,,,,,,,,,,,,,,,,,,,,,,,,,333.69036327599315,None,2,1.6454256720026024,333.69036327599315,None,,,,,,,,,,,,,,,,323.692852490989,None,2,8.01498887402704,325.6756351349759,None,335.39048718096456,None,3,1,0.6129186100442894,335.39048718096456,None,336.0239392108167,None,None,None,None,,20,001,2023_Jan_23_0958,searchDisc5,2021.2.3,59.75259972524412,
images/exp2a_trial_3_colour1_distractors19_r.png,r,3,1,19,0,,,,,0,1,1,1,,,,,,,,,,,,,,,,,,,,,,,,,,,,,,,,,,,,,,,,,,,336.0410570100066,None,2,1.1241313859936781,336.0410570100066,None,,,,,,,,,,,,,,,,None,None,None,,None,None,337.21190850198036,None,1,0,0.6310135279782116,337.21190850198036,None,337.84061889286966,None,None,None,None,,20,001,2023_Jan_23_0958,searchDisc5,2021.2.3,59.75259972524412,
images/exp2c_trial_0_colour1_distractors1_r.png,r,3,1,1,0,,,,,0,2,2,2,,,,,,,,,,,,,,,,,,,,,,,,,,,,,,,,,,,,,,,,,,,337.8580697950092,None,2,0.7678540250053629,337.8580697950092,None,,,,,,,,,,,,,,,,None,None,None,,None,None,338.6743356969673,None,3,1,0.638698561990168,338.6743356969673,None,339.30725590186773,None,None,None,None,,20,001,2023_Jan_23_0958,searchDisc5,2021.2.3,59.75259972524412,
images/exp2a_trial_68_colour1_distractors31_r.png,r,3,1,31,0,,,,,0,3,3,3,,,,,,,,,,,,,,,,,,,,,,,,,,,,,,,,,,,,,,,,,,,339.32409193296917,None,2,1.1382963419891894,339.32409193296917,None,,,,,,,,,,,,,,,,None,None,None,,None,None,340.51036220096285,None,3,1,0.6667547330143861,340.51036220096285,None,341.1739670948649,None,None,None,None,,20,001,2023_Jan_23_0958,searchDisc5,2021.2.3,59.75259972524412,
images/exp2a_trial_246_colour2_distractors9_l.png,l,1,2,9,0,,,,,0,4,4,4,,,,,,,,,,,,,,,,,,,,,,,,,,,,,,,,,,,,,,,,,,,341.1908225659863,None,2,0.8529368729796261,341.1908225659863,None,,,,,,,,,,,,,,,,None,None,None,,None,None,342.0935283579747,None,1,1,0.9505113829509355,342.0935283579747,None,343.0407335978874,None,None,None,None,,20,001,2023_Jan_23_0958,searchDisc5,2021.2.3,59.75259972524412,
images/exp1a_trial_57_colour3_distractors1_l.png,l,1,3,1,0,,,,,0,5,5,5,,,,,,,,,,,,,,,,,,,,,,,,,,,,,,,,,,,,,,,,,,,343.05776771198725,None,2,0.6714780550100841,343.05776771198725,None,,,,,,,,,,,,,,,,None,None,None,,None,None,343.7740618949756,None,1,1,0.7241549040190876,343.7740618949756,None,344.4930239858862,None,None,None,None,,20,001,2023_Jan_23_0958,searchDisc5,2021.2.3,59.75259972524412,
images/exp2b_trial_272_colour1_distractors4_l.png,l,1,1,4,0,,,,,0,6,6,6,,,,,,,,,,,,,,,,,,,,,,,,,,,,,,,,,,,,,,,,,,,344.5079690149869,None,2,0.7524488979834132,344.5079690149869,None,,,,,,,,,,,,,,,,None,None,None,,None,None,345.3069737670012,None,1,1,0.9197651029680856,345.3069737670012,None,346.2251008768857,None,None,None,None,,20,001,2023_Jan_23_0958,searchDisc5,2021.2.3,59.75259972524412,
images/exp2b_trial_11_colour3_distractors4_r.png,r,3,3,4,0,,,,,0,7,7,7,,,,,,,,,,,,,,,,,,,,,,,,,,,,,,,,,,,,,,,,,,,346.2428953659837,None,2,0.7038469910039566,346.2428953659837,None,,,,,,,,,,,,,,,,None,None,None,,None,None,346.9937016770127,None,3,1,0.7546279930393212,346.9937016770127,None,347.74080085388266,None,None,None,None,,20,001,2023_Jan_23_0958,searchDisc5,2021.2.3,59.75259972524412,
images/exp2b_trial_236_colour3_distractors9_r.png,r,3,3,9,0,,,,,0,8,8,8,,,,,,,,,,,,,,,,,,,,,,,,,,,,,,,,,,,,,,,,,,,347.7575346179656,None,2,0.7234817480202764,347.7575346179656,None,,,,,,,,,,,,,,,,None,None,None,,None,None,348.5263965309714,None,3,1,0.6540759400231764,348.5263965309714,None,349.1751541249163,None,None,None,None,,20,001,2023_Jan_23_0958,searchDisc5,2021.2.3,59.75259972524412,
images/exp2a_trial_35_colour1_distractors19_r.png,r,3,1,19,0,,,,,0,9,9,9,,,,,,,,,,,,,,,,,,,,,,,,,,,,,,,,,,,,,,,,,,,349.1910170139745,None,2,0.7698974689701572,349.1910170139745,None,,,,,,,,,,,,,,,,None,None,None,,None,None,350.0077938809991,None,3,1,0.7693605439853854,350.0077938809991,None,350.77502651990505,None,None,None,None,,20,001,2023_Jan_23_0958,searchDisc5,2021.2.3,59.75259972524412,
images/exp2b_trial_200_colour2_distractors19_r.png,r,3,2,19,0,,,,,0,10,10,10,,,,,,,,,,,,,,,,,,,,,,,,,,,,,,,,,,,,,,,,,,,350.79061217501294,None,2,0.7713592469808646,350.79061217501294,None,,,,,,,,,,,,,,,,None,None,None,,None,None,351.60892196401255,None,3,1,0.6165788960061036,351.60892196401255,None,352.2252810308768,None,None,None,None,,20,001,2023_Jan_23_0958,searchDisc5,2021.2.3,59.75259972524412,
images/exp2a_trial_156_colour3_distractors19_l.png,l,1,3,19,0,,,,,0,11,11,11,,,,,,,,,,,,,,,,,,,,,,,,,,,,,,,,,,,,,,,,,,,352.24027912697056,None,2,0.7583234149497002,352.24027912697056,None,,,,,,,,,,,,,,,,None,None,None,,None,None,353.0431009649765,None,1,1,0.6831542139989324,353.0431009649765,None,353.7254909288662,None,None,None,None,,20,001,2023_Jan_23_0958,searchDisc5,2021.2.3,59.75259972524412,
images/exp2b_trial_157_colour3_distractors31_l.png,l,1,3,31,0,,,,,0,12,12,12,,,,,,,,,,,,,,,,,,,,,,,,,,,,,,,,,,,,,,,,,,,353.74360351701034,None,2,0.7876833180198446,353.74360351701034,None,,,,,,,,,,,,,,,,None,None,None,,None,None,354.57510531600565,None,1,1,0.6345354109653272,354.57510531600565,None,355.20748654188935,None,None,None,None,,20,001,2023_Jan_23_0958,searchDisc5,2021.2.3,59.75259972524412,
images/exp2a_trial_264_colour2_distractors19_r.png,r,3,2,19,0,,,,,0,13,13,13,,,,,,,,,,,,,,,,,,,,,,,,,,,,,,,,,,,,,,,,,,,355.22454385401215,None,2,0.6911029940238222,355.22454385401215,None,,,,,,,,,,,,,,,,None,None,None,,None,None,355.9669498419971,None,3,1,0.5934562489856035,355.9669498419971,None,356.55944788089835,None,None,None,None,,20,001,2023_Jan_23_0958,searchDisc5,2021.2.3,59.75259972524412,
images/exp2c_trial_28_colour3_distractors19_l.png,l,1,3,19,0,,,,,0,14,14,14,,,,,,,,,,,,,,,,,,,,,,,,,,,,,,,,,,,,,,,,,,,356.57532127399463,None,2,0.7051140440162271,356.57532127399463,None,,,,,,,,,,,,,,,,None,None,None,,None,None,357.32457539997995,None,1,1,0.850852926960215,357.32457539997995,None,358.1744168138888,None,None,None,None,,20,001,2023_Jan_23_0958,searchDisc5,2021.2.3,59.75259972524412,
images/exp2b_trial_30_colour0_distractors0_r.png,r,3,0,0,0,,,,,0,15,15,15,,,,,,,,,,,,,,,,,,,,,,,,,,,,,,,,,,,,,,,,,,,358.1909834819962,None,2,0.656506123021245,358.1909834819962,None,,,,,,,,,,,,,,,,None,None,None,,None,None,358.89182698499644,None,3,1,0.619423582975287,358.89182698499644,None,359.51096147386704,None,None,None,None,,20,001,2023_Jan_23_0958,searchDisc5,2021.2.3,59.75259972524412,
images/exp1a_trial_56_colour2_distractors31_l.png,l,1,2,31,0,,,,,0,16,16,16,,,,,,,,,,,,,,,,,,,,,,,,,,,,,,,,,,,,,,,,,,,359.5272478609695,None,2,0.5511504280148074,359.5272478609695,None,,,,,,,,,,,,,,,,None,None,None,,None,None,360.1276053079637,None,1,1,0.7492678330163471,360.1276053079637,None,360.87466900086145,None,None,None,None,,20,001,2023_Jan_23_0958,searchDisc5,2021.2.3,59.75259972524412,
images/exp2a_trial_170_colour3_distractors1_r.png,r,3,3,1,0,,,,,0,17,17,17,,,,,,,,,,,,,,,,,,,,,,,,,,,,,,,,,,,,,,,,,,,360.8910474299919,None,2,0.6382393859676085,360.8910474299919,None,,,,,,,,,,,,,,,,None,None,None,,None,None,361.57568511296995,None,3,1,0.5697612310177647,361.57568511296995,None,362.1411726079008,None,None,None,None,,20,001,2023_Jan_23_0958,searchDisc5,2021.2.3,59.75259972524412,
images/exp2b_trial_149_colour2_distractors4_l.png,l,1,2,4,0,,,,,0,18,18,18,,,,,,,,,,,,,,,,,,,,,,,,,,,,,,,,,,,,,,,,,,,362.1600586010027,None,2,0.6404373869881965,362.1600586010027,None,,,,,,,,,,,,,,,,None,None,None,,None,None,362.84176505496725,None,1,1,0.6027764370082878,362.84176505496725,None,363.4412100208632,None,None,None,None,,20,001,2023_Jan_23_0958,searchDisc5,2021.2.3,59.75259972524412,
images/exp1a_trial_220_colour3_distractors19_l.png,l,1,3,19,0,,,,,0,19,19,19,,,,,,,,,,,,,,,,,,,,,,,,,,,,,,,,,,,,,,,,,,,363.45796422299463,None,2,0.637709895032458,363.45796422299463,None,,,,,,,,,,,,,,,,None,None,None,,None,None,364.1417603659793,None,1,1,0.5528465789975598,364.1417603659793,None,364.6922536168771,None,None,None,None,,20,001,2023_Jan_23_0958,searchDisc5,2021.2.3,59.75259972524412,
images/exp2b_trial_299_colour3_distractors4_r.png,r,3,3,4,0,,,,,0,20,20,20,,,,,,,,,,,,,,,,,,,,,,,,,,,,,,,,,,,,,,,,,,,364.70778512000106,None,2,0.41910974599886686,364.70778512000106,None,,,,,,,,,,,,,,,,None,None,None,,None,None,365.1772228179616,None,3,1,0.6047238620230928,365.1772228179616,None,365.7746996388945,None,None,None,None,,20,001,2023_Jan_23_0958,searchDisc5,2021.2.3,59.75259972524412,
images/exp2a_trial_159_colour0_distractors0_l.png,l,1,0,0,0,,,,,0,21,21,21,,,,,,,,,,,,,,,,,,,,,,,,,,,,,,,,,,,,,,,,,,,365.7916562499595,None,2,0.43935435701860115,365.7916562499595,None,,,,,,,,,,,,,,,,None,None,None,,None,None,366.2755495319725,None,1,1,0.4387462949962355,366.2755495319725,None,366.7090238838631,None,None,None,None,,20,001,2023_Jan_23_0958,searchDisc5,2021.2.3,59.75259972524412,
images/exp2b_trial_45_colour3_distractors19_r.png,r,3,3,19,0,,,,,0,22,22,22,,,,,,,,,,,,,,,,,,,,,,,,,,,,,,,,,,,,,,,,,,,366.7249239329831,None,2,0.471768423973117,366.7249239329831,None,,,,,,,,,,,,,,,,None,None,None,,None,None,367.24350844998844,None,3,1,0.5202310500317253,367.24350844998844,None,367.7580082358967,None,None,None,None,,20,001,2023_Jan_23_0958,searchDisc5,2021.2.3,59.75259972524412,
images/exp2c_trial_169_colour2_distractors31_r.png,r,3,2,31,0,,,,,0,23,23,23,,,,,,,,,,,,,,,,,,,,,,,,,,,,,,,,,,,,,,,,,,,367.77553091198206,None,2,0.43750804400769994,367.77553091198206,None,,,,,,,,,,,,,,,,None,None,None,,None,None,368.2596559720114,None,3,1,0.7679771700059064,368.2596559720114,None,369.0259754298662,None,None,None,None,,20,001,2023_Jan_23_0958,searchDisc5,2021.2.3,59.75259972524412,
images/exp2a_trial_211_colour1_distractors31_l.png,l,1,1,31,0,,,,,0,24,24,24,,,,,,,,,,,,,,,,,,,,,,,,,,,,,,,,,,,,,,,,,,,369.04409595701145,None,2,0.45424765499774367,369.04409595701145,None,,,,,,,,,,,,,,,,None,None,None,,None,None,369.5409040079685,None,1,1,0.6022081259870902,369.5409040079685,None,370.1413954318908,None,None,None,None,,20,001,2023_Jan_23_0958,searchDisc5,2021.2.3,59.75259972524412,
images/exp2b_trial_151_colour2_distractors19_l.png,l,1,2,19,0,,,,,0,25,25,25,,,,,,,,,,,,,,,,,,,,,,,,,,,,,,,,,,,,,,,,,,,370.1591211410123,None,2,0.5046607989934273,370.1591211410123,None,,,,,,,,,,,,,,,,None,None,None,,None,None,370.70781315496424,None,1,1,0.5178787389886566,370.70781315496424,None,371.22421338089623,None,None,None,None,,20,001,2023_Jan_23_0958,searchDisc5,2021.2.3,59.75259972524412,
images/exp1a_trial_298_colour3_distractors1_r.png,r,3,3,1,0,,,,,0,26,26,26,,,,,,,,,,,,,,,,,,,,,,,,,,,,,,,,,,,,,,,,,,,371.24440499796765,None,2,0.5073830760084093,371.24440499796765,None,,,,,,,,,,,,,,,,None,None,None,,None,None,371.7940268049715,None,3,1,0.6193277700222097,371.7940268049715,None,372.4081009599089,None,None,None,None,,20,001,2023_Jan_23_0958,searchDisc5,2021.2.3,59.75259972524412,
images/exp2a_trial_290_colour1_distractors9_r.png,r,3,1,9,0,,,,,0,27,27,27,,,,,,,,,,,,,,,,,,,,,,,,,,,,,,,,,,,,,,,,,,,372.425371004967,None,2,0.4710252789664082,372.425371004967,None,,,,,,,,,,,,,,,,None,None,None,,None,None,372.9425415309961,None,3,1,0.5521122629870661,372.9425415309961,None,373.49260785990043,None,None,None,None,,20,001,2023_Jan_23_0958,searchDisc5,2021.2.3,59.75259972524412,
images/exp2b_trial_282_colour3_distractors4_l.png,l,1,3,4,0,,,,,0,28,28,28,,,,,,,,,,,,,,,,,,,,,,,,,,,,,,,,,,,,,,,,,,,373.50869634299306,None,2,0.6056475450168364,373.50869634299306,None,,,,,,,,,,,,,,,,None,None,None,,None,None,374.15830441500293,None,1,1,0.5195262930355966,374.15830441500293,None,374.6748488599027,None,None,None,None,,20,001,2023_Jan_23_0958,searchDisc5,2021.2.3,59.75259972524412,
images/exp2c_trial_1_colour1_distractors4_r.png,r,3,1,4,0,,,,,0,29,29,29,,,,,,,,,,,,,,,,,,,,,,,,,,,,,,,,,,,,,,,,,,,374.69152079499327,None,2,0.506775041052606,374.69152079499327,None,,,,,,,,,,,,,,,,None,None,None,,None,None,375.24275247199694,None,3,1,0.5018136160215363,375.24275247199694,None,375.74163934088426,None,None,None,None,,20,001,2023_Jan_23_0958,searchDisc5,2021.2.3,59.75259972524412,
images/exp2b_trial_195_colour1_distractors19_r.png,r,3,1,19,0,,,,,0,30,30,30,,,,,,,,,,,,,,,,,,,,,,,,,,,,,,,,,,,,,,,,,,,375.75880737497937,None,2,0.4879903520341031,375.75880737497937,None,,,,,,,,,,,,,,,,None,None,None,,None,None,376.2940972420038,None,3,1,0.6696907830191776,376.2940972420038,None,376.95848882286225,None,None,None,None,,20,001,2023_Jan_23_0958,searchDisc5,2021.2.3,59.75259972524412,
images/exp2c_trial_193_colour1_distractors4_r.png,r,3,1,4,0,,,,,0,31,31,31,,,,,,,,,,,,,,,,,,,,,,,,,,,,,,,,,,,,,,,,,,,376.9749419770087,None,2,0.48763740598224103,376.9749419770087,None,,,,,,,,,,,,,,,,None,None,None,,None,None,377.51146134897135,None,3,1,0.5374924819916487,377.51146134897135,None,378.041688859876,None,None,None,None,,20,001,2023_Jan_23_0958,searchDisc5,2021.2.3,59.75259972524412,
images/exp2a_trial_174_colour3_distractors31_r.png,r,3,3,31,0,,,,,0,32,32,32,,,,,,,,,,,,,,,,,,,,,,,,,,,,,,,,,,,,,,,,,,,378.0590991759673,None,2,0.48802906699711457,378.0590991759673,None,,,,,,,,,,,,,,,,None,None,None,,None,None,378.59182594297454,None,3,1,0.5858689050073735,378.59182594297454,None,379.1760919998691,None,None,None,None,,20,001,2023_Jan_23_0958,searchDisc5,2021.2.3,59.75259972524412,
images/exp2c_trial_174_colour3_distractors31_r.png,r,3,3,31,0,,,,,0,33,33,33,,,,,,,,,,,,,,,,,,,,,,,,,,,,,,,,,,,,,,,,,,,379.19221376097994,None,2,0.4398750769905746,379.19221376097994,None,,,,,,,,,,,,,,,,None,None,None,,None,None,379.67513083998347,None,3,1,0.5995439329999499,379.67513083998347,None,380.2760302829032,None,None,None,None,,20,001,2023_Jan_23_0958,searchDisc5,2021.2.3,59.75259972524412,
images/exp2c_trial_105_colour2_distractors31_r.png,r,3,2,31,0,,,,,0,34,34,34,,,,,,,,,,,,,,,,,,,,,,,,,,,,,,,,,,,,,,,,,,,380.29219140298665,None,2,0.47186106495792046,380.29219140298665,None,,,,,,,,,,,,,,,,None,None,None,,None,None,380.8082441659644,None,3,1,0.6194123619934544,380.8082441659644,None,381.4252057658799,None,None,None,None,,20,001,2023_Jan_23_0958,searchDisc5,2021.2.3,59.75259972524412,
images/exp1a_trial_151_colour2_distractors19_l.png,l,1,2,19,0,,,,,0,35,35,35,,,,,,,,,,,,,,,,,,,,,,,,,,,,,,,,,,,,,,,,,,,381.4444811809808,None,2,0.5023120289552025,381.4444811809808,None,,,,,,,,,,,,,,,,None,None,None,,None,None,381.9944965169998,None,3,0,0.684052471013274,381.9944965169998,None,382.6751991158875,None,None,None,None,,20,001,2023_Jan_23_0958,searchDisc5,2021.2.3,59.75259972524412,
images/exp1a_trial_164_colour1_distractors31_r.png,r,3,1,31,0,,,,,0,36,36,36,,,,,,,,,,,,,,,,,,,,,,,,,,,,,,,,,,,,,,,,,,,382.6917073709774,None,2,0.5204626219929196,382.6917073709774,None,,,,,,,,,,,,,,,,None,None,None,,None,None,383.261670419015,None,3,1,1.234434361977037,383.261670419015,None,384.4927967368916,None,None,None,None,,20,001,2023_Jan_23_0958,searchDisc5,2021.2.3,59.75259972524412,
images/exp2a_trial_268_colour3_distractors9_r.png,r,3,3,9,0,,,,,0,37,37,37,,,,,,,,,,,,,,,,,,,,,,,,,,,,,,,,,,,,,,,,,,,384.5088743439992,None,2,0.40428076998796314,384.5088743439992,None,,,,,,,,,,,,,,,,None,None,None,,None,None,384.96164673101157,None,3,1,0.6197694639558904,384.96164673101157,None,385.5751546578889,None,None,None,None,,20,001,2023_Jan_23_0958,searchDisc5,2021.2.3,59.75259972524412,
images/exp1a_trial_317_colour3_distractors31_l.png,l,1,3,31,0,,,,,0,38,38,38,,,,,,,,,,,,,,,,,,,,,,,,,,,,,,,,,,,,,,,,,,,385.59257637901464,None,2,0.5043808129848912,385.59257637901464,None,,,,,,,,,,,,,,,,None,None,None,,None,None,386.14397887396626,None,1,1,0.7668015570379794,386.14397887396626,None,386.90966268489717,None,None,None,None,,20,001,2023_Jan_23_0958,searchDisc5,2021.2.3,59.75259972524412,
images/exp2a_trial_190_colour0_distractors0_r.png,r,3,0,0,0,,,,,0,39,39,39,,,,,,,,,,,,,,,,,,,,,,,,,,,,,,,,,,,,,,,,,,,386.9251264879713,None,2,0.37026855297153816,386.9251264879713,None,,,,,,,,,,,,,,,,None,None,None,,None,None,387.3441139910137,None,3,1,0.9729405730031431,387.3441139910137,None,388.30952975387333,None,None,None,None,,20,001,2023_Jan_23_0958,searchDisc5,2021.2.3,59.75259972524412,
images/exp1a_trial_119_colour2_distractors19_l.png,l,1,2,19,0,,,,,0,40,40,40,,,,,,,,,,,,,,,,,,,,,,,,,,,,,,,,,,,,,,,,,,,388.32532014796743,None,2,0.3871411129948683,388.32532014796743,None,,,,,,,,,,,,,,,,None,None,None,,None,None,388.7597957229591,None,1,1,0.7343829540186562,388.7597957229591,None,389.4929130738659,None,None,None,None,,20,001,2023_Jan_23_0958,searchDisc5,2021.2.3,59.75259972524412,
images/exp2b_trial_252_colour3_distractors19_l.png,l,1,3,19,0,,,,,0,41,41,41,,,,,,,,,,,,,,,,,,,,,,,,,,,,,,,,,,,,,,,,,,,389.50894280400826,None,2,0.3877594119985588,389.50894280400826,None,,,,,,,,,,,,,,,,None,None,None,,None,None,389.94306600198615,None,1,1,0.8523586560040712,389.94306600198615,None,390.7921268759004,None,None,None,None,,20,001,2023_Jan_23_0958,searchDisc5,2021.2.3,59.75259972524412,
images/exp1a_trial_216_colour2_distractors31_l.png,l,1,2,31,0,,,,,0,42,42,42,,,,,,,,,,,,,,,,,,,,,,,,,,,,,,,,,,,,,,,,,,,390.8115159109584,None,2,0.3562895999639295,390.8115159109584,None,,,,,,,,,,,,,,,,None,None,None,,None,None,391.21147684700554,None,1,1,0.9307967719505541,391.21147684700554,None,392.1421348308853,None,None,None,None,,20,001,2023_Jan_23_0958,searchDisc5,2021.2.3,59.75259972524412,
images/exp2a_trial_267_colour3_distractors4_r.png,r,3,3,4,0,,,,,0,43,43,43,,,,,,,,,,,,,,,,,,,,,,,,,,,,,,,,,,,,,,,,,,,392.15911838400643,None,2,0.5044915939797647,392.15911838400643,None,,,,,,,,,,,,,,,,None,None,None,,None,None,392.71000982797705,None,3,1,0.6049273039679974,392.71000982797705,None,393.3086313738662,None,None,None,None,,20,001,2023_Jan_23_0958,searchDisc5,2021.2.3,59.75259972524412,
images/exp2a_trial_168_colour2_distractors19_r.png,r,3,2,19,0,,,,,0,44,44,44,,,,,,,,,,,,,,,,,,,,,,,,,,,,,,,,,,,,,,,,,,,393.3257498369785,None,2,0.5546145570115186,393.3257498369785,None,,,,,,,,,,,,,,,,None,None,None,,None,None,393.9258773379843,None,3,1,1.6984220700105652,393.9258773379843,None,395.6265810969111,None,None,None,None,,20,001,2023_Jan_23_0958,searchDisc5,2021.2.3,59.75259972524412,
images/exp2c_trial_170_colour3_distractors1_r.png,r,3,3,1,0,,,,,0,45,45,45,,,,,,,,,,,,,,,,,,,,,,,,,,,,,,,,,,,,,,,,,,,395.64141666301293,None,2,0.42119756201282144,395.64141666301293,None,,,,,,,,,,,,,,,,None,None,None,,None,None,396.10809304198483,None,3,1,0.7705321229877882,396.10809304198483,None,396.8755072988628,None,None,None,None,,20,001,2023_Jan_23_0958,searchDisc5,2021.2.3,59.75259972524412,
images/exp2b_trial_237_colour3_distractors19_r.png,r,3,3,19,0,,,,,0,46,46,46,,,,,,,,,,,,,,,,,,,,,,,,,,,,,,,,,,,,,,,,,,,396.89284008101095,None,2,0.42619221401400864,396.89284008101095,None,,,,,,,,,,,,,,,,None,None,None,,None,None,397.3611951089697,None,3,1,0.9644930920330808,397.3611951089697,None,398.32556541491647,None,None,None,None,,20,001,2023_Jan_23_0958,searchDisc5,2021.2.3,59.75259972524412,
images/exp1a_trial_102_colour2_distractors4_r.png,r,3,2,4,0,,,,,0,47,47,47,,,,,,,,,,,,,,,,,,,,,,,,,,,,,,,,,,,,,,,,,,,398.34225315600634,None,2,0.4387455410324037,398.34225315600634,None,,,,,,,,,,,,,,,,None,None,None,,None,None,398.8280669240048,None,3,1,0.737955697986763,398.8280669240048,None,399.5585256209073,None,None,None,None,,20,001,2023_Jan_23_0958,searchDisc5,2021.2.3,59.75259972524412,
images/exp2b_trial_5_colour2_distractors1_r.png,r,3,2,1,0,,,,,0,48,48,48,,,,,,,,,,,,,,,,,,,,,,,,,,,,,,,,,,,,,,,,,,,399.5766737679951,None,2,0.4551864850218408,399.5766737679951,None,,,,,,,,,,,,,,,,None,None,None,,None,None,400.076343624969,None,3,1,0.6854336619726382,400.076343624969,None,400.75837407890356,None,None,None,None,,20,001,2023_Jan_23_0958,searchDisc5,2021.2.3,59.75259972524412,
images/exp1a_trial_89_colour3_distractors1_l.png,l,1,3,1,0,,,,,0,49,49,49,,,,,,,,,,,,,,,,,,,,,,,,,,,,,,,,,,,,,,,,,,,400.7766257749754,None,2,0.5060195210389793,400.7766257749754,None,,,,,,,,,,,,,,,,None,None,None,,None,None,401.3287623379729,None,1,1,0.6210980180185288,401.3287623379729,None,401.9423465099011,None,None,None,None,,20,001,2023_Jan_23_0958,searchDisc5,2021.2.3,59.75259972524412,
images/exp1a_trial_145_colour1_distractors9_l.png,l,1,1,9,0,,,,,0,50,50,50,,,,,,,,,,,,,,,,,,,,,,,,,,,,,,,,,,,,,,,,,,,401.95899426500546,None,2,0.40649684699019417,401.95899426500546,None,,,,,,,,,,,,,,,,None,None,None,,None,None,402.4120735700126,None,1,1,0.9195865789661184,402.4120735700126,None,403.3256203729019,None,None,None,None,,20,001,2023_Jan_23_0958,searchDisc5,2021.2.3,59.75259972524412,
images/exp2a_trial_270_colour3_distractors31_r.png,r,3,3,31,0,,,,,0,51,51,51,,,,,,,,,,,,,,,,,,,,,,,,,,,,,,,,,,,,,,,,,,,403.3427145489841,None,2,0.5557430289918557,403.3427145489841,None,,,,,,,,,,,,,,,,None,None,None,,None,None,403.9448155220016,None,3,1,0.83203033299651,403.9448155220016,None,404.7757733768725,None,None,None,None,,20,001,2023_Jan_23_0958,searchDisc5,2021.2.3,59.75259972524412,
images/exp2a_trial_78_colour3_distractors31_r.png,r,3,3,31,0,,,,,0,52,52,52,,,,,,,,,,,,,,,,,,,,,,,,,,,,,,,,,,,,,,,,,,,404.7929312729975,None,2,0.7053754620137624,404.7929312729975,None,,,,,,,,,,,,,,,,None,None,None,,None,None,405.54546825098805,None,3,1,0.7347235539928079,405.54546825098805,None,406.27584916586636,None,None,None,None,,20,001,2023_Jan_23_0958,searchDisc5,2021.2.3,59.75259972524412,
images/exp2c_trial_42_colour3_distractors1_r.png,r,3,3,1,0,,,,,0,53,53,53,,,,,,,,,,,,,,,,,,,,,,,,,,,,,,,,,,,,,,,,,,,406.2931191659882,None,2,0.7877783750300296,406.2931191659882,None,,,,,,,,,,,,,,,,None,None,None,,None,None,407.12659007898765,None,3,1,0.6544547380181029,407.12659007898765,None,407.7756551828992,None,None,None,None,,20,001,2023_Jan_23_0958,searchDisc5,2021.2.3,59.75259972524412,
images/exp1a_trial_29_colour3_distractors31_l.png,l,1,3,31,0,,,,,0,54,54,54,,,,,,,,,,,,,,,,,,,,,,,,,,,,,,,,,,,,,,,,,,,407.79293569299625,None,2,0.6546914450009353,407.79293569299625,None,,,,,,,,,,,,,,,,None,None,None,,None,None,408.49350944301113,None,1,1,0.7161009479896165,408.49350944301113,None,409.2091934378899,None,None,None,None,,20,001,2023_Jan_23_0958,searchDisc5,2021.2.3,59.75259972524412,
images/exp2c_trial_285_colour3_distractors31_l.png,l,1,3,31,0,,,,,0,55,55,55,,,,,,,,,,,,,,,,,,,,,,,,,,,,,,,,,,,,,,,,,,,409.22591531596845,None,2,0.5380948390229605,409.22591531596845,None,,,,,,,,,,,,,,,,None,None,None,,None,None,409.8110727390158,None,1,1,0.7486565440194681,409.8110727390158,None,410.5592703789065,None,None,None,None,,20,001,2023_Jan_23_0958,searchDisc5,2021.2.3,59.75259972524412,
images/exp2c_trial_12_colour3_distractors9_r.png,r,3,3,9,0,,,,,0,56,56,56,,,,,,,,,,,,,,,,,,,,,,,,,,,,,,,,,,,,,,,,,,,410.5757631390006,None,2,0.4890449360245839,410.5757631390006,None,,,,,,,,,,,,,,,,None,None,None,,None,None,411.11059109901544,None,3,1,0.7696143580251373,411.11059109901544,None,411.8759304548788,None,None,None,None,,20,001,2023_Jan_23_0958,searchDisc5,2021.2.3,59.75259972524412,
images/exp1a_trial_304_colour1_distractors4_l.png,l,1,1,4,0,,,,,0,57,57,57,,,,,,,,,,,,,,,,,,,,,,,,,,,,,,,,,,,,,,,,,,,411.8925165910041,None,2,0.45683986402582377,411.8925165910041,None,,,,,,,,,,,,,,,,None,None,None,,None,None,412.3930162040051,None,1,1,0.8342882400029339,412.3930162040051,None,413.22582689888657,None,None,None,None,,20,001,2023_Jan_23_0958,searchDisc5,2021.2.3,59.75259972524412,
images/exp1a_trial_49_colour1_distractors9_l.png,l,1,1,9,0,,,,,0,58,58,58,,,,,,,,,,,,,,,,,,,,,,,,,,,,,,,,,,,,,,,,,,,413.24327588896267,None,2,0.4085247239563614,413.24327588896267,None,,,,,,,,,,,,,,,,None,None,None,,None,None,413.6955103119835,None,1,1,1.050045290030539,413.6955103119835,None,414.74278021086354,None,None,None,None,,20,001,2023_Jan_23_0958,searchDisc5,2021.2.3,59.75259972524412,
images/exp2a_trial_269_colour3_distractors19_r.png,r,3,3,19,0,,,,,0,59,59,59,,,,,,,,,,,,,,,,,,,,,,,,,,,,,,,,,,,,,,,,,,,414.7606517279637,None,2,0.4550590889994055,414.7606517279637,None,,,,,,,,,,,,,,,,None,None,None,,None,None,415.26109220896615,None,3,1,0.6352385120117106,415.26109220896615,None,415.89268500189644,None,None,None,None,,20,001,2023_Jan_23_0958,searchDisc5,2021.2.3,59.75259972524412,
images/exp2b_trial_194_colour1_distractors9_r.png,r,3,1,9,0,,,,,0,60,60,60,,,,,,,,,,,,,,,,,,,,,,,,,,,,,,,,,,,,,,,,,,,415.9093116649892,None,2,0.457320265006274,415.9093116649892,None,,,,,,,,,,,,,,,,None,None,None,,None,None,416.4115924689686,None,3,1,0.9661152750486508,416.4115924689686,None,417.3760434449126,None,None,None,None,,20,001,2023_Jan_23_0958,searchDisc5,2021.2.3,59.75259972524412,
images/exp2c_trial_117_colour2_distractors4_l.png,l,1,2,4,0,,,,,0,61,61,61,,,,,,,,,,,,,,,,,,,,,,,,,,,,,,,,,,,,,,,,,,,417.3936777060153,None,2,0.43852058600168675,417.3936777060153,None,,,,,,,,,,,,,,,,None,None,None,,None,None,417.8756183019723,None,1,1,0.7705916419508867,417.8756183019723,None,418.64358825889065,None,None,None,None,,20,001,2023_Jan_23_0958,searchDisc5,2021.2.3,59.75259972524412,
images/exp2c_trial_133_colour2_distractors1_r.png,r,3,2,1,0,,,,,0,62,62,62,,,,,,,,,,,,,,,,,,,,,,,,,,,,,,,,,,,,,,,,,,,418.65918730496196,None,2,0.4393330789753236,418.65918730496196,None,,,,,,,,,,,,,,,,None,None,None,,None,None,419.1422304440057,None,3,1,0.7524197599850595,419.1422304440057,None,419.89206227090324,None,None,None,None,,20,001,2023_Jan_23_0958,searchDisc5,2021.2.3,59.75259972524412,
images/exp2c_trial_204_colour3_distractors9_r.png,r,3,3,9,0,,,,,0,63,63,63,,,,,,,,,,,,,,,,,,,,,,,,,,,,,,,,,,,,,,,,,,,419.91007622197503,None,2,0.48967013001674786,419.91007622197503,None,,,,,,,,,,,,,,,,None,None,None,,None,None,420.44365057896357,None,3,1,0.6180974779999815,420.44365057896357,None,421.059480669914,None,None,None,None,,20,001,2023_Jan_23_0958,searchDisc5,2021.2.3,59.75259972524412,
images/exp1a_trial_109_colour3_distractors19_r.png,r,3,3,19,0,,,,,0,64,64,64,,,,,,,,,,,,,,,,,,,,,,,,,,,,,,,,,,,,,,,,,,,421.0782079679775,None,2,0.4902340199914761,421.0782079679775,None,,,,,,,,,,,,,,,,None,None,None,,None,None,421.6122485329979,None,3,1,0.5149504290311597,421.6122485329979,None,422.12626841688177,None,None,None,None,,20,001,2023_Jan_23_0958,searchDisc5,2021.2.3,59.75259972524412,
images/exp2b_trial_2_colour1_distractors9_r.png,r,3,1,9,0,,,,,0,65,65,65,,,,,,,,,,,,,,,,,,,,,,,,,,,,,,,,,,,,,,,,,,,422.1450914120069,None,2,0.4730683059897274,422.1450914120069,None,,,,,,,,,,,,,,,,None,None,None,,None,None,422.66294288099743,None,3,1,0.8036964810453355,422.66294288099743,None,423.45964407688587,None,None,None,None,,20,001,2023_Jan_23_0958,searchDisc5,2021.2.3,59.75259972524412,
images/exp1a_trial_229_colour2_distractors1_r.png,r,3,2,1,0,,,,,0,66,66,66,,,,,,,,,,,,,,,,,,,,,,,,,,,,,,,,,,,,,,,,,,,423.4760800169897,None,2,0.4869556720368564,423.4760800169897,None,,,,,,,,,,,,,,,,None,None,None,,None,None,424.01005780498963,None,3,1,0.5038740659947507,424.01005780498963,None,424.50958290789856,None,None,None,None,,20,001,2023_Jan_23_0958,searchDisc5,2021.2.3,59.75259972524412,
images/exp2b_trial_3_colour1_distractors19_r.png,r,3,1,19,0,,,,,0,67,67,67,,,,,,,,,,,,,,,,,,,,,,,,,,,,,,,,,,,,,,,,,,,424.5260650549899,None,2,0.5216327660018578,424.5260650549899,None,,,,,,,,,,,,,,,,None,None,None,,None,None,425.0929170579766,None,3,1,0.6882234300137497,425.0929170579766,None,425.7762154538708,None,None,None,None,,20,001,2023_Jan_23_0958,searchDisc5,2021.2.3,59.75259972524412,
images/exp1a_trial_46_colour3_distractors31_r.png,r,3,3,31,0,,,,,0,68,68,68,,,,,,,,,,,,,,,,,,,,,,,,,,,,,,,,,,,,,,,,,,,425.7934075570083,None,2,0.4859531879774295,425.7934075570083,None,,,,,,,,,,,,,,,,None,None,None,,None,None,426.32880163396476,None,3,1,0.4822419139673002,426.32880163396476,None,426.80962106388176,None,None,None,None,,20,001,2023_Jan_23_0958,searchDisc5,2021.2.3,59.75259972524412,
images/exp1a_trial_99_colour1_distractors19_r.png,r,3,1,19,0,,,,,0,69,69,69,,,,,,,,,,,,,,,,,,,,,,,,,,,,,,,,,,,,,,,,,,,426.8264499959769,None,2,0.5212091109715402,426.8264499959769,None,,,,,,,,,,,,,,,,None,None,None,,None,None,427.39619775197934,None,3,1,0.46841787500306964,427.39619775197934,None,427.86056194489936,None,None,None,None,,20,001,2023_Jan_23_0958,searchDisc5,2021.2.3,59.75259972524412,
images/exp2a_trial_28_colour3_distractors19_l.png,l,1,3,19,0,,,,,0,70,70,70,,,,,,,,,,,,,,,,,,,,,,,,,,,,,,,,,,,,,,,,,,,427.87650945899077,None,2,0.5197075990145095,427.87650945899077,None,,,,,,,,,,,,,,,,None,None,None,,None,None,428.44617278600344,None,1,1,0.603540686017368,428.44617278600344,None,429.0425606328703,None,None,None,None,,20,001,2023_Jan_23_0958,searchDisc5,2021.2.3,59.75259972524412,
images/exp2c_trial_233_colour2_distractors31_r.png,r,3,2,31,0,,,,,0,71,71,71,,,,,,,,,,,,,,,,,,,,,,,,,,,,,,,,,,,,,,,,,,,429.0605408140109,None,2,0.4398434569593519,429.0605408140109,None,,,,,,,,,,,,,,,,None,None,None,,None,None,429.5452342259814,None,3,1,0.699750287050847,429.5452342259814,None,430.2424684249039,None,None,None,None,,20,001,2023_Jan_23_0958,searchDisc5,2021.2.3,59.75259972524412,
images/exp2a_trial_51_colour1_distractors31_l.png,l,1,1,31,0,,,,,0,72,72,72,,,,,,,,,,,,,,,,,,,,,,,,,,,,,,,,,,,,,,,,,,,430.26272558799246,None,2,0.4393401159904897,430.26272558799246,None,,,,,,,,,,,,,,,,None,None,None,,None,None,430.7435191789991,None,1,1,0.7339318270096555,430.7435191789991,None,431.47649600788134,None,None,None,None,,20,001,2023_Jan_23_0958,searchDisc5,2021.2.3,59.75259972524412,
images/exp2b_trial_165_colour2_distractors1_r.png,r,3,2,1,0,,,,,0,73,73,73,,,,,,,,,,,,,,,,,,,,,,,,,,,,,,,,,,,,,,,,,,,431.4930584380054,None,2,0.35480594099499285,431.4930584380054,None,,,,,,,,,,,,,,,,None,None,None,,None,None,431.8957345969975,None,3,1,0.4723212440148927,431.8957345969975,None,432.3606495359039,None,None,None,None,,20,001,2023_Jan_23_0958,searchDisc5,2021.2.3,59.75259972524412,
images/exp2c_trial_83_colour1_distractors31_l.png,l,1,1,31,0,,,,,0,74,74,74,,,,,,,,,,,,,,,,,,,,,,,,,,,,,,,,,,,,,,,,,,,432.3766911679995,None,2,0.4371466090087779,432.3766911679995,None,,,,,,,,,,,,,,,,None,None,None,,None,None,432.8630430159974,None,1,1,0.8516479939571582,432.8630430159974,None,433.7097130239184,None,None,None,None,,20,001,2023_Jan_23_0958,searchDisc5,2021.2.3,59.75259972524412,
images/exp2b_trial_255_colour0_distractors0_l.png,l,1,0,0,0,,,,,0,75,75,75,,,,,,,,,,,,,,,,,,,,,,,,,,,,,,,,,,,,,,,,,,,433.72646041901316,None,2,0.3883546380093321,433.72646041901316,None,,,,,,,,,,,,,,,,None,None,None,,None,None,434.1628634869703,None,1,1,0.6553670089924708,434.1628634869703,None,434.80997027486444,None,None,None,None,,20,001,2023_Jan_23_0958,searchDisc5,2021.2.3,59.75259972524412,
images/exp1a_trial_310_colour2_distractors9_l.png,l,1,2,9,0,,,,,0,76,76,76,,,,,,,,,,,,,,,,,,,,,,,,,,,,,,,,,,,,,,,,,,,434.8269248069846,None,2,0.4569606029544957,434.8269248069846,None,,,,,,,,,,,,,,,,None,None,None,,None,None,435.3273130009766,None,1,1,0.7670883170212619,435.3273130009766,None,436.0931749318901,None,None,None,None,,20,001,2023_Jan_23_0958,searchDisc5,2021.2.3,59.75259972524412,
images/exp1a_trial_21_colour2_distractors4_l.png,l,1,2,4,0,,,,,0,77,77,77,,,,,,,,,,,,,,,,,,,,,,,,,,,,,,,,,,,,,,,,,,,436.1128545399988,None,2,0.45422837999649346,436.1128545399988,None,,,,,,,,,,,,,,,,None,None,None,,None,None,436.6108978409902,None,1,1,0.6708877540077083,436.6108978409902,None,437.2765088318905,None,None,None,None,,20,001,2023_Jan_23_0958,searchDisc5,2021.2.3,59.75259972524412,
images/exp2a_trial_45_colour3_distractors19_r.png,r,3,3,19,0,,,,,0,78,78,78,,,,,,,,,,,,,,,,,,,,,,,,,,,,,,,,,,,,,,,,,,,437.29318342200713,None,2,0.47132557997247204,437.29318342200713,None,,,,,,,,,,,,,,,,None,None,None,,None,None,437.812060333963,None,3,1,0.5213904450065456,437.812060333963,None,438.32874539890906,None,None,None,None,,20,001,2023_Jan_23_0958,searchDisc5,2021.2.3,59.75259972524412,
images/exp2c_trial_131_colour1_distractors19_r.png,r,3,1,19,0,,,,,0,79,79,79,,,,,,,,,,,,,,,,,,,,,,,,,,,,,,,,,,,,,,,,,,,438.342961131013,None,2,0.5033359859953634,438.342961131013,None,,,,,,,,,,,,,,,,None,None,None,,None,None,438.89514834899455,None,3,1,0.5516119580133818,438.89514834899455,None,439.4432910918898,None,None,None,None,,20,001,2023_Jan_23_0958,searchDisc5,2021.2.3,59.75259972524412,
images/exp2c_trial_118_colour2_distractors9_l.png,l,1,2,9,0,,,,,0,80,80,80,,,,,,,,,,,,,,,,,,,,,,,,,,,,,,,,,,,,,,,,,,,439.4599830079824,None,2,0.504555193008855,439.4599830079824,None,,,,,,,,,,,,,,,,None,None,None,,None,None,440.01086247497005,None,1,1,0.6542904159869067,440.01086247497005,None,440.6601299888629,None,None,None,None,,20,001,2023_Jan_23_0958,searchDisc5,2021.2.3,59.75259972524412,
images/exp2a_trial_160_colour1_distractors1_r.png,r,3,1,1,0,,,,,0,81,81,81,,,,,,,,,,,,,,,,,,,,,,,,,,,,,,,,,,,,,,,,,,,440.6773832140025,None,2,0.48881704302039,440.6773832140025,None,,,,,,,,,,,,,,,,None,None,None,,None,None,441.21115877997363,None,3,1,0.7710353439906612,441.21115877997363,None,441.9767231819045,None,None,None,None,,20,001,2023_Jan_23_0958,searchDisc5,2021.2.3,59.75259972524412,
images/exp2a_trial_16_colour1_distractors4_l.png,l,1,1,4,0,,,,,0,82,82,82,,,,,,,,,,,,,,,,,,,,,,,,,,,,,,,,,,,,,,,,,,,441.99326388101326,None,2,0.4745316810440272,441.99326388101326,None,,,,,,,,,,,,,,,,None,None,None,,None,None,442.51269373099785,None,1,1,0.6693315000156872,442.51269373099785,None,443.17777582788256,None,None,None,None,,20,001,2023_Jan_23_0958,searchDisc5,2021.2.3,59.75259972524412,
images/exp1a_trial_74_colour3_distractors1_r.png,r,3,3,1,0,,,,,0,83,83,83,,,,,,,,,,,,,,,,,,,,,,,,,,,,,,,,,,,,,,,,,,,443.1930846470059,None,2,0.48773551400518045,443.1930846470059,None,,,,,,,,,,,,,,,,None,None,None,,None,None,443.72990367899183,None,3,1,0.6555977779789828,443.72990367899183,None,444.37805228087234,None,None,None,None,,20,001,2023_Jan_23_0958,searchDisc5,2021.2.3,59.75259972524412,
images/exp2b_trial_144_colour1_distractors4_l.png,l,1,1,4,0,,,,,0,84,84,84,,,,,,,,,,,,,,,,,,,,,,,,,,,,,,,,,,,,,,,,,,,444.3941971460008,None,2,0.4385817770380527,444.3941971460008,None,,,,,,,,,,,,,,,,None,None,None,,None,None,444.8773353740107,None,1,1,0.8040285489987582,444.8773353740107,None,445.6780852889118,None,None,None,None,,20,001,2023_Jan_23_0958,searchDisc5,2021.2.3,59.75259972524412,
images/exp1a_trial_9_colour2_distractors31_r.png,r,3,2,31,0,,,,,0,85,85,85,,,,,,,,,,,,,,,,,,,,,,,,,,,,,,,,,,,,,,,,,,,445.69283608999103,None,2,0.485503104981035,445.69283608999103,None,,,,,,,,,,,,,,,,None,None,None,,None,None,446.22907900699647,None,3,1,0.7330838129855692,446.22907900699647,None,446.9601022909104,None,None,None,None,,20,001,2023_Jan_23_0958,searchDisc5,2021.2.3,59.75259972524412,
images/exp2b_trial_21_colour2_distractors4_l.png,l,1,2,4,0,,,,,0,86,86,86,,,,,,,,,,,,,,,,,,,,,,,,,,,,,,,,,,,,,,,,,,,446.9767897159909,None,2,0.4749723299755715,446.9767897159909,None,,,,,,,,,,,,,,,,None,None,None,,None,None,447.4945412550005,None,1,1,0.6345241800299846,447.4945412550005,None,448.1268785938795,None,None,None,None,,20,001,2023_Jan_23_0958,searchDisc5,2021.2.3,59.75259972524412,
images/exp2b_trial_35_colour1_distractors19_r.png,r,3,1,19,0,,,,,0,87,87,87,,,,,,,,,,,,,,,,,,,,,,,,,,,,,,,,,,,,,,,,,,,448.14337669400265,None,2,0.44018699298612773,448.14337669400265,None,,,,,,,,,,,,,,,,None,None,None,,None,None,448.62959971197415,None,3,1,0.6172604830353521,448.62959971197415,None,449.2435759268759,None,None,None,None,,20,001,2023_Jan_23_0958,searchDisc5,2021.2.3,59.75259972524412,
images/exp2b_trial_117_colour2_distractors4_l.png,l,1,2,4,0,,,,,0,88,88,88,,,,,,,,,,,,,,,,,,,,,,,,,,,,,,,,,,,,,,,,,,,449.2602566179703,None,2,0.47359153296565637,449.2602566179703,None,,,,,,,,,,,,,,,,None,None,None,,None,None,449.77741828601575,None,1,1,0.5693282370339148,449.77741828601575,None,450.34380273888235,None,None,None,None,,20,001,2023_Jan_23_0958,searchDisc5,2021.2.3,59.75259972524412,
images/exp2c_trial_257_colour1_distractors4_r.png,r,3,1,4,0,,,,,0,89,89,89,,,,,,,,,,,,,,,,,,,,,,,,,,,,,,,,,,,,,,,,,,,450.3596569119836,None,2,0.503472720971331,450.3596569119836,None,,,,,,,,,,,,,,,,None,None,None,,None,None,450.9106428420055,None,3,1,0.7875789270037785,450.9106428420055,None,451.6946097908716,None,None,None,None,,20,001,2023_Jan_23_0958,searchDisc5,2021.2.3,59.75259972524412,
images/exp2c_trial_277_colour2_distractors4_l.png,l,1,2,4,0,,,,,0,90,90,90,,,,,,,,,,,,,,,,,,,,,,,,,,,,,,,,,,,,,,,,,,,451.7102845059708,None,2,0.4368263320066035,451.7102845059708,None,,,,,,,,,,,,,,,,None,None,None,,None,None,452.1937276389799,None,1,1,0.7884876169846393,452.1937276389799,None,452.97700815991846,None,None,None,None,,20,001,2023_Jan_23_0958,searchDisc5,2021.2.3,59.75259972524412,
images/exp2b_trial_248_colour2_distractors31_l.png,l,1,2,31,0,,,,,0,91,91,91,,,,,,,,,,,,,,,,,,,,,,,,,,,,,,,,,,,,,,,,,,,452.99421024200274,None,2,0.46982098603621125,452.99421024200274,None,,,,,,,,,,,,,,,,None,None,None,,None,None,453.5120600920054,None,3,0,0.5179913640022278,453.5120600920054,None,454.02779619489445,None,None,None,None,,20,001,2023_Jan_23_0958,searchDisc5,2021.2.3,59.75259972524412,
images/exp1a_trial_19_colour1_distractors31_l.png,l,1,1,31,0,,,,,0,92,92,92,,,,,,,,,,,,,,,,,,,,,,,,,,,,,,,,,,,,,,,,,,,454.04613207199145,None,2,0.6047254540026188,454.04613207199145,None,,,,,,,,,,,,,,,,None,None,None,,None,None,454.6942872789805,None,1,1,0.6319587409961969,454.6942872789805,None,455.32702705287954,None,None,None,None,,20,001,2023_Jan_23_0958,searchDisc5,2021.2.3,59.75259972524412,
images/exp1a_trial_147_colour1_distractors31_l.png,l,1,1,31,0,,,,,0,93,93,93,,,,,,,,,,,,,,,,,,,,,,,,,,,,,,,,,,,,,,,,,,,455.3444624489639,None,2,0.45522680395515636,455.3444624489639,None,,,,,,,,,,,,,,,,None,None,None,,None,None,455.8465769609902,None,1,1,1.1836068949778564,455.8465769609902,None,457.02815389290333,None,None,None,None,,20,001,2023_Jan_23_0958,searchDisc5,2021.2.3,59.75259972524412,
images/exp2a_trial_289_colour1_distractors4_r.png,r,3,1,4,0,,,,,0,94,94,94,,,,,,,,,,,,,,,,,,,,,,,,,,,,,,,,,,,,,,,,,,,457.04432151600486,None,2,0.42122780095087364,457.04432151600486,None,,,,,,,,,,,,,,,,None,None,None,,None,None,457.51097316801315,None,3,1,0.7200159350177273,457.51097316801315,None,458.2267237358668,None,None,None,None,,20,001,2023_Jan_23_0958,searchDisc5,2021.2.3,59.75259972524412,
images/exp2c_trial_19_colour1_distractors31_l.png,l,1,1,31,0,,,,,0,95,95,95,,,,,,,,,,,,,,,,,,,,,,,,,,,,,,,,,,,,,,,,,,,458.24464408599306,None,2,0.4725210760370828,458.24464408599306,None,,,,,,,,,,,,,,,,None,None,None,,None,None,458.76198598300107,None,1,1,0.8172458920162171,458.76198598300107,None,459.5764883189171,None,None,None,None,,20,001,2023_Jan_23_0958,searchDisc5,2021.2.3,59.75259972524412,
images/exp2a_trial_19_colour1_distractors31_l.png,l,1,1,31,0,,,,,0,96,96,96,,,,,,,,,,,,,,,,,,,,,,,,,,,,,,,,,,,,,,,,,,,459.5945169159677,None,2,0.47430446796352044,459.5945169159677,None,,,,,,,,,,,,,,,,None,None,None,,None,None,460.1109099579626,None,1,1,0.6842348240315914,460.1109099579626,None,460.79494459886917,None,None,None,None,,20,001,2023_Jan_23_0958,searchDisc5,2021.2.3,59.75259972524412,
images/exp2a_trial_110_colour3_distractors31_r.png,r,3,3,31,0,,,,,0,97,97,97,,,,,,,,,,,,,,,,,,,,,,,,,,,,,,,,,,,,,,,,,,,460.81314087996725,None,2,0.4866595880012028,460.81314087996725,None,,,,,,,,,,,,,,,,None,None,None,,None,None,461.3445910940063,None,3,1,0.6369441960123368,461.3445910940063,None,461.9772249478905,None,None,None,None,,20,001,2023_Jan_23_0958,searchDisc5,2021.2.3,59.75259972524412,
images/exp2c_trial_22_colour2_distractors9_l.png,l,1,2,9,0,,,,,0,98,98,98,,,,,,,,,,,,,,,,,,,,,,,,,,,,,,,,,,,,,,,,,,,461.99419992999174,None,2,0.4887383340392262,461.99419992999174,None,,,,,,,,,,,,,,,,None,None,None,,None,None,462.5301889120019,None,1,1,0.6176450159982778,462.5301889120019,None,463.1438809168816,None,None,None,None,,20,001,2023_Jan_23_0958,searchDisc5,2021.2.3,59.75259972524412,
images/exp1a_trial_219_colour3_distractors9_l.png,l,1,3,9,0,,,,,0,99,99,99,,,,,,,,,,,,,,,,,,,,,,,,,,,,,,,,,,,,,,,,,,,463.1605069809593,None,2,0.440532349050045,463.1605069809593,None,,,,,,,,,,,,,,,,None,None,None,,None,None,463.6450674579828,None,1,1,1.0843420940218493,463.6450674579828,None,464.72741464787975,None,None,None,None,,20,001,2023_Jan_23_0958,searchDisc5,2021.2.3,59.75259972524412,
images/exp2b_trial_251_colour3_distractors9_l.png,l,1,3,9,0,,,,,0,100,100,100,,,,,,,,,,,,,,,,,,,,,,,,,,,,,,,,,,,,,,,,,,,464.74623039300786,None,2,0.37184625497320667,464.74623039300786,None,,,,,,,,,,,,,,,,None,None,None,,None,None,465.1630330400076,None,1,1,0.6867984139826149,465.1630330400076,None,465.844001949887,None,None,None,None,,20,001,2023_Jan_23_0958,searchDisc5,2021.2.3,59.75259972524412,
images/exp1a_trial_153_colour3_distractors1_l.png,l,1,3,1,0,,,,,0,101,101,101,,,,,,,,,,,,,,,,,,,,,,,,,,,,,,,,,,,,,,,,,,,465.8606185669778,None,2,0.30535499699180946,465.8606185669778,None,,,,,,,,,,,,,,,,None,None,None,,None,None,466.21076942799846,None,1,1,0.6060703929979354,466.21076942799846,None,466.81180458388405,None,None,None,None,,20,001,2023_Jan_23_0958,searchDisc5,2021.2.3,59.75259972524412,
images/exp2c_trial_56_colour2_distractors31_l.png,l,1,2,31,0,,,,,0,102,102,102,,,,,,,,,,,,,,,,,,,,,,,,,,,,,,,,,,,,,,,,,,,466.82716596795944,None,2,0.4534326900029555,466.82716596795944,None,,,,,,,,,,,,,,,,None,None,None,,None,None,467.32942442497006,None,1,1,0.7364135000389069,467.32942442497006,None,468.0617860519036,None,None,None,None,,20,001,2023_Jan_23_0958,searchDisc5,2021.2.3,59.75259972524412,
images/exp2b_trial_273_colour1_distractors9_l.png,l,1,1,9,0,,,,,0,103,103,103,,,,,,,,,,,,,,,,,,,,,,,,,,,,,,,,,,,,,,,,,,,468.076787833008,None,2,0.470947050023824,468.076787833008,None,,,,,,,,,,,,,,,,None,None,None,,None,None,468.59461145597743,None,1,1,0.6029394919751212,468.59461145597743,None,469.1942242459103,None,None,None,None,,20,001,2023_Jan_23_0958,searchDisc5,2021.2.3,59.75259972524412,
images/exp2a_trial_316_colour3_distractors19_l.png,l,1,3,19,0,,,,,0,104,104,104,,,,,,,,,,,,,,,,,,,,,,,,,,,,,,,,,,,,,,,,,,,469.21150624897564,None,2,0.47091813798760995,469.21150624897564,None,,,,,,,,,,,,,,,,None,None,None,,None,None,469.7281938929809,None,1,1,0.7191403930191882,469.7281938929809,None,470.444119623868,None,None,None,None,,20,001,2023_Jan_23_0958,searchDisc5,2021.2.3,59.75259972524412,
images/exp2a_trial_250_colour3_distractors4_l.png,l,1,3,4,0,,,,,0,105,105,105,,,,,,,,,,,,,,,,,,,,,,,,,,,,,,,,,,,,,,,,,,,470.46347766398685,None,2,0.4717006210121326,470.46347766398685,None,,,,,,,,,,,,,,,,None,None,None,,None,None,470.97996129799867,None,1,1,0.6221203999593854,470.97996129799867,None,471.59548727988147,None,None,None,None,,20,001,2023_Jan_23_0958,searchDisc5,2021.2.3,59.75259972524412,
images/exp1a_trial_113_colour1_distractors9_l.png,l,1,1,9,0,,,,,0,106,106,106,,,,,,,,,,,,,,,,,,,,,,,,,,,,,,,,,,,,,,,,,,,471.61168020695914,None,2,0.4053244559909217,471.61168020695914,None,,,,,,,,,,,,,,,,None,None,None,,None,None,472.06193615397206,None,1,1,1.6840830519795418,472.06193615397206,None,473.74390137091393,None,None,None,None,,20,001,2023_Jan_23_0958,searchDisc5,2021.2.3,59.75259972524412,
images/exp2a_trial_262_colour2_distractors4_r.png,r,3,2,4,0,,,,,0,107,107,107,,,,,,,,,,,,,,,,,,,,,,,,,,,,,,,,,,,,,,,,,,,473.76292668498354,None,2,0.3750926130451262,473.76292668498354,None,,,,,,,,,,,,,,,,None,None,None,,None,None,474.18067260901444,None,3,1,0.5659453439875506,474.18067260901444,None,474.74432579486745,None,None,None,None,,20,001,2023_Jan_23_0958,searchDisc5,2021.2.3,59.75259972524412,
images/exp2b_trial_79_colour1_distractors1_l.png,l,1,1,1,0,,,,,0,108,108,108,,,,,,,,,,,,,,,,,,,,,,,,,,,,,,,,,,,,,,,,,,,474.76158069696976,None,2,0.5046718260273337,474.76158069696976,None,,,,,,,,,,,,,,,,None,None,None,,None,None,475.3139876489877,None,1,1,0.5378559199743904,475.3139876489877,None,475.84434853186247,None,None,None,None,,20,001,2023_Jan_23_0958,searchDisc5,2021.2.3,59.75259972524412,
images/exp2c_trial_27_colour3_distractors9_l.png,l,1,3,9,0,,,,,0,109,109,109,,,,,,,,,,,,,,,,,,,,,,,,,,,,,,,,,,,,,,,,,,,475.8619922630023,None,2,0.4238566880230792,475.8619922630023,None,,,,,,,,,,,,,,,,None,None,None,,None,None,476.32795398001326,None,1,1,0.7349042780115269,476.32795398001326,None,477.0617053589143,None,None,None,None,,20,001,2023_Jan_23_0958,searchDisc5,2021.2.3,59.75259972524412,
images/exp1a_trial_68_colour1_distractors31_r.png,r,3,1,31,0,,,,,0,110,110,110,,,,,,,,,,,,,,,,,,,,,,,,,,,,,,,,,,,,,,,,,,,477.077868214983,None,2,0.42278665804769844,477.077868214983,None,,,,,,,,,,,,,,,,None,None,None,,None,None,477.5449006119743,None,3,1,1.0468037819955498,477.5449006119743,None,478.5938723968633,None,None,None,None,,20,001,2023_Jan_23_0958,searchDisc5,2021.2.3,59.75259972524412,
images/exp2c_trial_253_colour3_distractors31_l.png,l,1,3,31,0,,,,,0,111,111,111,,,,,,,,,,,,,,,,,,,,,,,,,,,,,,,,,,,,,,,,,,,478.6122336529661,None,2,0.42488258401863277,478.6122336529661,None,,,,,,,,,,,,,,,,None,None,None,,None,None,479.07992515398655,None,1,1,0.699069176975172,479.07992515398655,None,479.7779583958967,None,None,None,None,,20,001,2023_Jan_23_0958,searchDisc5,2021.2.3,59.75259972524412,
images/exp1a_trial_217_colour3_distractors1_l.png,l,1,3,1,0,,,,,0,112,112,112,,,,,,,,,,,,,,,,,,,,,,,,,,,,,,,,,,,,,,,,,,,479.7945044519729,None,2,0.4065042239963077,479.7945044519729,None,,,,,,,,,,,,,,,,None,None,None,,None,None,480.2467306340113,None,1,1,0.8541387949953787,480.2467306340113,None,481.0954341098608,None,None,None,None,,20,001,2023_Jan_23_0958,searchDisc5,2021.2.3,59.75259972524412,
images/exp2c_trial_245_colour2_distractors4_l.png,l,1,2,4,0,,,,,0,113,113,113,,,,,,,,,,,,,,,,,,,,,,,,,,,,,,,,,,,,,,,,,,,481.1118579939939,None,2,0.3531457729986869,481.1118579939939,None,,,,,,,,,,,,,,,,None,None,None,,None,None,481.5114118810161,None,1,1,0.7540731190238148,481.5114118810161,None,482.2606947358639,None,None,None,None,,20,001,2023_Jan_23_0958,searchDisc5,2021.2.3,59.75259972524412,
images/exp2a_trial_173_colour3_distractors19_r.png,r,3,3,19,0,,,,,0,114,114,114,,,,,,,,,,,,,,,,,,,,,,,,,,,,,,,,,,,,,,,,,,,482.2788873339887,None,2,0.38774322398239747,482.2788873339887,None,,,,,,,,,,,,,,,,None,None,None,,None,None,482.71377714996925,None,3,1,0.6193036990007386,482.71377714996925,None,483.3279095129168,None,None,None,None,,20,001,2023_Jan_23_0958,searchDisc5,2021.2.3,59.75259972524412,
images/exp2c_trial_284_colour3_distractors19_l.png,l,1,3,19,0,,,,,0,115,115,115,,,,,,,,,,,,,,,,,,,,,,,,,,,,,,,,,,,,,,,,,,,483.3437495009857,None,2,0.4204215270001441,483.3437495009857,None,,,,,,,,,,,,,,,,None,None,None,,None,None,483.81157861696556,None,1,1,0.5872261300100945,483.81157861696556,None,484.39454987389615,None,None,None,None,,20,001,2023_Jan_23_0958,searchDisc5,2021.2.3,59.75259972524412,
images/exp1a_trial_275_colour1_distractors31_l.png,l,1,1,31,0,,,,,0,116,116,116,,,,,,,,,,,,,,,,,,,,,,,,,,,,,,,,,,,,,,,,,,,484.411885502981,None,2,0.45686769898748025,484.411885502981,None,,,,,,,,,,,,,,,,None,None,None,,None,None,484.9116045649862,None,1,1,0.6627458439907059,484.9116045649862,None,485.5779001019022,None,None,None,None,,20,001,2023_Jan_23_0958,searchDisc5,2021.2.3,59.75259972524412,
images/exp2a_trial_247_colour2_distractors19_l.png,l,1,2,19,0,,,,,0,117,117,117,,,,,,,,,,,,,,,,,,,,,,,,,,,,,,,,,,,,,,,,,,,485.59472686896333,None,2,0.4221212830161676,485.59472686896333,None,,,,,,,,,,,,,,,,None,None,None,,None,None,486.0616121480125,None,1,1,1.2633649060153402,486.0616121480125,None,487.32805570890775,None,None,None,None,,20,001,2023_Jan_23_0958,searchDisc5,2021.2.3,59.75259972524412,
images/exp1a_trial_224_colour1_distractors1_r.png,r,3,1,1,0,,,,,0,118,118,118,,,,,,,,,,,,,,,,,,,,,,,,,,,,,,,,,,,,,,,,,,,487.3438760410063,None,2,0.42335094895679504,487.3438760410063,None,,,,,,,,,,,,,,,,None,None,None,,None,None,487.8121243289788,None,3,1,0.6022121359710582,487.8121243289788,None,488.41117041989344,None,None,None,None,,20,001,2023_Jan_23_0958,searchDisc5,2021.2.3,59.75259972524412,
images/exp2b_trial_310_colour2_distractors9_l.png,l,1,2,9,0,,,,,0,119,119,119,,,,,,,,,,,,,,,,,,,,,,,,,,,,,,,,,,,,,,,,,,,488.42791235697223,None,2,0.4409792969818227,488.42791235697223,None,,,,,,,,,,,,,,,,None,None,None,,None,None,488.9144668930094,None,1,1,0.5509568200213835,488.9144668930094,None,489.4613514539145,None,None,None,None,,20,001,2023_Jan_23_0958,searchDisc5,2021.2.3,59.75259972524412,
images/exp2b_trial_65_colour1_distractors4_r.png,r,3,1,4,0,,,,,0,120,120,120,,,,,,,,,,,,,,,,,,,,,,,,,,,,,,,,,,,,,,,,,,,489.477975339978,None,2,0.4536567829782143,489.477975339978,None,,,,,,,,,,,,,,,,None,None,None,,None,None,489.9802387919626,None,3,1,0.7044388369540684,489.9802387919626,None,490.6780741759052,None,None,None,None,,20,001,2023_Jan_23_0958,searchDisc5,2021.2.3,59.75259972524412,
images/exp2c_trial_222_colour0_distractors0_r.png,r,3,0,0,0,,,,,0,121,121,121,,,,,,,,,,,,,,,,,,,,,,,,,,,,,,,,,,,,,,,,,,,490.69547018699814,None,2,0.45724102604435757,490.69547018699814,None,,,,,,,,,,,,,,,,None,None,None,,None,None,491.1969379539951,None,3,1,0.9689147460157983,491.1969379539951,None,492.16159404686766,None,None,None,None,,20,001,2023_Jan_23_0958,searchDisc5,2021.2.3,59.75259972524412,
images/exp2c_trial_36_colour1_distractors31_r.png,r,3,1,31,0,,,,,0,122,122,122,,,,,,,,,,,,,,,,,,,,,,,,,,,,,,,,,,,,,,,,,,,492.1788788539707,None,2,0.5045152329839766,492.1788788539707,None,,,,,,,,,,,,,,,,None,None,None,,None,None,492.7304275269853,None,3,1,0.7852502780151553,492.7304275269853,None,493.5114258278685,None,None,None,None,,20,001,2023_Jan_23_0958,searchDisc5,2021.2.3,59.75259972524412,
images/exp2a_trial_44_colour3_distractors9_r.png,r,3,3,9,0,,,,,0,123,123,123,,,,,,,,,,,,,,,,,,,,,,,,,,,,,,,,,,,,,,,,,,,493.52865967695834,None,2,0.5045310970162973,493.52865967695834,None,,,,,,,,,,,,,,,,None,None,None,,None,None,494.0794194189948,None,3,1,0.9207575370091945,494.0794194189948,None,494.9948451598815,None,None,None,None,,20,001,2023_Jan_23_0958,searchDisc5,2021.2.3,59.75259972524412,
images/exp2c_trial_181_colour2_distractors4_l.png,l,1,2,4,0,,,,,0,124,124,124,,,,,,,,,,,,,,,,,,,,,,,,,,,,,,,,,,,,,,,,,,,495.0116361799883,None,2,0.43799667101120576,495.0116361799883,None,,,,,,,,,,,,,,,,None,None,None,,None,None,495.495831016975,None,1,1,0.5561540519702248,495.495831016975,None,496.04603200790586,None,None,None,None,,20,001,2023_Jan_23_0958,searchDisc5,2021.2.3,59.75259972524412,
images/exp1a_trial_155_colour3_distractors9_l.png,l,1,3,9,0,,,,,0,125,125,125,,,,,,,,,,,,,,,,,,,,,,,,,,,,,,,,,,,,,,,,,,,496.061309437966,None,2,0.4706183700473048,496.061309437966,None,,,,,,,,,,,,,,,,None,None,None,,None,None,496.57855269900756,None,1,1,0.769290226045996,496.57855269900756,None,497.3449763378652,None,None,None,None,,20,001,2023_Jan_23_0958,searchDisc5,2021.2.3,59.75259972524412,
images/exp2b_trial_33_colour1_distractors4_r.png,r,3,1,4,0,,,,,0,126,126,126,,,,,,,,,,,,,,,,,,,,,,,,,,,,,,,,,,,,,,,,,,,497.36102824198315,None,2,0.43830563500523567,497.36102824198315,None,,,,,,,,,,,,,,,,None,None,None,,None,None,497.84786225500284,None,3,1,0.7191237870138139,497.84786225500284,None,498.56158820086273,None,None,None,None,,20,001,2023_Jan_23_0958,searchDisc5,2021.2.3,59.75259972524412,
images/exp2c_trial_33_colour1_distractors4_r.png,r,3,1,4,0,,,,,0,127,127,127,,,,,,,,,,,,,,,,,,,,,,,,,,,,,,,,,,,,,,,,,,,498.57872787397355,None,2,0.4546949790092185,498.57872787397355,None,,,,,,,,,,,,,,,,None,None,None,,None,None,499.0806096189772,None,3,1,0.7549306229921058,499.0806096189772,None,499.82934965589664,None,None,None,None,,20,001,2023_Jan_23_0958,searchDisc5,2021.2.3,59.75259972524412,
images/exp2a_trial_302_colour3_distractors31_r.png,r,3,3,31,0,,,,,0,128,128,128,,,,,,,,,,,,,,,,,,,,,,,,,,,,,,,,,,,,,,,,,,,499.8448606560123,None,2,0.9537060539587401,499.8448606560123,None,,,,,,,,,,,,,,,,None,None,None,,None,None,500.84545414795866,None,3,1,0.6675553860259242,500.84545414795866,None,501.51163898886296,None,None,None,None,,20,001,2023_Jan_23_0958,searchDisc5,2021.2.3,59.75259972524412,
images/exp2a_trial_284_colour3_distractors19_l.png,l,1,3,19,0,,,,,0,129,129,129,,,,,,,,,,,,,,,,,,,,,,,,,,,,,,,,,,,,,,,,,,,501.52887770696543,None,2,0.771258313965518,501.52887770696543,None,,,,,,,,,,,,,,,,None,None,None,,None,None,502.3472082130029,None,1,1,0.8524981740047224,502.3472082130029,None,503.19507242786347,None,None,None,None,,20,001,2023_Jan_23_0958,searchDisc5,2021.2.3,59.75259972524412,
images/exp2c_trial_11_colour3_distractors4_r.png,r,3,3,4,0,,,,,0,130,130,130,,,,,,,,,,,,,,,,,,,,,,,,,,,,,,,,,,,,,,,,,,,503.2122845110134,None,2,0.38889781798934564,503.2122845110134,None,,,,,,,,,,,,,,,,None,None,None,,None,None,503.647234397009,None,3,1,0.8205632439930923,503.647234397009,None,504.46201739588867,None,None,None,None,,20,001,2023_Jan_23_0958,searchDisc5,2021.2.3,59.75259972524412,
images/exp2b_trial_137_colour2_distractors31_r.png,r,3,2,31,0,,,,,0,131,131,131,,,,,,,,,,,,,,,,,,,,,,,,,,,,,,,,,,,,,,,,,,,504.4790812089923,None,2,0.4552191880065948,504.4790812089923,None,,,,,,,,,,,,,,,,None,None,None,,None,None,504.97935732395854,None,3,1,0.8346086450037546,504.97935732395854,None,505.81170123891786,None,None,None,None,,20,001,2023_Jan_23_0958,searchDisc5,2021.2.3,59.75259972524412,
images/exp2a_trial_86_colour2_distractors9_l.png,l,1,2,9,0,,,,,0,132,132,132,,,,,,,,,,,,,,,,,,,,,,,,,,,,,,,,,,,,,,,,,,,505.83054043201264,None,2,0.49060248502064496,505.83054043201264,None,,,,,,,,,,,,,,,,None,None,None,,None,None,506.3650781529723,None,1,1,0.8155568690272048,506.3650781529723,None,507.17852050590443,None,None,None,None,,20,001,2023_Jan_23_0958,searchDisc5,2021.2.3,59.75259972524412,
images/exp2c_trial_290_colour1_distractors9_r.png,r,3,1,9,0,,,,,0,133,133,133,,,,,,,,,,,,,,,,,,,,,,,,,,,,,,,,,,,,,,,,,,,507.19568491599057,None,2,0.6358403459889814,507.19568491599057,None,,,,,,,,,,,,,,,,None,None,None,,None,None,507.8791376060108,None,3,1,0.7041168170399033,507.8791376060108,None,508.5785104339069,None,None,None,None,,20,001,2023_Jan_23_0958,searchDisc5,2021.2.3,59.75259972524412,
images/exp2b_trial_311_colour2_distractors19_l.png,l,1,2,19,0,,,,,0,134,134,134,,,,,,,,,,,,,,,,,,,,,,,,,,,,,,,,,,,,,,,,,,,508.5952118950081,None,2,0.7380230349954218,508.5952118950081,None,,,,,,,,,,,,,,,,None,None,None,,None,None,509.38081574696116,None,1,1,0.7356865620240569,509.38081574696116,None,510.111920945876,None,None,None,None,,20,001,2023_Jan_23_0958,searchDisc5,2021.2.3,59.75259972524412,
images/exp2a_trial_161_colour1_distractors4_r.png,r,3,1,4,0,,,,,0,135,135,135,,,,,,,,,,,,,,,,,,,,,,,,,,,,,,,,,,,,,,,,,,,510.128520527971,None,2,0.8710779990069568,510.128520527971,None,,,,,,,,,,,,,,,,None,None,None,,None,None,511.0481833879603,None,3,1,0.604539679014124,511.0481833879603,None,511.64519168786353,None,None,None,None,,20,001,2023_Jan_23_0958,searchDisc5,2021.2.3,59.75259972524412,
images/exp1a_trial_255_colour0_distractors0_l.png,l,1,0,0,0,,,,,0,136,136,136,,,,,,,,,,,,,,,,,,,,,,,,,,,,,,,,,,,,,,,,,,,511.6645419599954,None,2,0.7880879680160433,511.6645419599954,None,,,,,,,,,,,,,,,,None,None,None,,None,None,512.4981287789997,None,1,1,0.6891493300208822,512.4981287789997,None,513.1788565318624,None,None,None,None,,20,001,2023_Jan_23_0958,searchDisc5,2021.2.3,59.75259972524412,
images/exp2a_trial_272_colour1_distractors4_l.png,l,1,1,4,0,,,,,0,137,137,137,,,,,,,,,,,,,,,,,,,,,,,,,,,,,,,,,,,,,,,,,,,513.1959519709926,None,2,0.9720181959564798,513.1959519709926,None,,,,,,,,,,,,,,,,None,None,None,,None,None,514.2121470400016,None,1,1,0.654734767973423,514.2121470400016,None,514.861973365891,None,None,None,None,,20,001,2023_Jan_23_0958,searchDisc5,2021.2.3,59.75259972524412,
images/exp2c_trial_237_colour3_distractors19_r.png,r,3,3,19,0,,,,,0,138,138,138,,,,,,,,,,,,,,,,,,,,,,,,,,,,,,,,,,,,,,,,,,,514.8777441889979,None,2,0.670586196007207,514.8777441889979,None,,,,,,,,,,,,,,,,None,None,None,,None,None,515.5955874659703,None,3,1,0.7013938899617642,515.5955874659703,None,516.2950524748943,None,None,None,None,,20,001,2023_Jan_23_0958,searchDisc5,2021.2.3,59.75259972524412,
images/exp2c_trial_236_colour3_distractors9_r.png,r,3,3,9,0,,,,,0,139,139,139,,,,,,,,,,,,,,,,,,,,,,,,,,,,,,,,,,,,,,,,,,,516.3123657620163,None,2,0.7054408399853855,516.3123657620163,None,,,,,,,,,,,,,,,,None,None,None,,None,None,517.062525818008,None,3,1,0.702964769967366,517.062525818008,None,517.762155060895,None,None,None,None,,20,001,2023_Jan_23_0958,searchDisc5,2021.2.3,59.75259972524412,
images/exp2b_trial_152_colour2_distractors31_l.png,l,1,2,31,0,,,,,0,140,140,140,,,,,,,,,,,,,,,,,,,,,,,,,,,,,,,,,,,,,,,,,,,517.7786054019816,None,2,0.6720398199977353,517.7786054019816,None,,,,,,,,,,,,,,,,None,None,None,,None,None,518.4964691950008,None,1,1,0.6346643029828556,518.4964691950008,None,519.1288540478621,None,None,None,None,,20,001,2023_Jan_23_0958,searchDisc5,2021.2.3,59.75259972524412,
images/exp2b_trial_59_colour3_distractors9_l.png,l,1,3,9,0,,,,,0,141,141,141,,,,,,,,,,,,,,,,,,,,,,,,,,,,,,,,,,,,,,,,,,,519.1483804449672,None,2,0.5238581399898976,519.1483804449672,None,,,,,,,,,,,,,,,,None,None,None,,None,None,519.7148192879977,None,1,1,0.6842430949909613,519.7148192879977,None,520.3956825179106,None,None,None,None,,20,001,2023_Jan_23_0958,searchDisc5,2021.2.3,59.75259972524412,
images/exp2b_trial_308_colour2_distractors1_l.png,l,1,2,1,0,,,,,0,142,142,142,,,,,,,,,,,,,,,,,,,,,,,,,,,,,,,,,,,,,,,,,,,520.4149893329595,None,2,0.40456999198067933,520.4149893329595,None,,,,,,,,,,,,,,,,None,None,None,,None,None,520.8626494479831,None,1,1,0.5056809280067682,520.8626494479831,None,521.3623312249023,None,None,None,None,,20,001,2023_Jan_23_0958,searchDisc5,2021.2.3,59.75259972524412,
images/exp2b_trial_303_colour1_distractors1_l.png,l,1,1,1,0,,,,,0,143,143,143,,,,,,,,,,,,,,,,,,,,,,,,,,,,,,,,,,,,,,,,,,,521.3788502200041,None,2,0.4064602799480781,521.3788502200041,None,,,,,,,,,,,,,,,,None,None,None,,None,None,521.8311911119963,None,1,1,0.7358881990076043,521.8311911119963,None,522.5615256629011,None,None,None,None,,20,001,2023_Jan_23_0958,searchDisc5,2021.2.3,59.75259972524412,
images/exp1a_trial_175_colour1_distractors1_l.png,l,1,1,1,0,,,,,0,144,144,144,,,,,,,,,,,,,,,,,,,,,,,,,,,,,,,,,,,,,,,,,,,522.5788365660119,None,2,0.38875329098664224,522.5788365660119,None,,,,,,,,,,,,,,,,None,None,None,,None,None,523.0154353730031,None,1,1,1.03857265698025,523.0154353730031,None,524.0456124699034,None,None,None,None,,20,001,2023_Jan_23_0958,searchDisc5,2021.2.3,59.75259972524412,
images/exp2b_trial_46_colour3_distractors31_r.png,r,3,3,31,0,,,,,0,145,145,145,,,,,,,,,,,,,,,,,,,,,,,,,,,,,,,,,,,,,,,,,,,524.0629705049796,None,2,0.3718774019507691,524.0629705049796,None,,,,,,,,,,,,,,,,None,None,None,,None,None,524.4797750159632,None,3,1,0.5508440650301054,524.4797750159632,None,525.0291047248814,None,None,None,None,,20,001,2023_Jan_23_0958,searchDisc5,2021.2.3,59.75259972524412,
images/exp2a_trial_14_colour3_distractors31_r.png,r,3,3,31,0,,,,,0,146,146,146,,,,,,,,,,,,,,,,,,,,,,,,,,,,,,,,,,,,,,,,,,,525.0453071959782,None,2,0.44014904100913554,525.0453071959782,None,,,,,,,,,,,,,,,,None,None,None,,None,None,525.5315104179899,None,3,1,0.7496630129753612,525.5315104179899,None,526.2790206939156,None,None,None,None,,20,001,2023_Jan_23_0958,searchDisc5,2021.2.3,59.75259972524412,
images/exp2b_trial_313_colour3_distractors1_l.png,l,1,3,1,0,,,,,0,147,147,147,,,,,,,,,,,,,,,,,,,,,,,,,,,,,,,,,,,,,,,,,,,526.2950684209936,None,2,0.44005153997568414,526.2950684209936,None,,,,,,,,,,,,,,,,None,None,None,,None,None,526.781264330959,None,1,1,0.6199051130097359,526.781264330959,None,527.3956845689157,None,None,None,None,,20,001,2023_Jan_23_0958,searchDisc5,2021.2.3,59.75259972524412,
images/exp2b_trial_39_colour2_distractors9_r.png,r,3,2,9,0,,,,,0,148,148,148,,,,,,,,,,,,,,,,,,,,,,,,,,,,,,,,,,,,,,,,,,,527.4144508480094,None,2,0.3550166960339993,527.4144508480094,None,,,,,,,,,,,,,,,,None,None,None,,None,None,527.8154394539888,None,3,1,0.5863512179930694,527.8154394539888,None,528.3956948929175,None,None,None,None,,20,001,2023_Jan_23_0958,searchDisc5,2021.2.3,59.75259972524412,
images/exp2b_trial_197_colour2_distractors1_r.png,r,3,2,1,0,,,,,0,149,149,149,,,,,,,,,,,,,,,,,,,,,,,,,,,,,,,,,,,,,,,,,,,528.4132101099822,None,2,0.40531646099407226,528.4132101099822,None,,,,,,,,,,,,,,,,None,None,None,,None,None,528.8656680959975,None,1,0,0.5707135300035588,528.8656680959975,None,529.429220319906,None,None,None,None,,20,001,2023_Jan_23_0958,searchDisc5,2021.2.3,59.75259972524412,
images/exp2a_trial_92_colour3_distractors19_l.png,l,1,3,19,0,,,,,0,150,150,150,,,,,,,,,,,,,,,,,,,,,,,,,,,,,,,,,,,,,,,,,,,529.445695996983,None,2,0.5738408159813844,529.445695996983,None,,,,,,,,,,,,,,,,None,None,None,,None,None,530.0628891359665,None,1,1,0.6674620629637502,530.0628891359665,None,530.7300755509117,None,None,None,None,,20,001,2023_Jan_23_0958,searchDisc5,2021.2.3,59.75259972524412,
images/exp2b_trial_166_colour2_distractors4_r.png,r,3,2,4,0,,,,,0,151,151,151,,,,,,,,,,,,,,,,,,,,,,,,,,,,,,,,,,,,,,,,,,,530.7456687669619,None,2,0.40664699097396806,530.7456687669619,None,,,,,,,,,,,,,,,,None,None,None,,None,None,531.1989081010106,None,3,1,0.535289766965434,531.1989081010106,None,531.7291415968851,None,None,None,None,,20,001,2023_Jan_23_0958,searchDisc5,2021.2.3,59.75259972524412,
images/exp2c_trial_151_colour2_distractors19_l.png,l,1,2,19,0,,,,,0,152,152,152,,,,,,,,,,,,,,,,,,,,,,,,,,,,,,,,,,,,,,,,,,,531.7467814940028,None,2,0.4214970489847474,531.7467814940028,None,,,,,,,,,,,,,,,,None,None,None,,None,None,532.2155338070006,None,1,1,0.6198791079805233,532.2155338070006,None,532.8303363169019,None,None,None,None,,20,001,2023_Jan_23_0958,searchDisc5,2021.2.3,59.75259972524412,
images/exp2a_trial_22_colour2_distractors9_l.png,l,1,2,9,0,,,,,0,153,153,153,,,,,,,,,,,,,,,,,,,,,,,,,,,,,,,,,,,,,,,,,,,532.845153688977,None,2,0.4206457349937409,532.845153688977,None,,,,,,,,,,,,,,,,None,None,None,,None,None,533.3148438499775,None,1,1,0.5821119890315458,533.3148438499775,None,533.8960082458856,None,None,None,None,,20,001,2023_Jan_23_0958,searchDisc5,2021.2.3,59.75259972524412,
images/exp2a_trial_274_colour1_distractors19_l.png,l,1,1,19,0,,,,,0,154,154,154,,,,,,,,,,,,,,,,,,,,,,,,,,,,,,,,,,,,,,,,,,,533.9124976849998,None,2,0.4879869109718129,533.9124976849998,None,,,,,,,,,,,,,,,,None,None,None,,None,None,534.4482627550024,None,1,1,0.671472663001623,534.4482627550024,None,535.1125286988739,None,None,None,None,,20,001,2023_Jan_23_0958,searchDisc5,2021.2.3,59.75259972524412,
images/exp1a_trial_25_colour3_distractors1_l.png,l,1,3,1,0,,,,,0,155,155,155,,,,,,,,,,,,,,,,,,,,,,,,,,,,,,,,,,,,,,,,,,,535.1296663199901,None,2,0.43671430501854047,535.1296663199901,None,,,,,,,,,,,,,,,,None,None,None,,None,None,535.6131197079667,None,1,1,0.7213761759921908,535.6131197079667,None,536.329284256912,None,None,None,None,,20,001,2023_Jan_23_0958,searchDisc5,2021.2.3,59.75259972524412,
images/exp2c_trial_16_colour1_distractors4_l.png,l,1,1,4,0,,,,,0,156,156,156,,,,,,,,,,,,,,,,,,,,,,,,,,,,,,,,,,,,,,,,,,,536.3463937859633,None,2,0.4072278059902601,536.3463937859633,None,,,,,,,,,,,,,,,,None,None,None,,None,None,536.7982198040118,None,1,1,0.551859935047105,536.7982198040118,None,537.3458460168971,None,None,None,None,,20,001,2023_Jan_23_0958,searchDisc5,2021.2.3,59.75259972524412,
images/exp1a_trial_17_colour1_distractors9_l.png,l,1,1,9,0,,,,,0,157,157,157,,,,,,,,,,,,,,,,,,,,,,,,,,,,,,,,,,,,,,,,,,,537.3626401739893,None,2,0.44074003503192216,537.3626401739893,None,,,,,,,,,,,,,,,,None,None,None,,None,None,537.8489664010121,None,1,1,0.6167521349852905,537.8489664010121,None,538.4626922138908,None,None,None,None,,20,001,2023_Jan_23_0958,searchDisc5,2021.2.3,59.75259972524412,
images/exp1a_trial_86_colour2_distractors9_l.png,l,1,2,9,0,,,,,0,158,158,158,,,,,,,,,,,,,,,,,,,,,,,,,,,,,,,,,,,,,,,,,,,538.4799328370136,None,2,0.4879800660419278,538.4799328370136,None,,,,,,,,,,,,,,,,None,None,None,,None,None,539.0149666439975,None,1,1,0.6357886350015178,539.0149666439975,None,539.6460431378858,None,None,None,None,,20,001,2023_Jan_23_0958,searchDisc5,2021.2.3,59.75259972524412,
images/exp2a_trial_80_colour1_distractors4_l.png,l,1,1,4,0,,,,,0,159,159,159,,,,,,,,,,,,,,,,,,,,,,,,,,,,,,,,,,,,,,,,,,,539.6624998669722,None,2,0.47324392199516296,539.6624998669722,None,,,,,,,,,,,,,,,,None,None,None,,None,None,540.1799184699776,None,1,1,0.7693406580365263,540.1799184699776,None,540.9461767848755,None,None,None,None,,20,001,2023_Jan_23_0958,searchDisc5,2021.2.3,59.75259972524412,
images/exp2b_trial_256_colour1_distractors1_r.png,r,3,1,1,0,,,,,0,160,160,160,,,,,,,,,,,,,,,,,,,,,,,,,,,,,,,,,,,,,,,,,,,540.9626661369693,None,2,1.0711280989926308,540.9626661369693,None,,,,,,,,,,,,,,,,None,None,None,,None,None,542.080646722985,None,3,1,0.9552526070037857,542.080646722985,None,543.0295590288646,None,None,None,None,,20,001,2023_Jan_23_0958,searchDisc5,2021.2.3,59.75259972524412,
images/exp2c_trial_297_colour2_distractors31_r.png,r,3,2,31,0,,,,,0,161,161,161,,,,,,,,,,,,,,,,,,,,,,,,,,,,,,,,,,,,,,,,,,,543.0461721899919,None,2,0.4545517290243879,543.0461721899919,None,,,,,,,,,,,,,,,,None,None,None,,None,None,543.5494497119798,None,3,1,0.5521643120446242,543.5494497119798,None,544.0963047908793,None,None,None,None,,20,001,2023_Jan_23_0958,searchDisc5,2021.2.3,59.75259972524412,
images/exp1a_trial_13_colour3_distractors19_r.png,r,3,3,19,0,,,,,0,162,162,162,,,,,,,,,,,,,,,,,,,,,,,,,,,,,,,,,,,,,,,,,,,544.1129355260055,None,2,0.5212136050104164,544.1129355260055,None,,,,,,,,,,,,,,,,None,None,None,,None,None,544.6817777149845,None,3,1,0.5680803259601817,544.6817777149845,None,545.2471774658828,None,None,None,None,,20,001,2023_Jan_23_0958,searchDisc5,2021.2.3,59.75259972524412,
images/exp2c_trial_150_colour2_distractors9_l.png,l,1,2,9,0,,,,,0,163,163,163,,,,,,,,,,,,,,,,,,,,,,,,,,,,,,,,,,,,,,,,,,,545.2635579649941,None,2,0.5036327040288597,545.2635579649941,None,,,,,,,,,,,,,,,,None,None,None,,None,None,545.816196787986,None,1,1,0.7196907650213689,545.816196787986,None,546.5296402768639,None,None,None,None,,20,001,2023_Jan_23_0958,searchDisc5,2021.2.3,59.75259972524412,
images/exp1a_trial_283_colour3_distractors9_l.png,l,1,3,9,0,,,,,0,164,164,164,,,,,,,,,,,,,,,,,,,,,,,,,,,,,,,,,,,,,,,,,,,546.5457450220129,None,2,0.4718818410183303,546.5457450220129,None,,,,,,,,,,,,,,,,None,None,None,,None,None,547.0635643459973,None,1,1,0.5200565839768387,547.0635643459973,None,547.5807681438804,None,None,None,None,,20,001,2023_Jan_23_0958,searchDisc5,2021.2.3,59.75259972524412,
images/exp1a_trial_223_colour0_distractors0_l.png,l,1,0,0,0,,,,,0,165,165,165,,,,,,,,,,,,,,,,,,,,,,,,,,,,,,,,,,,,,,,,,,,547.5969141430105,None,2,0.4361291649984196,547.5969141430105,None,,,,,,,,,,,,,,,,None,None,None,,None,None,548.0808713979786,None,1,1,0.5058142890338786,548.0808713979786,None,548.5795846218883,None,None,None,None,,20,001,2023_Jan_23_0958,searchDisc5,2021.2.3,59.75259972524412,
images/exp1a_trial_41_colour2_distractors31_r.png,r,3,2,31,0,,,,,0,166,166,166,,,,,,,,,,,,,,,,,,,,,,,,,,,,,,,,,,,,,,,,,,,548.5969539720099,None,2,0.47135452000657097,548.5969539720099,None,,,,,,,,,,,,,,,,None,None,None,,None,None,549.1141116259969,None,3,1,0.8656193740316667,549.1141116259969,None,549.9796424718865,None,None,None,None,,20,001,2023_Jan_23_0958,searchDisc5,2021.2.3,59.75259972524412,
images/exp1a_trial_167_colour2_distractors9_r.png,r,3,2,9,0,,,,,0,167,167,167,,,,,,,,,,,,,,,,,,,,,,,,,,,,,,,,,,,,,,,,,,,549.9986069389852,None,2,0.4874798890086822,549.9986069389852,None,,,,,,,,,,,,,,,,None,None,None,,None,None,550.5300372999627,None,3,1,0.5202290510060266,550.5300372999627,None,551.0465531469148,None,None,None,None,,20,001,2023_Jan_23_0958,searchDisc5,2021.2.3,59.75259972524412,
images/exp1a_trial_190_colour0_distractors0_r.png,r,3,0,0,0,,,,,0,168,168,168,,,,,,,,,,,,,,,,,,,,,,,,,,,,,,,,,,,,,,,,,,,551.0639552969951,None,2,0.4717465790454298,551.0639552969951,None,,,,,,,,,,,,,,,,None,None,None,,None,None,551.5823007840081,None,3,1,0.504214694024995,551.5823007840081,None,552.0796576328634,None,None,None,None,,20,001,2023_Jan_23_0958,searchDisc5,2021.2.3,59.75259972524412,
images/exp2b_trial_80_colour1_distractors4_l.png,l,1,1,4,0,,,,,0,169,169,169,,,,,,,,,,,,,,,,,,,,,,,,,,,,,,,,,,,,,,,,,,,552.0959356459789,None,2,0.5067460429854691,552.0959356459789,None,,,,,,,,,,,,,,,,None,None,None,,None,None,552.6488088989863,None,1,1,0.5026879879878834,552.6488088989863,None,553.1463829599146,None,None,None,None,,20,001,2023_Jan_23_0958,searchDisc5,2021.2.3,59.75259972524412,
images/exp1a_trial_252_colour3_distractors19_l.png,l,1,3,19,0,,,,,0,170,170,170,,,,,,,,,,,,,,,,,,,,,,,,,,,,,,,,,,,,,,,,,,,553.1630371309584,None,2,0.4399879780248739,553.1630371309584,None,,,,,,,,,,,,,,,,None,None,None,,None,None,553.6471753129736,None,1,1,0.5491764880134724,553.6471753129736,None,554.1963676328945,None,None,None,None,,20,001,2023_Jan_23_0958,searchDisc5,2021.2.3,59.75259972524412,
images/exp2c_trial_289_colour1_distractors4_r.png,r,3,1,4,0,,,,,0,171,171,171,,,,,,,,,,,,,,,,,,,,,,,,,,,,,,,,,,,,,,,,,,,554.2151191660087,None,2,0.47221532103139907,554.2151191660087,None,,,,,,,,,,,,,,,,None,None,None,,None,None,554.7310220450163,None,3,1,0.6205144409905188,554.7310220450163,None,555.3464304538851,None,None,None,None,,20,001,2023_Jan_23_0958,searchDisc5,2021.2.3,59.75259972524412,
images/exp2a_trial_318_colour0_distractors0_r.png,r,3,0,0,0,,,,,0,172,172,172,,,,,,,,,,,,,,,,,,,,,,,,,,,,,,,,,,,,,,,,,,,555.3638980159885,None,2,0.4391655170475133,555.3638980159885,None,,,,,,,,,,,,,,,,None,None,None,,None,None,555.8488687709905,None,3,1,0.5373919100384228,555.8488687709905,None,556.3798427179048,None,None,None,None,,20,001,2023_Jan_23_0958,searchDisc5,2021.2.3,59.75259972524412,
images/exp2a_trial_191_colour0_distractors0_l.png,l,1,0,0,0,,,,,0,173,173,173,,,,,,,,,,,,,,,,,,,,,,,,,,,,,,,,,,,,,,,,,,,556.3972377940081,None,2,0.439884081017226,556.3972377940081,None,,,,,,,,,,,,,,,,None,None,None,,None,None,556.8821889939718,None,1,1,0.5376864569843747,556.8821889939718,None,557.4143187548674,None,None,None,None,,20,001,2023_Jan_23_0958,searchDisc5,2021.2.3,59.75259972524412,
images/exp2b_trial_233_colour2_distractors31_r.png,r,3,2,31,0,,,,,0,174,174,174,,,,,,,,,,,,,,,,,,,,,,,,,,,,,,,,,,,,,,,,,,,557.4288279289613,None,2,0.48792871297337115,557.4288279289613,None,,,,,,,,,,,,,,,,None,None,None,,None,None,557.9659116689581,None,3,1,0.6014590349514037,557.9659116689581,None,558.5633243178657,None,None,None,None,,20,001,2023_Jan_23_0958,searchDisc5,2021.2.3,59.75259972524412,
images/exp2b_trial_69_colour2_distractors1_r.png,r,3,2,1,0,,,,,0,175,175,175,,,,,,,,,,,,,,,,,,,,,,,,,,,,,,,,,,,,,,,,,,,558.5801496949862,None,2,0.48772641201503575,558.5801496949862,None,,,,,,,,,,,,,,,,None,None,None,,None,None,559.1164168280084,None,3,1,0.7044680190156214,559.1164168280084,None,559.8133775388764,None,None,None,None,,20,001,2023_Jan_23_0958,searchDisc5,2021.2.3,59.75259972524412,
images/exp1a_trial_103_colour2_distractors9_r.png,r,3,2,9,0,,,,,0,176,176,176,,,,,,,,,,,,,,,,,,,,,,,,,,,,,,,,,,,,,,,,,,,559.8292278219596,None,2,0.43966412998270243,559.8292278219596,None,,,,,,,,,,,,,,,,None,None,None,,None,None,560.3162116149906,None,3,1,0.8833667320432141,560.3162116149906,None,561.1960801418812,None,None,None,None,,20,001,2023_Jan_23_0958,searchDisc5,2021.2.3,59.75259972524412,
images/exp2b_trial_261_colour2_distractors1_r.png,r,3,2,1,0,,,,,0,177,177,177,,,,,,,,,,,,,,,,,,,,,,,,,,,,,,,,,,,,,,,,,,,561.2142998810159,None,2,0.4247954860329628,561.2142998810159,None,,,,,,,,,,,,,,,,None,None,None,,None,None,561.6816275669844,None,3,1,0.46869569801492617,561.6816275669844,None,562.1466361648694,None,None,None,None,,20,001,2023_Jan_23_0958,searchDisc5,2021.2.3,59.75259972524412,
images/exp1a_trial_162_colour1_distractors9_r.png,r,3,1,9,0,,,,,0,178,178,178,,,,,,,,,,,,,,,,,,,,,,,,,,,,,,,,,,,,,,,,,,,562.1625581830158,None,2,0.45462130598025396,562.1625581830158,None,,,,,,,,,,,,,,,,None,None,None,,None,None,562.6642541390029,None,3,1,0.9200229700072668,562.6642541390029,None,563.5801775138883,None,None,None,None,,20,001,2023_Jan_23_0958,searchDisc5,2021.2.3,59.75259972524412,
images/exp1a_trial_265_colour2_distractors31_r.png,r,3,2,31,0,,,,,0,179,179,179,,,,,,,,,,,,,,,,,,,,,,,,,,,,,,,,,,,,,,,,,,,563.5967042229604,None,2,0.4377660419559106,563.5967042229604,None,,,,,,,,,,,,,,,,None,None,None,,None,None,564.081113193999,None,1,0,0.532363798993174,564.081113193999,None,564.6133641129185,None,None,None,None,,20,001,2023_Jan_23_0958,searchDisc5,2021.2.3,59.75259972524412,
images/exp1a_trial_179_colour1_distractors31_l.png,l,1,1,31,0,,,,,0,180,180,180,,,,,,,,,,,,,,,,,,,,,,,,,,,,,,,,,,,,,,,,,,,564.6308110479731,None,2,0.6552436189958826,564.6308110479731,None,,,,,,,,,,,,,,,,None,None,None,,None,None,565.3304653979721,None,1,1,0.8821315319510177,565.3304653979721,None,566.2135169068991,None,None,None,None,,20,001,2023_Jan_23_0958,searchDisc5,2021.2.3,59.75259972524412,
images/exp2b_trial_222_colour0_distractors0_r.png,r,3,0,0,0,,,,,0,181,181,181,,,,,,,,,,,,,,,,,,,,,,,,,,,,,,,,,,,,,,,,,,,566.2306151950033,None,2,0.4064821040374227,566.2306151950033,None,,,,,,,,,,,,,,,,None,None,None,,None,None,566.6811547849793,None,3,1,0.6055744060431607,566.6811547849793,None,567.2812531779113,None,None,None,None,,20,001,2023_Jan_23_0958,searchDisc5,2021.2.3,59.75259972524412,
images/exp2c_trial_261_colour2_distractors1_r.png,r,3,2,1,0,,,,,0,182,182,182,,,,,,,,,,,,,,,,,,,,,,,,,,,,,,,,,,,,,,,,,,,567.2969537269673,None,2,0.40529355994658545,567.2969537269673,None,,,,,,,,,,,,,,,,None,None,None,,None,None,567.7470912269782,None,3,1,0.4353857510141097,567.7470912269782,None,568.1802770968701,None,None,None,None,,20,001,2023_Jan_23_0958,searchDisc5,2021.2.3,59.75259972524412,
images/exp1a_trial_85_colour2_distractors4_l.png,l,1,2,4,0,,,,,0,183,183,183,,,,,,,,,,,,,,,,,,,,,,,,,,,,,,,,,,,,,,,,,,,568.1966637499863,None,2,0.4550823610043153,568.1966637499863,None,,,,,,,,,,,,,,,,None,None,None,,None,None,568.696769748989,None,1,1,0.804063854040578,568.696769748989,None,569.4979215288826,None,None,None,None,,20,001,2023_Jan_23_0958,searchDisc5,2021.2.3,59.75259972524412,
images/exp2b_trial_307_colour1_distractors31_l.png,l,1,1,31,0,,,,,0,184,184,184,,,,,,,,,,,,,,,,,,,,,,,,,,,,,,,,,,,,,,,,,,,569.5163222349947,None,2,0.38869128399528563,569.5163222349947,None,,,,,,,,,,,,,,,,None,None,None,,None,None,569.9467421490117,None,1,1,0.783528491971083,569.9467421490117,None,570.7303760079143,None,None,None,None,,20,001,2023_Jan_23_0958,searchDisc5,2021.2.3,59.75259972524412,
images/exp2b_trial_25_colour3_distractors1_l.png,l,1,3,1,0,,,,,0,185,185,185,,,,,,,,,,,,,,,,,,,,,,,,,,,,,,,,,,,,,,,,,,,570.7462789129931,None,2,0.4232406860101037,570.7462789129931,None,,,,,,,,,,,,,,,,None,None,None,,None,None,571.2139653299819,None,1,1,0.653154933010228,571.2139653299819,None,571.863671088888,None,None,None,None,,20,001,2023_Jan_23_0958,searchDisc5,2021.2.3,59.75259972524412,
images/exp2c_trial_17_colour1_distractors9_l.png,l,1,1,9,0,,,,,0,186,186,186,,,,,,,,,,,,,,,,,,,,,,,,,,,,,,,,,,,,,,,,,,,571.880787602975,None,2,0.42403628799365833,571.880787602975,None,,,,,,,,,,,,,,,,None,None,None,,None,None,572.3471643810044,None,1,1,0.601406975009013,572.3471643810044,None,572.9470102568797,None,None,None,None,,20,001,2023_Jan_23_0958,searchDisc5,2021.2.3,59.75259972524412,
images/exp2c_trial_270_colour3_distractors31_r.png,r,3,3,31,0,,,,,0,187,187,187,,,,,,,,,,,,,,,,,,,,,,,,,,,,,,,,,,,,,,,,,,,572.9643083999981,None,2,0.45454653404885903,572.9643083999981,None,,,,,,,,,,,,,,,,None,None,None,,None,None,573.4647459419793,None,3,1,0.9852327830158174,573.4647459419793,None,574.4470570478646,None,None,None,None,,20,001,2023_Jan_23_0958,searchDisc5,2021.2.3,59.75259972524412,
images/exp1a_trial_185_colour3_distractors1_l.png,l,1,3,1,0,,,,,0,188,188,188,,,,,,,,,,,,,,,,,,,,,,,,,,,,,,,,,,,,,,,,,,,574.4643231569789,None,2,0.48766588600119576,574.4643231569789,None,,,,,,,,,,,,,,,,None,None,None,,None,None,574.9998729709769,None,1,1,0.6717319900053553,574.9998729709769,None,575.6632814019162,None,None,None,None,,20,001,2023_Jan_23_0958,searchDisc5,2021.2.3,59.75259972524412,
images/exp1a_trial_73_colour2_distractors31_r.png,r,3,2,31,0,,,,,0,189,189,189,,,,,,,,,,,,,,,,,,,,,,,,,,,,,,,,,,,,,,,,,,,575.6803415869945,None,2,0.4384786380105652,575.6803415869945,None,,,,,,,,,,,,,,,,None,None,None,,None,None,576.1643754249671,None,3,1,0.547794759972021,576.1643754249671,None,576.7129804978671,None,None,None,None,,20,001,2023_Jan_23_0958,searchDisc5,2021.2.3,59.75259972524412,
images/exp2c_trial_275_colour1_distractors31_l.png,l,1,1,31,0,,,,,0,190,190,190,,,,,,,,,,,,,,,,,,,,,,,,,,,,,,,,,,,,,,,,,,,576.7311395379947,None,2,0.4574463039753027,576.7311395379947,None,,,,,,,,,,,,,,,,None,None,None,,None,None,577.2326762650046,None,1,1,0.5841248899814673,577.2326762650046,None,577.8149255338998,None,None,None,None,,20,001,2023_Jan_23_0958,searchDisc5,2021.2.3,59.75259972524412,
images/exp2c_trial_119_colour2_distractors19_l.png,l,1,2,19,0,,,,,0,191,191,191,,,,,,,,,,,,,,,,,,,,,,,,,,,,,,,,,,,,,,,,,,,577.8332529689651,None,2,0.43651544203748927,577.8332529689651,None,,,,,,,,,,,,,,,,None,None,None,,None,None,578.3160019060015,None,1,1,0.5887940970133059,578.3160019060015,None,578.8981628369132,None,None,None,None,,20,001,2023_Jan_23_0958,searchDisc5,2021.2.3,59.75259972524412,
images/exp2b_trial_193_colour1_distractors4_r.png,r,3,1,4,0,,,,,0,192,192,192,,,,,,,,,,,,,,,,,,,,,,,,,,,,,,,,,,,,,,,,,,,578.914579350967,None,2,0.5021358639933169,578.914579350967,None,,,,,,,,,,,,,,,,None,None,None,,None,None,579.4668184680049,None,3,1,0.6200610409723595,579.4668184680049,None,580.080478525901,None,None,None,None,,20,001,2023_Jan_23_0958,searchDisc5,2021.2.3,59.75259972524412,
images/exp2b_trial_103_colour2_distractors9_r.png,r,3,2,9,0,,,,,0,193,193,193,,,,,,,,,,,,,,,,,,,,,,,,,,,,,,,,,,,,,,,,,,,580.0976754279691,None,2,0.4742642649798654,580.0976754279691,None,,,,,,,,,,,,,,,,None,None,None,,None,None,580.6163698210148,None,3,1,0.5673902879934758,580.6163698210148,None,581.180492467893,None,None,None,None,,20,001,2023_Jan_23_0958,searchDisc5,2021.2.3,59.75259972524412,
images/exp1a_trial_11_colour3_distractors4_r.png,r,3,3,4,0,,,,,0,194,194,194,,,,,,,,,,,,,,,,,,,,,,,,,,,,,,,,,,,,,,,,,,,581.1975081010023,None,2,0.4404009230202064,581.1975081010023,None,,,,,,,,,,,,,,,,None,None,None,,None,None,581.6829205999966,None,3,1,0.6185206099762581,581.6829205999966,None,582.297315810871,None,None,None,None,,20,001,2023_Jan_23_0958,searchDisc5,2021.2.3,59.75259972524412,
images/exp2c_trial_317_colour3_distractors31_l.png,l,1,3,31,0,,,,,0,195,195,195,,,,,,,,,,,,,,,,,,,,,,,,,,,,,,,,,,,,,,,,,,,582.313845022989,None,2,0.42105647397693247,582.313845022989,None,,,,,,,,,,,,,,,,None,None,None,,None,None,582.7827239279868,None,1,1,0.9518411349854432,582.7827239279868,None,583.7306753589131,None,None,None,None,,20,001,2023_Jan_23_0958,searchDisc5,2021.2.3,59.75259972524412,
images/exp1a_trial_5_colour2_distractors1_r.png,r,3,2,1,0,,,,,0,196,196,196,,,,,,,,,,,,,,,,,,,,,,,,,,,,,,,,,,,,,,,,,,,583.748321477964,None,2,0.43693576398072764,583.748321477964,None,,,,,,,,,,,,,,,,None,None,None,,None,None,584.231195727014,None,3,1,0.5557468619663268,584.231195727014,None,584.7806190848991,None,None,None,None,,20,001,2023_Jan_23_0958,searchDisc5,2021.2.3,59.75259972524412,
images/exp2b_trial_209_colour1_distractors9_l.png,l,1,1,9,0,,,,,0,197,197,197,,,,,,,,,,,,,,,,,,,,,,,,,,,,,,,,,,,,,,,,,,,584.7979736250127,None,2,0.4260833769803867,584.7979736250127,None,,,,,,,,,,,,,,,,None,None,None,,None,None,585.2655544279842,None,1,1,0.6157384990365244,585.2655544279842,None,585.8806728138646,None,None,None,None,,20,001,2023_Jan_23_0958,searchDisc5,2021.2.3,59.75259972524412,
images/exp2a_trial_224_colour1_distractors1_r.png,r,3,1,1,0,,,,,0,198,198,198,,,,,,,,,,,,,,,,,,,,,,,,,,,,,,,,,,,,,,,,,,,585.8979860619875,None,2,0.4922231829841621,585.8979860619875,None,,,,,,,,,,,,,,,,None,None,None,,None,None,586.430874023994,None,3,1,0.6009062279481441,586.430874023994,None,587.0309332349046,None,None,None,None,,20,001,2023_Jan_23_0958,searchDisc5,2021.2.3,59.75259972524412,
images/exp2a_trial_65_colour1_distractors4_r.png,r,3,1,4,0,,,,,0,199,199,199,,,,,,,,,,,,,,,,,,,,,,,,,,,,,,,,,,,,,,,,,,,587.048044539988,None,2,0.43869666499085724,587.048044539988,None,,,,,,,,,,,,,,,,None,None,None,,None,None,587.5318507630145,None,3,1,0.5694953359779902,587.5318507630145,None,588.0973783629073,None,None,None,None,,20,001,2023_Jan_23_0958,searchDisc5,2021.2.3,59.75259972524412,
images/exp1a_trial_309_colour2_distractors4_l.png,l,1,2,4,0,,,,,0,200,200,200,,,,,,,,,,,,,,,,,,,,,,,,,,,,,,,,,,,,,,,,,,,588.1149852899835,None,2,0.43959065299713984,588.1149852899835,None,,,,,,,,,,,,,,,,None,None,None,,None,None,588.5981626060093,None,1,1,0.6189835719997063,588.5981626060093,None,589.2140957288851,None,None,None,None,,20,001,2023_Jan_23_0958,searchDisc5,2021.2.3,59.75259972524412,
images/exp1a_trial_226_colour1_distractors9_r.png,r,3,1,9,0,,,,,0,201,201,201,,,,,,,,,,,,,,,,,,,,,,,,,,,,,,,,,,,,,,,,,,,589.2311667439644,None,2,0.4551483860122971,589.2311667439644,None,,,,,,,,,,,,,,,,None,None,None,,None,None,589.7309840169619,None,1,0,0.6185876810341142,589.7309840169619,None,590.3474307418859,None,None,None,None,,20,001,2023_Jan_23_0958,searchDisc5,2021.2.3,59.75259972524412,
images/exp2a_trial_218_colour3_distractors4_l.png,l,1,3,4,0,,,,,0,202,202,202,,,,,,,,,,,,,,,,,,,,,,,,,,,,,,,,,,,,,,,,,,,590.3640920339967,None,2,0.5705525620141998,590.3640920339967,None,,,,,,,,,,,,,,,,None,None,None,,None,None,590.9810391889769,None,1,1,0.6221231480012648,590.9810391889769,None,591.5975709558755,None,None,None,None,,20,001,2023_Jan_23_0958,searchDisc5,2021.2.3,59.75259972524412,
images/exp2b_trial_280_colour2_distractors31_l.png,l,1,2,31,0,,,,,0,203,203,203,,,,,,,,,,,,,,,,,,,,,,,,,,,,,,,,,,,,,,,,,,,591.6140530199627,None,2,0.3553696629824117,591.6140530199627,None,,,,,,,,,,,,,,,,None,None,None,,None,None,592.0156509329681,None,1,1,0.717892040964216,592.0156509329681,None,592.7308293518785,None,None,None,None,,20,001,2023_Jan_23_0958,searchDisc5,2021.2.3,59.75259972524412,
images/exp2c_trial_58_colour3_distractors4_l.png,l,1,3,4,0,,,,,0,204,204,204,,,,,,,,,,,,,,,,,,,,,,,,,,,,,,,,,,,,,,,,,,,592.7483031550073,None,2,0.35431244800565764,592.7483031550073,None,,,,,,,,,,,,,,,,None,None,None,,None,None,593.1477254159981,None,1,1,0.6383362609776668,593.1477254159981,None,593.7808870138891,None,None,None,None,,20,001,2023_Jan_23_0958,searchDisc5,2021.2.3,59.75259972524412,
images/exp2c_trial_313_colour3_distractors1_l.png,l,1,3,1,0,,,,,0,205,205,205,,,,,,,,,,,,,,,,,,,,,,,,,,,,,,,,,,,,,,,,,,,593.7980101649882,None,2,0.47336137999081984,593.7980101649882,None,,,,,,,,,,,,,,,,None,None,None,,None,None,594.3150731020141,None,1,1,0.6198397380067036,594.3150731020141,None,594.9309034508827,None,None,None,None,,20,001,2023_Jan_23_0958,searchDisc5,2021.2.3,59.75259972524412,
images/exp2c_trial_86_colour2_distractors9_l.png,l,1,2,9,0,,,,,0,206,206,206,,,,,,,,,,,,,,,,,,,,,,,,,,,,,,,,,,,,,,,,,,,594.9502524390118,None,2,0.39003775600576773,594.9502524390118,None,,,,,,,,,,,,,,,,None,None,None,,None,None,595.3824855749845,None,1,1,0.5833912999951281,595.3824855749845,None,595.9643875368696,None,None,None,None,,20,001,2023_Jan_23_0958,searchDisc5,2021.2.3,59.75259972524412,
images/exp2b_trial_199_colour2_distractors9_r.png,r,3,2,9,0,,,,,0,207,207,207,,,,,,,,,,,,,,,,,,,,,,,,,,,,,,,,,,,,,,,,,,,595.9810860989965,None,2,0.4377790259895846,595.9810860989965,None,,,,,,,,,,,,,,,,None,None,None,,None,None,596.4648933439748,None,3,1,0.5869860670063645,596.4648933439748,None,597.0475698278809,None,None,None,None,,20,001,2023_Jan_23_0958,searchDisc5,2021.2.3,59.75259972524412,
images/exp2a_trial_27_colour3_distractors9_l.png,l,1,3,9,0,,,,,0,208,208,208,,,,,,,,,,,,,,,,,,,,,,,,,,,,,,,,,,,,,,,,,,,597.064954728994,None,2,0.43745726498309523,597.064954728994,None,,,,,,,,,,,,,,,,None,None,None,,None,None,597.549972762994,None,1,1,0.5046204410027713,597.549972762994,None,598.0475051449088,None,None,None,None,,20,001,2023_Jan_23_0958,searchDisc5,2021.2.3,59.75259972524412,
images/exp2c_trial_64_colour1_distractors1_r.png,r,3,1,1,0,,,,,0,209,209,209,,,,,,,,,,,,,,,,,,,,,,,,,,,,,,,,,,,,,,,,,,,598.0643037309637,None,2,0.48865790996933356,598.0643037309637,None,,,,,,,,,,,,,,,,None,None,None,,None,None,598.5977526130155,None,3,1,1.6380052589811385,598.5977526130155,None,600.2310721188609,None,None,None,None,,20,001,2023_Jan_23_0958,searchDisc5,2021.2.3,59.75259972524412,
images/exp2a_trial_234_colour3_distractors1_r.png,r,3,3,1,0,,,,,0,210,210,210,,,,,,,,,,,,,,,,,,,,,,,,,,,,,,,,,,,,,,,,,,,600.2484600209864,None,2,0.42419419705402106,600.2484600209864,None,,,,,,,,,,,,,,,,None,None,None,,None,None,600.7165451389737,None,3,1,0.552249999018386,600.7165451389737,None,601.2645453668723,None,None,None,None,,20,001,2023_Jan_23_0958,searchDisc5,2021.2.3,59.75259972524412,
images/exp1a_trial_149_colour2_distractors4_l.png,l,1,2,4,0,,,,,0,211,211,211,,,,,,,,,,,,,,,,,,,,,,,,,,,,,,,,,,,,,,,,,,,601.280924058985,None,2,0.3713027480407618,601.280924058985,None,,,,,,,,,,,,,,,,None,None,None,,None,None,601.6988259049831,None,1,1,1.0716922580031678,601.6988259049831,None,602.7654205018829,None,None,None,None,,20,001,2023_Jan_23_0958,searchDisc5,2021.2.3,59.75259972524412,
images/exp2c_trial_129_colour1_distractors4_r.png,r,3,1,4,0,,,,,0,212,212,212,,,,,,,,,,,,,,,,,,,,,,,,,,,,,,,,,,,,,,,,,,,602.7811911010067,None,2,0.3042270779842511,602.7811911010067,None,,,,,,,,,,,,,,,,None,None,None,,None,None,603.1310302889906,None,3,1,0.5377100209589116,603.1310302889906,None,603.6646275238658,None,None,None,None,,20,001,2023_Jan_23_0958,searchDisc5,2021.2.3,59.75259972524412,
images/exp2c_trial_227_colour1_distractors19_r.png,r,3,1,19,0,,,,,0,213,213,213,,,,,,,,,,,,,,,,,,,,,,,,,,,,,,,,,,,,,,,,,,,603.6807776059723,None,2,0.32069658301770687,603.6807776059723,None,,,,,,,,,,,,,,,,None,None,None,,None,None,604.04799675697,None,3,1,0.5357379379565828,604.04799675697,None,604.5811935488658,None,None,None,None,,20,001,2023_Jan_23_0958,searchDisc5,2021.2.3,59.75259972524412,
images/exp1a_trial_6_colour2_distractors4_r.png,r,3,2,4,0,,,,,0,214,214,214,,,,,,,,,,,,,,,,,,,,,,,,,,,,,,,,,,,,,,,,,,,604.600202201982,None,2,0.35597656498430297,604.600202201982,None,,,,,,,,,,,,,,,,None,None,None,,None,None,605.0002529969788,None,3,1,0.6027828059741296,605.0002529969788,None,605.5978811638837,None,None,None,None,,20,001,2023_Jan_23_0958,searchDisc5,2021.2.3,59.75259972524412,
images/exp1a_trial_154_colour3_distractors4_l.png,l,1,3,4,0,,,,,0,215,215,215,,,,,,,,,,,,,,,,,,,,,,,,,,,,,,,,,,,,,,,,,,,605.6152067249641,None,2,0.32218828197801486,605.6152067249641,None,,,,,,,,,,,,,,,,None,None,None,,None,None,605.9822152729612,None,1,1,0.5371140260249376,605.9822152729612,None,606.5153574328928,None,None,None,None,,20,001,2023_Jan_23_0958,searchDisc5,2021.2.3,59.75259972524412,
images/exp2c_trial_194_colour1_distractors9_r.png,r,3,1,9,0,,,,,0,216,216,216,,,,,,,,,,,,,,,,,,,,,,,,,,,,,,,,,,,,,,,,,,,606.5328432099777,None,2,0.3544261920033023,606.5328432099777,None,,,,,,,,,,,,,,,,None,None,None,,None,None,606.9341442270088,None,3,1,0.46907664299942553,606.9341442270088,None,607.3979378459102,None,None,None,None,,20,001,2023_Jan_23_0958,searchDisc5,2021.2.3,59.75259972524412,
images/exp2b_trial_177_colour1_distractors9_l.png,l,1,1,9,0,,,,,0,217,217,217,,,,,,,,,,,,,,,,,,,,,,,,,,,,,,,,,,,,,,,,,,,607.414667458972,None,2,0.4238913740264252,607.414667458972,None,,,,,,,,,,,,,,,,None,None,None,,None,None,607.8844212539843,None,1,1,1.0020682099857368,607.8844212539843,None,608.8823357028945,None,None,None,None,,20,001,2023_Jan_23_0958,searchDisc5,2021.2.3,59.75259972524412,
images/exp2b_trial_223_colour0_distractors0_l.png,l,1,0,0,0,,,,,0,218,218,218,,,,,,,,,,,,,,,,,,,,,,,,,,,,,,,,,,,,,,,,,,,608.8985482559656,None,2,0.3701324050198309,608.8985482559656,None,,,,,,,,,,,,,,,,None,None,None,,None,None,609.3147793069948,None,1,1,0.5057550909696147,609.3147793069948,None,609.8147425468836,None,None,None,None,,20,001,2023_Jan_23_0958,searchDisc5,2021.2.3,59.75259972524412,
images/exp2a_trial_166_colour2_distractors4_r.png,r,3,2,4,0,,,,,0,219,219,219,,,,,,,,,,,,,,,,,,,,,,,,,,,,,,,,,,,,,,,,,,,609.830327327014,None,2,0.4074645259534009,609.830327327014,None,,,,,,,,,,,,,,,,None,None,None,,None,None,610.2845021579997,None,3,1,0.6833199600223452,610.2845021579997,None,610.9647994758619,None,None,None,None,,20,001,2023_Jan_23_0958,searchDisc5,2021.2.3,59.75259972524412,
images/exp2c_trial_7_colour2_distractors9_r.png,r,3,2,9,0,,,,,0,220,220,220,,,,,,,,,,,,,,,,,,,,,,,,,,,,,,,,,,,,,,,,,,,610.9815586109762,None,2,0.37157139100600034,610.9815586109762,None,,,,,,,,,,,,,,,,None,None,None,,None,None,611.4004163919599,None,3,1,0.5528680700226687,611.4004163919599,None,611.9480968168995,None,None,None,None,,20,001,2023_Jan_23_0958,searchDisc5,2021.2.3,59.75259972524412,
images/exp2a_trial_26_colour3_distractors4_l.png,l,1,3,4,0,,,,,0,221,221,221,,,,,,,,,,,,,,,,,,,,,,,,,,,,,,,,,,,,,,,,,,,611.9654910229729,None,2,0.40379152901005,611.9654910229729,None,,,,,,,,,,,,,,,,None,None,None,,None,None,612.4175529580098,None,1,1,0.48886737099383026,612.4175529580098,None,612.8982048638921,None,None,None,None,,20,001,2023_Jan_23_0958,searchDisc5,2021.2.3,59.75259972524412,
images/exp2b_trial_297_colour2_distractors31_r.png,r,3,2,31,0,,,,,0,222,222,222,,,,,,,,,,,,,,,,,,,,,,,,,,,,,,,,,,,,,,,,,,,612.9147538199904,None,2,0.39074867800809443,612.9147538199904,None,,,,,,,,,,,,,,,,None,None,None,,None,None,613.3498423589626,None,3,1,0.6341246039955877,613.3498423589626,None,613.9825034628797,None,None,None,None,,20,001,2023_Jan_23_0958,searchDisc5,2021.2.3,59.75259972524412,
images/exp2b_trial_88_colour2_distractors31_l.png,l,1,2,31,0,,,,,0,223,223,223,,,,,,,,,,,,,,,,,,,,,,,,,,,,,,,,,,,,,,,,,,,613.9979526349925,None,2,0.3890251530101523,613.9979526349925,None,,,,,,,,,,,,,,,,None,None,None,,None,None,614.4336578919902,None,1,1,0.6986199429957196,614.4336578919902,None,615.1314630988694,None,None,None,None,,20,001,2023_Jan_23_0958,searchDisc5,2021.2.3,59.75259972524412,
images/exp2a_trial_118_colour2_distractors9_l.png,l,1,2,9,0,,,,,0,224,224,224,,,,,,,,,,,,,,,,,,,,,,,,,,,,,,,,,,,,,,,,,,,615.147952210973,None,2,0.389227933017537,615.147952210973,None,,,,,,,,,,,,,,,,None,None,None,,None,None,615.5836953470134,None,1,1,0.815163159975782,615.5836953470134,None,616.398115777882,None,None,None,None,,20,001,2023_Jan_23_0958,searchDisc5,2021.2.3,59.75259972524412,
images/exp2a_trial_146_colour1_distractors19_l.png,l,1,1,19,0,,,,,0,225,225,225,,,,,,,,,,,,,,,,,,,,,,,,,,,,,,,,,,,,,,,,,,,616.4155915279989,None,2,0.42514171299990267,616.4155915279989,None,,,,,,,,,,,,,,,,None,None,None,,None,None,616.8837318570004,None,1,1,0.4985042180051096,616.8837318570004,None,617.3815367348783,None,None,None,None,,20,001,2023_Jan_23_0958,searchDisc5,2021.2.3,59.75259972524412,
