ImageFile,targ_side,correctAnswer,colour,distNo,targetType,trials_2.thisRepN,trials_2.thisTrialN,trials_2.thisN,trials_2.thisIndex,trials.thisRepN,trials.thisTrialN,trials.thisN,trials.thisIndex,text_6.started,text_6.stopped,buttonBox.keys,buttonBox.rt,buttonBox.started,buttonBox.stopped,text_7.started,text_7.stopped,buttonBox_3.keys,buttonBox_3.rt,buttonBox_3.started,buttonBox_3.stopped,text_8.started,text_8.stopped,buttonBox_4.keys,buttonBox_4.rt,buttonBox_4.started,buttonBox_4.stopped,text_9.started,text_9.stopped,buttonBox_5.keys,buttonBox_5.rt,buttonBox_5.started,buttonBox_5.stopped,text_2.started,text_2.stopped,buttonBox_6.keys,buttonBox_6.rt,buttonBox_6.started,buttonBox_6.stopped,text_5.started,text_5.stopped,buttonBox_7.keys,buttonBox_7.rt,image_2.started,image_2.stopped,image_3.started,image_3.stopped,buttonBox_8.keys,buttonBox_8.rt,buttonBox_8.started,buttonBox_8.stopped,polygon.started,polygon.stopped,buttonBox_9.keys,buttonBox_9.rt,buttonBox_9.started,buttonBox_9.stopped,image.started,image.stopped,buttonBox_10.keys,buttonBox_10.corr,buttonBox_10.rt,buttonBox_10.started,buttonBox_10.stopped,text_4.started,text_4.stopped,text.started,text.stopped,buttonBox_11.keys,buttonBox_11.rt,buttonBox_11.started,buttonBox_11.stopped,targetTypeInstruction.started,targetTypeInstruction.stopped,buttonBox_2.keys,buttonBox_2.rt,buttonBox_2.started,buttonBox_2.stopped,dispStimuli.started,dispStimuli.stopped,buttonBox_12.keys,buttonBox_12.corr,buttonBox_12.rt,buttonBox_12.started,buttonBox_12.stopped,breakMessage.started,breakMessage.stopped,buttonBox_13.keys,buttonBox_13.started,buttonBox_13.stopped,buttonBox_13.rt,participant,session,date,expName,psychopyVersion,frameRate,
,,,,,,,,,,,,,,9.6655661080149,None,2,19.66566185397096,9.6655661080149,None,,,,,,,,,,,,,,,,,,,,,,,,,,,,,,,,,,,,,,,,,,,,,,,,,,,,,,,,,,,,,,,,,,,,,,,,,,,,,22,001,2023_Jan_23_1157,searchDisc5,2021.2.3,59.976773388244894,
,,,,,,,,,,,,,,,,,,,,29.332703629974276,None,2,50.396975217037834,29.332703629974276,None,,,,,,,,,,,,,,,,,,,,,,,,,,,,,,,,,,,,,,,,,,,,,,,,,,,,,,,,,,,,,,,,,,,,,,,22,001,2023_Jan_23_1157,searchDisc5,2021.2.3,59.976773388244894,
,,,,,,,,,,,,,,,,,,,,,,,,,,79.73178159596864,None,2,6.848017590004019,79.73178159596864,None,,,,,,,,,,,,,,,,,,,,,,,,,,,,,,,,,,,,,,,,,,,,,,,,,,,,,,,,,,,,,,,,,22,001,2023_Jan_23_1157,searchDisc5,2021.2.3,59.976773388244894,
,,,,,,,,,,,,,,,,,,,,,,,,,,,,,,,,86.58198412199272,None,2,7.4668817420024425,86.58198412199272,None,,,,,,,,,,,,,,,,,,,,,,,,,,,,,,,,,,,,,,,,,,,,,,,,,,,,,,,,,,,22,001,2023_Jan_23_1157,searchDisc5,2021.2.3,59.976773388244894,
,,,,,,,,,,,,,,,,,,,,,,,,,,,,,,,,,,,,,,94.0489327670075,None,2,8.164813437033445,95.03362420201302,None,,,,,,,,,,,,,,,,,,,,,,,,,,,,,,,,,,,,,,,,,,,,,,,,,,,,,22,001,2023_Jan_23_1157,searchDisc5,2021.2.3,59.976773388244894,
,,,,,,,,,,,,,,,,,,,,,,,,,,,,,,,,,,,,,,,,,,,,103.19918042497011,None,2,12.56482428801246,,,,,,,,,,,,,,,,,,,,,,,,,,,,,,,,,,,,,,,,,,,,,,,,,22,001,2023_Jan_23_1157,searchDisc5,2021.2.3,59.976773388244894,
,,,,,,,,,,,,,,,,,,,,,,,,,,,,,,,,,,,,,,,,,,,,,,,,118.7658677729778,None,118.7658677729778,None,2,3.750024195003789,118.7658677729778,None,,,,,,,,,,,,,,,,,,,,,,,,,,,,,,,,,,,,,,,,,22,001,2023_Jan_23_1157,searchDisc5,2021.2.3,59.976773388244894,
Practice arrays/exp1a_trial_1_colour1_distractors4_r.png,r,3,,,,0,0,0,1,,,,,,,,,,,,,,,,,,,,,,,,,,,,,,,,,,,,,,,,,,,,,,,122.55171595996944,None,2,2.9680194630054757,122.55171595996944,None,125.56664078199537,None,3,1,2.571406705013942,125.56664078199537,None,128.1332632889971,None,,,,,,,,,,,,,,,,,,,,,,,,,,22,001,2023_Jan_23_1157,searchDisc5,2021.2.3,59.976773388244894,
Practice arrays/exp1a_trial_30_colour0_distractors0_r.png,r,3,,,,0,1,1,14,,,,,,,,,,,,,,,,,,,,,,,,,,,,,,,,,,,,,,,,,,,,,,,130.13508838700363,None,2,0.7157679169904441,130.13508838700363,None,130.90161232597893,None,3,1,0.7362241960363463,130.90161232597893,None,131.63343296101084,None,,,,,,,,,,,,,,,,,,,,,,,,,,22,001,2023_Jan_23_1157,searchDisc5,2021.2.3,59.976773388244894,
Practice arrays/exp1a_trial_18_colour1_distractors19_l.png,l,1,,,,0,2,2,8,,,,,,,,,,,,,,,,,,,,,,,,,,,,,,,,,,,,,,,,,,,,,,,133.63561344798654,None,2,2.413754891953431,133.63561344798654,None,136.099653570971,None,3,0,1.1181884899851866,136.099653570971,None,137.2167662269785,None,,,,,,,,,,,,,,,,,,,,,,,,,,22,001,2023_Jan_23_1157,searchDisc5,2021.2.3,59.976773388244894,
Practice arrays/exp1a_trial_10_colour3_distractors1_r.png,r,3,,,,0,3,3,4,,,,,,,,,,,,,,,,,,,,,,,,,,,,,,,,,,,,,,,,,,,,,,,139.21853039501002,None,2,0.980464173015207,139.21853039501002,None,140.2507038890035,None,3,1,1.3058882679906674,140.2507038890035,None,141.55060111999046,None,,,,,,,,,,,,,,,,,,,,,,,,,,22,001,2023_Jan_23_1157,searchDisc5,2021.2.3,59.976773388244894,
Practice arrays/exp1a_trial_23_colour2_distractors19_l.png,l,1,,,,0,4,4,10,,,,,,,,,,,,,,,,,,,,,,,,,,,,,,,,,,,,,,,,,,,,,,,143.5521033529658,None,2,0.5157401909818873,143.5521033529658,None,144.11881683795946,None,1,1,0.9998625289881602,144.11881683795946,None,145.1169234319823,None,,,,,,,,,,,,,,,,,,,,,,,,,,22,001,2023_Jan_23_1157,searchDisc5,2021.2.3,59.976773388244894,
Practice arrays/exp1a_trial_16_colour1_distractors4_l.png,l,1,,,,0,5,5,13,,,,,,,,,,,,,,,,,,,,,,,,,,,,,,,,,,,,,,,,,,,,,,,147.11876536899945,None,2,0.5323667770135216,147.11876536899945,None,147.70067974895937,None,1,1,1.1022867989959195,147.70067974895937,None,148.80050945898984,None,,,,,,,,,,,,,,,,,,,,,,,,,,22,001,2023_Jan_23_1157,searchDisc5,2021.2.3,59.976773388244894,
Practice arrays/exp1a_trial_21_colour2_distractors4_l.png,l,1,,,,0,6,6,9,,,,,,,,,,,,,,,,,,,,,,,,,,,,,,,,,,,,,,,,,,,,,,,150.8025830599945,None,2,0.3970600749598816,150.8025830599945,None,151.2503113319981,None,1,1,0.9221677419845946,151.2503113319981,None,152.16728187398985,None,,,,,,,,,,,,,,,,,,,,,,,,,,22,001,2023_Jan_23_1157,searchDisc5,2021.2.3,59.976773388244894,
Practice arrays/exp1a_trial_25_colour3_distractors1_l.png,l,1,,,,0,7,7,11,,,,,,,,,,,,,,,,,,,,,,,,,,,,,,,,,,,,,,,,,,,,,,,154.1692555989721,None,2,0.4148065310437232,154.1692555989721,None,154.6340706399642,None,1,1,0.8866690750000998,154.6340706399642,None,155.51693701796466,None,,,,,,,,,,,,,,,,,,,,,,,,,,22,001,2023_Jan_23_1157,searchDisc5,2021.2.3,59.976773388244894,
Practice arrays/exp1a_trial_0_colour1_distractors1_r.png,r,3,,,,0,8,8,0,,,,,,,,,,,,,,,,,,,,,,,,,,,,,,,,,,,,,,,,,,,,,,,157.51959205197636,None,2,0.3657093940419145,157.51959205197636,None,157.9362533770036,None,3,1,0.7830596709973179,157.9362533770036,None,158.7173700389685,None,,,,,,,,,,,,,,,,,,,,,,,,,,22,001,2023_Jan_23_1157,searchDisc5,2021.2.3,59.976773388244894,
Practice arrays/exp1a_trial_31_colour0_distractors0_l.png,l,1,,,,0,9,9,15,,,,,,,,,,,,,,,,,,,,,,,,,,,,,,,,,,,,,,,,,,,,,,,160.71912337298272,None,2,0.563884925970342,160.71912337298272,None,161.33443315897603,None,1,1,0.5559105279971845,161.33443315897603,None,161.88420077896444,None,,,,,,,,,,,,,,,,,,,,,,,,,,22,001,2023_Jan_23_1157,searchDisc5,2021.2.3,59.976773388244894,
Practice arrays/exp1a_trial_8_colour2_distractors19_r.png,r,3,,,,0,10,10,3,,,,,,,,,,,,,,,,,,,,,,,,,,,,,,,,,,,,,,,,,,,,,,,163.88596902496647,None,2,0.48045053402893245,163.88596902496647,None,164.41706166497897,None,3,1,0.7516268690233119,164.41706166497897,None,165.16765561100328,None,,,,,,,,,,,,,,,,,,,,,,,,,,22,001,2023_Jan_23_1157,searchDisc5,2021.2.3,59.976773388244894,
Practice arrays/exp1a_trial_12_colour3_distractors9_r.png,r,3,,,,0,11,11,5,,,,,,,,,,,,,,,,,,,,,,,,,,,,,,,,,,,,,,,,,,,,,,,167.16972239600727,None,2,0.5327929980121553,167.16972239600727,None,167.75151214696234,None,3,1,0.634208156960085,167.75151214696234,None,168.38443906098837,None,,,,,,,,,,,,,,,,,,,,,,,,,,22,001,2023_Jan_23_1157,searchDisc5,2021.2.3,59.976773388244894,
Practice arrays/exp1a_trial_27_colour3_distractors9_l.png,l,1,,,,0,12,12,12,,,,,,,,,,,,,,,,,,,,,,,,,,,,,,,,,,,,,,,,,,,,,,,170.3864667720045,None,2,0.4151410250342451,170.3864667720045,None,170.85066214797553,None,1,1,0.7333701780298725,170.85066214797553,None,171.5844750959659,None,,,,,,,,,,,,,,,,,,,,,,,,,,22,001,2023_Jan_23_1157,searchDisc5,2021.2.3,59.976773388244894,
Practice arrays/exp1a_trial_7_colour2_distractors9_r.png,r,3,,,,0,13,13,2,,,,,,,,,,,,,,,,,,,,,,,,,,,,,,,,,,,,,,,,,,,,,,,173.58640324795851,None,2,0.33161301602376625,173.58640324795851,None,173.97002530901227,None,3,1,0.68484531797003,173.97002530901227,None,174.6511919350014,None,,,,,,,,,,,,,,,,,,,,,,,,,,22,001,2023_Jan_23_1157,searchDisc5,2021.2.3,59.976773388244894,
Practice arrays/exp1a_trial_14_colour3_distractors31_r.png,r,3,,,,0,14,14,6,,,,,,,,,,,,,,,,,,,,,,,,,,,,,,,,,,,,,,,,,,,,,,,176.65306454099482,None,2,0.44708802399691194,176.65306454099482,None,177.15354159497656,None,3,1,0.801408926025033,177.15354159497656,None,177.95123538700864,None,,,,,,,,,,,,,,,,,,,,,,,,,,22,001,2023_Jan_23_1157,searchDisc5,2021.2.3,59.976773388244894,
Practice arrays/exp1a_trial_17_colour1_distractors9_l.png,l,1,,,,0,15,15,7,,,,,,,,,,,,,,,,,,,,,,,,,,,,,,,,,,,,,,,,,,,,,,,179.9530008949805,None,2,0.3659295290126465,179.9530008949805,None,180.37022830499336,None,1,1,0.968102334998548,180.37022830499336,None,181.33462856599363,None,,,,,,,,,,,,,,,,,,,,,,,,,,22,001,2023_Jan_23_1157,searchDisc5,2021.2.3,59.976773388244894,
,,,,,,,,,,,,,,,,,,,,,,,,,,,,,,,,,,,,,,,,,,,,,,,,,,,,,,,,,,,,,,,,,,,,,,,183.42028127296362,None,2,9.265008783957455,184.40342733100988,None,,,,,,,,,,,,,,,,,,,,22,001,2023_Jan_23_1157,searchDisc5,2021.2.3,59.976773388244894,
images/exp1a_trial_111_colour1_distractors1_l.png,l,1,1,1,0,,,,,0,0,0,0,,,,,,,,,,,,,,,,,,,,,,,,,,,,,,,,,,,,,,,,,,,203.7371609850088,None,2,0.5289807170047425,203.7371609850088,None,,,,,,,,,,,,,,,,194.27059424296021,None,2,7.481676825962495,196.2536324749817,None,204.31834569200873,None,1,1,0.8519642809988,204.31834569200873,None,205.18521278477272,None,None,None,None,,22,001,2023_Jan_23_1157,searchDisc5,2021.2.3,59.976773388244894,
images/exp1a_trial_216_colour2_distractors31_l.png,l,1,2,31,0,,,,,0,1,1,1,,,,,,,,,,,,,,,,,,,,,,,,,,,,,,,,,,,,,,,,,,,205.20337160798954,None,2,0.40565379697363824,205.20337160798954,None,,,,,,,,,,,,,,,,None,None,None,,None,None,205.6542440240155,None,1,1,0.6812136890366673,205.6542440240155,None,206.33530597891075,None,None,None,None,,22,001,2023_Jan_23_1157,searchDisc5,2021.2.3,59.976773388244894,
images/exp2b_trial_312_colour2_distractors31_l.png,l,1,2,31,0,,,,,0,2,2,2,,,,,,,,,,,,,,,,,,,,,,,,,,,,,,,,,,,,,,,,,,,206.3539263519924,None,2,0.3696108359727077,206.3539263519924,None,,,,,,,,,,,,,,,,None,None,None,,None,None,206.77095809497405,None,1,1,0.700249232002534,206.77095809497405,None,207.46879304889006,None,None,None,None,,22,001,2023_Jan_23_1157,searchDisc5,2021.2.3,59.976773388244894,
images/exp2a_trial_28_colour3_distractors19_l.png,l,1,3,19,0,,,,,0,3,3,3,,,,,,,,,,,,,,,,,,,,,,,,,,,,,,,,,,,,,,,,,,,207.48528502398403,None,2,0.33619277604157105,207.48528502398403,None,,,,,,,,,,,,,,,,None,None,None,,None,None,207.8691318409983,None,1,1,0.5873122450429946,207.8691318409983,None,208.45212739690322,None,None,None,None,,22,001,2023_Jan_23_1157,searchDisc5,2021.2.3,59.976773388244894,
images/exp2a_trial_152_colour2_distractors31_l.png,l,1,2,31,0,,,,,0,4,4,4,,,,,,,,,,,,,,,,,,,,,,,,,,,,,,,,,,,,,,,,,,,208.46839236898813,None,2,0.32039687503129244,208.46839236898813,None,,,,,,,,,,,,,,,,None,None,None,,None,None,208.83544872701168,None,1,1,0.8454233200172894,208.83544872701168,None,209.6851942459063,None,None,None,None,,22,001,2023_Jan_23_1157,searchDisc5,2021.2.3,59.976773388244894,
images/exp2b_trial_190_colour0_distractors0_r.png,r,3,0,0,0,,,,,0,5,5,5,,,,,,,,,,,,,,,,,,,,,,,,,,,,,,,,,,,,,,,,,,,209.70223667798564,None,2,0.30675310600781813,209.70223667798564,None,,,,,,,,,,,,,,,,None,None,None,,None,None,210.05222096998477,None,3,1,0.5059445319930092,210.05222096998477,None,210.55212233886704,None,None,None,None,,22,001,2023_Jan_23_1157,searchDisc5,2021.2.3,59.976773388244894,
images/exp1a_trial_161_colour1_distractors4_r.png,r,3,1,4,0,,,,,0,6,6,6,,,,,,,,,,,,,,,,,,,,,,,,,,,,,,,,,,,,,,,,,,,210.56881179998163,None,2,0.4018745270441286,210.56881179998163,None,,,,,,,,,,,,,,,,None,None,None,,None,None,211.0204909099848,None,3,1,1.9719368889927864,211.0204909099848,None,212.98553811486926,None,None,None,None,,22,001,2023_Jan_23_1157,searchDisc5,2021.2.3,59.976773388244894,
images/exp1a_trial_15_colour1_distractors1_l.png,l,1,1,1,0,,,,,0,7,7,7,,,,,,,,,,,,,,,,,,,,,,,,,,,,,,,,,,,,,,,,,,,213.0022715079831,None,2,0.3880650220089592,213.0022715079831,None,,,,,,,,,,,,,,,,None,None,None,,None,None,213.4378116739681,None,1,1,0.9732801089994609,213.4378116739681,None,214.40220412689376,None,None,None,None,,22,001,2023_Jan_23_1157,searchDisc5,2021.2.3,59.976773388244894,
images/exp2a_trial_99_colour1_distractors19_r.png,r,3,1,19,0,,,,,0,8,8,8,,,,,,,,,,,,,,,,,,,,,,,,,,,,,,,,,,,,,,,,,,,214.41861992201302,None,2,0.2876162269967608,214.41861992201302,None,,,,,,,,,,,,,,,,None,None,None,,None,None,214.75205447798362,None,3,1,1.035166077024769,214.75205447798362,None,215.7848471118661,None,None,None,None,,22,001,2023_Jan_23_1157,searchDisc5,2021.2.3,59.976773388244894,
images/exp2a_trial_10_colour3_distractors1_r.png,r,3,3,1,0,,,,,0,9,9,9,,,,,,,,,,,,,,,,,,,,,,,,,,,,,,,,,,,,,,,,,,,215.80237605597358,None,2,0.3041473740013316,215.80237605597358,None,,,,,,,,,,,,,,,,None,None,None,,None,None,216.15248095296556,None,3,1,0.7392116169794463,216.15248095296556,None,216.88586329990648,None,None,None,None,,22,001,2023_Jan_23_1157,searchDisc5,2021.2.3,59.976773388244894,
images/exp2c_trial_199_colour2_distractors9_r.png,r,3,2,9,0,,,,,0,10,10,10,,,,,,,,,,,,,,,,,,,,,,,,,,,,,,,,,,,,,,,,,,,216.90419310698053,None,2,0.33749714703299105,216.90419310698053,None,,,,,,,,,,,,,,,,None,None,None,,None,None,217.28738220297964,None,3,1,0.7551346059772186,217.28738220297964,None,218.03575361486872,None,None,None,None,,22,001,2023_Jan_23_1157,searchDisc5,2021.2.3,59.976773388244894,
images/exp2c_trial_127_colour0_distractors0_l.png,l,1,0,0,0,,,,,0,11,11,11,,,,,,,,,,,,,,,,,,,,,,,,,,,,,,,,,,,,,,,,,,,218.05221196298953,None,2,0.3042085380293429,218.05221196298953,None,,,,,,,,,,,,,,,,None,None,None,,None,None,218.40264019399183,None,1,1,0.6534627599758096,218.40264019399183,None,219.05238031487096,None,None,None,None,,22,001,2023_Jan_23_1157,searchDisc5,2021.2.3,59.976773388244894,
images/exp2c_trial_195_colour1_distractors19_r.png,r,3,1,19,0,,,,,0,12,12,12,,,,,,,,,,,,,,,,,,,,,,,,,,,,,,,,,,,,,,,,,,,219.07066941598896,None,2,0.337796651001554,219.07066941598896,None,,,,,,,,,,,,,,,,None,None,None,,None,None,219.4547940819757,None,3,1,0.5678167149890214,219.4547940819757,None,220.01901239891885,None,None,None,None,,22,001,2023_Jan_23_1157,searchDisc5,2021.2.3,59.976773388244894,
images/exp2c_trial_52_colour2_distractors1_l.png,l,1,2,1,0,,,,,0,13,13,13,,,,,,,,,,,,,,,,,,,,,,,,,,,,,,,,,,,,,,,,,,,220.0356436999864,None,2,0.27128282899502665,220.0356436999864,None,,,,,,,,,,,,,,,,None,None,None,,None,None,220.352654309012,None,1,1,0.7064769830321893,220.352654309012,None,221.05235387689316,None,None,None,None,,22,001,2023_Jan_23_1157,searchDisc5,2021.2.3,59.976773388244894,
images/exp2c_trial_108_colour3_distractors9_r.png,r,3,3,9,0,,,,,0,14,14,14,,,,,,,,,,,,,,,,,,,,,,,,,,,,,,,,,,,,,,,,,,,221.06819618097506,None,2,0.28805078903678805,221.06819618097506,None,,,,,,,,,,,,,,,,None,None,None,,None,None,221.40286420000484,None,3,1,0.7881188479950652,221.40286420000484,None,222.1857994179183,None,None,None,None,,22,001,2023_Jan_23_1157,searchDisc5,2021.2.3,59.976773388244894,
images/exp2c_trial_225_colour1_distractors4_r.png,r,3,1,4,0,,,,,0,15,15,15,,,,,,,,,,,,,,,,,,,,,,,,,,,,,,,,,,,,,,,,,,,222.2026654459769,None,2,0.28786278900224715,222.2026654459769,None,,,,,,,,,,,,,,,,None,None,None,,None,None,222.53582916001324,None,3,1,0.6387488769832999,222.53582916001324,None,223.1691065348743,None,None,None,None,,22,001,2023_Jan_23_1157,searchDisc5,2021.2.3,59.976773388244894,
images/exp2a_trial_158_colour0_distractors0_r.png,r,3,0,0,0,,,,,0,16,16,16,,,,,,,,,,,,,,,,,,,,,,,,,,,,,,,,,,,,,,,,,,,223.18583172996296,None,2,0.3214983260259032,223.18583172996296,None,,,,,,,,,,,,,,,,None,None,None,,None,None,223.55274203396402,None,3,1,0.5724824779899791,223.55274203396402,None,224.1191102598852,None,None,None,None,,22,001,2023_Jan_23_1157,searchDisc5,2021.2.3,59.976773388244894,
images/exp1a_trial_159_colour0_distractors0_l.png,l,1,0,0,0,,,,,0,17,17,17,,,,,,,,,,,,,,,,,,,,,,,,,,,,,,,,,,,,,,,,,,,224.13527790096123,None,2,0.3376150320400484,224.13527790096123,None,,,,,,,,,,,,,,,,None,None,None,,None,None,224.51893789198948,None,1,1,0.9069379629800096,224.51893789198948,None,225.419154179882,None,None,None,None,,22,001,2023_Jan_23_1157,searchDisc5,2021.2.3,59.976773388244894,
images/exp1a_trial_218_colour3_distractors4_l.png,l,1,3,4,0,,,,,0,18,18,18,,,,,,,,,,,,,,,,,,,,,,,,,,,,,,,,,,,,,,,,,,,225.43535386701114,None,2,0.2528420239686966,225.43535386701114,None,,,,,,,,,,,,,,,,None,None,None,,None,None,225.7376036630012,None,1,1,0.8707913949619979,225.7376036630012,None,226.60250779889174,None,None,None,None,,22,001,2023_Jan_23_1157,searchDisc5,2021.2.3,59.976773388244894,
images/exp2b_trial_222_colour0_distractors0_r.png,r,3,0,0,0,,,,,0,19,19,19,,,,,,,,,,,,,,,,,,,,,,,,,,,,,,,,,,,,,,,,,,,226.61922661500284,None,2,0.24007975799031556,226.61922661500284,None,,,,,,,,,,,,,,,,None,None,None,,None,None,226.90473311796086,None,3,1,1.0014276530127972,226.90473311796086,None,227.90277825588709,None,None,None,None,,22,001,2023_Jan_23_1157,searchDisc5,2021.2.3,59.976773388244894,
images/exp2a_trial_178_colour1_distractors19_l.png,l,1,1,19,0,,,,,0,20,20,20,,,,,,,,,,,,,,,,,,,,,,,,,,,,,,,,,,,,,,,,,,,227.9189513999736,None,2,0.30447252601152286,227.9189513999736,None,,,,,,,,,,,,,,,,None,None,None,,None,None,228.2694763430045,None,1,1,0.6546493099885993,228.2694763430045,None,228.9192794708826,None,None,None,None,,22,001,2023_Jan_23_1157,searchDisc5,2021.2.3,59.976773388244894,
images/exp2b_trial_200_colour2_distractors19_r.png,r,3,2,19,0,,,,,0,21,21,21,,,,,,,,,,,,,,,,,,,,,,,,,,,,,,,,,,,,,,,,,,,228.9361766789807,None,2,0.2892928080400452,228.9361766789807,None,,,,,,,,,,,,,,,,None,None,None,,None,None,229.271539459005,None,3,1,0.7022458279971033,229.271539459005,None,229.96932835587648,None,None,None,None,,22,001,2023_Jan_23_1157,searchDisc5,2021.2.3,59.976773388244894,
images/exp2c_trial_153_colour3_distractors1_l.png,l,1,3,1,0,,,,,0,22,22,22,,,,,,,,,,,,,,,,,,,,,,,,,,,,,,,,,,,,,,,,,,,229.98562417697394,None,2,0.3078364719985984,229.98562417697394,None,,,,,,,,,,,,,,,,None,None,None,,None,None,230.33788125996944,None,1,1,0.6027087780530564,230.33788125996944,None,230.93603375887614,None,None,None,None,,22,001,2023_Jan_23_1157,searchDisc5,2021.2.3,59.976773388244894,
images/exp2a_trial_93_colour3_distractors31_l.png,l,1,3,31,0,,,,,0,23,23,23,,,,,,,,,,,,,,,,,,,,,,,,,,,,,,,,,,,,,,,,,,,230.95405370398657,None,2,0.27150296000763774,230.95405370398657,None,,,,,,,,,,,,,,,,None,None,None,,None,None,231.2690124050132,None,1,1,0.7369847800000571,231.2690124050132,None,232.00293446590075,None,None,None,None,,22,001,2023_Jan_23_1157,searchDisc5,2021.2.3,59.976773388244894,
images/exp2c_trial_194_colour1_distractors9_r.png,r,3,1,9,0,,,,,0,24,24,24,,,,,,,,,,,,,,,,,,,,,,,,,,,,,,,,,,,,,,,,,,,232.019052018004,None,2,0.40655197395244613,232.019052018004,None,,,,,,,,,,,,,,,,None,None,None,,None,None,232.47174754895968,None,3,1,0.6027508210390806,232.47174754895968,None,233.0693408628751,None,None,None,None,,22,001,2023_Jan_23_1157,searchDisc5,2021.2.3,59.976773388244894,
images/exp1a_trial_317_colour3_distractors31_l.png,l,1,3,31,0,,,,,0,25,25,25,,,,,,,,,,,,,,,,,,,,,,,,,,,,,,,,,,,,,,,,,,,233.08812573796604,None,2,0.3048317099455744,233.08812573796604,None,,,,,,,,,,,,,,,,None,None,None,,None,None,233.4363598100026,None,1,1,0.6670334020163864,233.4363598100026,None,234.1027901678637,None,None,None,None,,22,001,2023_Jan_23_1157,searchDisc5,2021.2.3,59.976773388244894,
images/exp2a_trial_283_colour3_distractors9_l.png,l,1,3,9,0,,,,,0,26,26,26,,,,,,,,,,,,,,,,,,,,,,,,,,,,,,,,,,,,,,,,,,,234.12100127799204,None,2,0.43801338301273063,234.12100127799204,None,,,,,,,,,,,,,,,,None,None,None,,None,None,234.60237293300452,None,1,1,0.7382279429584742,234.60237293300452,None,235.33627569886738,None,None,None,None,,22,001,2023_Jan_23_1157,searchDisc5,2021.2.3,59.976773388244894,
images/exp2b_trial_167_colour2_distractors9_r.png,r,3,2,9,0,,,,,0,27,27,27,,,,,,,,,,,,,,,,,,,,,,,,,,,,,,,,,,,,,,,,,,,235.3528552299831,None,2,0.30439893796574324,235.3528552299831,None,,,,,,,,,,,,,,,,None,None,None,,None,None,235.70274246297777,None,3,1,0.6044683890067972,235.70274246297777,None,236.30300976087455,None,None,None,None,,22,001,2023_Jan_23_1157,searchDisc5,2021.2.3,59.976773388244894,
images/exp2a_trial_177_colour1_distractors9_l.png,l,1,1,9,0,,,,,0,28,28,28,,,,,,,,,,,,,,,,,,,,,,,,,,,,,,,,,,,,,,,,,,,236.31925603497075,None,2,0.3045261410297826,236.31925603497075,None,,,,,,,,,,,,,,,,None,None,None,,None,None,236.6699004700058,None,1,1,0.8382778810337186,236.6699004700058,None,237.50304763888124,None,None,None,None,,22,001,2023_Jan_23_1157,searchDisc5,2021.2.3,59.976773388244894,
images/exp2b_trial_9_colour2_distractors31_r.png,r,3,2,31,0,,,,,0,29,29,29,,,,,,,,,,,,,,,,,,,,,,,,,,,,,,,,,,,,,,,,,,,237.52152627101168,None,2,0.25438938301522285,237.52152627101168,None,,,,,,,,,,,,,,,,None,None,None,,None,None,237.81976352300262,None,3,1,0.7035496159805916,237.81976352300262,None,238.51945275791803,None,None,None,None,,22,001,2023_Jan_23_1157,searchDisc5,2021.2.3,59.976773388244894,
images/exp1a_trial_58_colour3_distractors4_l.png,l,1,3,4,0,,,,,0,30,30,30,,,,,,,,,,,,,,,,,,,,,,,,,,,,,,,,,,,,,,,,,,,238.53600572096184,None,2,0.2710670329979621,238.53600572096184,None,,,,,,,,,,,,,,,,None,None,None,,None,None,238.85267305601155,None,1,1,0.6905495710088871,238.85267305601155,None,239.53620361887732,None,None,None,None,,22,001,2023_Jan_23_1157,searchDisc5,2021.2.3,59.976773388244894,
images/exp1a_trial_11_colour3_distractors4_r.png,r,3,3,4,0,,,,,0,31,31,31,,,,,,,,,,,,,,,,,,,,,,,,,,,,,,,,,,,,,,,,,,,239.55456101696473,None,2,0.3189240890205838,239.55456101696473,None,,,,,,,,,,,,,,,,None,None,None,,None,None,239.9198019829928,None,3,1,0.6055633719661273,239.9198019829928,None,240.51872826491598,None,None,None,None,,22,001,2023_Jan_23_1157,searchDisc5,2021.2.3,59.976773388244894,
images/exp2b_trial_277_colour2_distractors4_l.png,l,1,2,4,0,,,,,0,32,32,32,,,,,,,,,,,,,,,,,,,,,,,,,,,,,,,,,,,,,,,,,,,240.5364405589644,None,2,0.30725536099635065,240.5364405589644,None,,,,,,,,,,,,,,,,None,None,None,,None,None,240.88673319597729,None,1,1,0.6367415530257858,240.88673319597729,None,241.51964350686757,None,None,None,None,,22,001,2023_Jan_23_1157,searchDisc5,2021.2.3,59.976773388244894,
images/exp1a_trial_10_colour3_distractors1_r.png,r,3,3,1,0,,,,,0,33,33,33,,,,,,,,,,,,,,,,,,,,,,,,,,,,,,,,,,,,,,,,,,,241.53588314400986,None,2,0.28785740496823564,241.53588314400986,None,,,,,,,,,,,,,,,,None,None,None,,None,None,241.86985912598902,None,3,1,0.6060587209649384,241.86985912598902,None,242.46992360790608,None,None,None,None,,22,001,2023_Jan_23_1157,searchDisc5,2021.2.3,59.976773388244894,
images/exp2b_trial_65_colour1_distractors4_r.png,r,3,1,4,0,,,,,0,34,34,34,,,,,,,,,,,,,,,,,,,,,,,,,,,,,,,,,,,,,,,,,,,242.48633178899763,None,2,0.27323734504170716,242.48633178899763,None,,,,,,,,,,,,,,,,None,None,None,,None,None,242.80328906001523,None,3,1,1.7366416350123473,242.80328906001523,None,244.5363371088926,None,None,None,None,,22,001,2023_Jan_23_1157,searchDisc5,2021.2.3,59.976773388244894,
images/exp2b_trial_119_colour2_distractors19_l.png,l,1,2,19,0,,,,,0,35,35,35,,,,,,,,,,,,,,,,,,,,,,,,,,,,,,,,,,,,,,,,,,,244.55273488798412,None,2,0.2401564159663394,244.55273488798412,None,,,,,,,,,,,,,,,,None,None,None,,None,None,244.8384942279663,None,1,1,0.7011813370045274,244.8384942279663,None,245.53622416891739,None,None,None,None,,22,001,2023_Jan_23_1157,searchDisc5,2021.2.3,59.976773388244894,
images/exp1a_trial_234_colour3_distractors1_r.png,r,3,3,1,0,,,,,0,36,36,36,,,,,,,,,,,,,,,,,,,,,,,,,,,,,,,,,,,,,,,,,,,245.55300391896162,None,2,0.28818592900643125,245.55300391896162,None,,,,,,,,,,,,,,,,None,None,None,,None,None,245.88863423798466,None,3,1,0.5895198340294883,245.88863423798466,None,246.4697510869184,None,None,None,None,,22,001,2023_Jan_23_1157,searchDisc5,2021.2.3,59.976773388244894,
images/exp1a_trial_259_colour1_distractors19_r.png,r,3,1,19,0,,,,,0,37,37,37,,,,,,,,,,,,,,,,,,,,,,,,,,,,,,,,,,,,,,,,,,,246.4862898309948,None,2,0.3044156599789858,246.4862898309948,None,,,,,,,,,,,,,,,,None,None,None,,None,None,246.83664576499723,None,3,1,1.16875881399028,246.83664576499723,None,248.0031389019161,None,None,None,None,,22,001,2023_Jan_23_1157,searchDisc5,2021.2.3,59.976773388244894,
images/exp1a_trial_232_colour2_distractors19_r.png,r,3,2,19,0,,,,,0,38,38,38,,,,,,,,,,,,,,,,,,,,,,,,,,,,,,,,,,,,,,,,,,,248.01990039699012,None,2,0.27144411799963564,248.01990039699012,None,,,,,,,,,,,,,,,,None,None,None,,None,None,248.3368859749753,None,3,1,0.6520416749990545,248.3368859749753,None,248.9867691949068,None,None,None,None,,22,001,2023_Jan_23_1157,searchDisc5,2021.2.3,59.976773388244894,
images/exp2b_trial_114_colour1_distractors19_l.png,l,1,1,19,0,,,,,0,39,39,39,,,,,,,,,,,,,,,,,,,,,,,,,,,,,,,,,,,,,,,,,,,249.0033699279884,None,2,0.2874186370172538,249.0033699279884,None,,,,,,,,,,,,,,,,None,None,None,,None,None,249.33620745496592,None,1,1,0.6367495740414597,249.33620745496592,None,249.96997429187758,None,None,None,None,,22,001,2023_Jan_23_1157,searchDisc5,2021.2.3,59.976773388244894,
images/exp2a_trial_216_colour2_distractors31_l.png,l,1,2,31,0,,,,,0,40,40,40,,,,,,,,,,,,,,,,,,,,,,,,,,,,,,,,,,,,,,,,,,,249.98609113995917,None,2,0.3213540849974379,249.98609113995917,None,,,,,,,,,,,,,,,,None,None,None,,None,None,250.35339354997268,None,1,1,0.86434653197648,250.35339354997268,None,251.21993233690154,None,None,None,None,,22,001,2023_Jan_23_1157,searchDisc5,2021.2.3,59.976773388244894,
images/exp2c_trial_110_colour3_distractors31_r.png,r,3,3,31,0,,,,,0,41,41,41,,,,,,,,,,,,,,,,,,,,,,,,,,,,,,,,,,,,,,,,,,,251.23612968198722,None,2,0.2212668750435114,251.23612968198722,None,,,,,,,,,,,,,,,,None,None,None,,None,None,251.50541202595923,None,3,1,0.7675587360281497,251.50541202595923,None,252.27001058288732,None,None,None,None,,22,001,2023_Jan_23_1157,searchDisc5,2021.2.3,59.976773388244894,
images/exp2a_trial_4_colour1_distractors31_r.png,r,3,1,31,0,,,,,0,42,42,42,,,,,,,,,,,,,,,,,,,,,,,,,,,,,,,,,,,,,,,,,,,252.28811821097042,None,2,0.25416712899459526,252.28811821097042,None,,,,,,,,,,,,,,,,None,None,None,,None,None,252.58702052599983,None,3,1,0.637727063964121,252.58702052599983,None,253.22019904091138,None,None,None,None,,22,001,2023_Jan_23_1157,searchDisc5,2021.2.3,59.976773388244894,
images/exp1a_trial_3_colour1_distractors19_r.png,r,3,1,19,0,,,,,0,43,43,43,,,,,,,,,,,,,,,,,,,,,,,,,,,,,,,,,,,,,,,,,,,253.2367165889591,None,2,0.2522249480243772,253.2367165889591,None,,,,,,,,,,,,,,,,None,None,None,,None,None,253.53670855797827,None,3,1,0.7019255729974248,253.53670855797827,None,254.23660417490754,None,None,None,None,,22,001,2023_Jan_23_1157,searchDisc5,2021.2.3,59.976773388244894,
images/exp2b_trial_243_colour1_distractors31_l.png,l,1,1,31,0,,,,,0,44,44,44,,,,,,,,,,,,,,,,,,,,,,,,,,,,,,,,,,,,,,,,,,,254.25278090400388,None,2,0.25686607597162947,254.25278090400388,None,,,,,,,,,,,,,,,,None,None,None,,None,None,254.55498717201408,None,1,1,1.184133347007446,254.55498717201408,None,255.73670755188795,None,None,None,None,,22,001,2023_Jan_23_1157,searchDisc5,2021.2.3,59.976773388244894,
images/exp1a_trial_133_colour2_distractors1_r.png,r,3,2,1,0,,,,,0,45,45,45,,,,,,,,,,,,,,,,,,,,,,,,,,,,,,,,,,,,,,,,,,,255.7550562049728,None,2,0.27131029998417944,255.7550562049728,None,,,,,,,,,,,,,,,,None,None,None,,None,None,256.0704797859653,None,3,1,0.622701802989468,256.0704797859653,None,256.6867207989155,None,None,None,None,,22,001,2023_Jan_23_1157,searchDisc5,2021.2.3,59.976773388244894,
images/exp2a_trial_76_colour3_distractors9_r.png,r,3,3,9,0,,,,,0,46,46,46,,,,,,,,,,,,,,,,,,,,,,,,,,,,,,,,,,,,,,,,,,,256.7033563409932,None,2,0.27151202998356894,256.7033563409932,None,,,,,,,,,,,,,,,,None,None,None,,None,None,257.01967333396897,None,3,1,0.8709476019721478,257.01967333396897,None,257.8865305608662,None,None,None,None,,22,001,2023_Jan_23_1157,searchDisc5,2021.2.3,59.976773388244894,
images/exp2a_trial_98_colour1_distractors9_r.png,r,3,1,9,0,,,,,0,47,47,47,,,,,,,,,,,,,,,,,,,,,,,,,,,,,,,,,,,,,,,,,,,257.90302098199027,None,2,0.25671420100843534,257.90302098199027,None,,,,,,,,,,,,,,,,None,None,None,,None,None,258.20370742096566,None,3,1,0.719840664009098,258.20370742096566,None,258.9202179938613,None,None,None,None,,22,001,2023_Jan_23_1157,searchDisc5,2021.2.3,59.976773388244894,
images/exp2a_trial_18_colour1_distractors19_l.png,l,1,1,19,0,,,,,0,48,48,48,,,,,,,,,,,,,,,,,,,,,,,,,,,,,,,,,,,,,,,,,,,258.9388558799983,None,2,0.2539606220088899,258.9388558799983,None,,,,,,,,,,,,,,,,None,None,None,,None,None,259.23702312097885,None,1,1,0.6211888709804043,259.23702312097885,None,259.85345519586116,None,None,None,None,,22,001,2023_Jan_23_1157,searchDisc5,2021.2.3,59.976773388244894,
images/exp2a_trial_199_colour2_distractors9_r.png,r,3,2,9,0,,,,,0,49,49,49,,,,,,,,,,,,,,,,,,,,,,,,,,,,,,,,,,,,,,,,,,,259.8700455419603,None,2,0.27093791402876377,259.8700455419603,None,,,,,,,,,,,,,,,,None,None,None,,None,None,260.18702903797384,None,3,1,0.918085147975944,260.18702903797384,None,261.103540776897,None,None,None,None,,22,001,2023_Jan_23_1157,searchDisc5,2021.2.3,59.976773388244894,
images/exp1a_trial_296_colour2_distractors19_r.png,r,3,2,19,0,,,,,0,50,50,50,,,,,,,,,,,,,,,,,,,,,,,,,,,,,,,,,,,,,,,,,,,261.12014815898146,None,2,0.3045240420033224,261.12014815898146,None,,,,,,,,,,,,,,,,None,None,None,,None,None,261.47054490901064,None,3,1,0.6678286109818146,261.47054490901064,None,262.1369787238829,None,None,None,None,,22,001,2023_Jan_23_1157,searchDisc5,2021.2.3,59.976773388244894,
images/exp2c_trial_162_colour1_distractors9_r.png,r,3,1,9,0,,,,,0,51,51,51,,,,,,,,,,,,,,,,,,,,,,,,,,,,,,,,,,,,,,,,,,,262.15370252600405,None,2,0.30452077701920643,262.15370252600405,None,,,,,,,,,,,,,,,,None,None,None,,None,None,262.50603684497764,None,3,1,0.5383161879726686,262.50603684497764,None,263.0370936519059,None,None,None,None,,22,001,2023_Jan_23_1157,searchDisc5,2021.2.3,59.976773388244894,
images/exp2a_trial_59_colour3_distractors9_l.png,l,1,3,9,0,,,,,0,52,52,52,,,,,,,,,,,,,,,,,,,,,,,,,,,,,,,,,,,,,,,,,,,263.0534248370095,None,2,0.2376996439998038,263.0534248370095,None,,,,,,,,,,,,,,,,None,None,None,,None,None,263.3391753460164,None,1,1,0.8384190330398269,263.3391753460164,None,264.17046011386554,None,None,None,None,,22,001,2023_Jan_23_1157,searchDisc5,2021.2.3,59.976773388244894,
images/exp1a_trial_238_colour3_distractors31_r.png,r,3,3,31,0,,,,,0,53,53,53,,,,,,,,,,,,,,,,,,,,,,,,,,,,,,,,,,,,,,,,,,,264.1869051819667,None,2,0.1903171389712952,264.1869051819667,None,,,,,,,,,,,,,,,,None,None,None,,None,None,264.42323551501613,None,3,1,0.7468973509967327,264.42323551501613,None,265.1702910099004,None,None,None,None,,22,001,2023_Jan_23_1157,searchDisc5,2021.2.3,59.976773388244894,
images/exp1a_trial_144_colour1_distractors4_l.png,l,1,1,4,0,,,,,0,54,54,54,,,,,,,,,,,,,,,,,,,,,,,,,,,,,,,,,,,,,,,,,,,265.18627056496916,None,2,0.19046240905299783,265.18627056496916,None,,,,,,,,,,,,,,,,None,None,None,,None,None,265.42252412298694,None,1,1,0.7857771459966898,265.42252412298694,None,266.2035559988755,None,None,None,None,,22,001,2023_Jan_23_1157,searchDisc5,2021.2.3,59.976773388244894,
images/exp2c_trial_14_colour3_distractors31_r.png,r,3,3,31,0,,,,,0,55,55,55,,,,,,,,,,,,,,,,,,,,,,,,,,,,,,,,,,,,,,,,,,,266.2200003429898,None,2,0.2215110519900918,266.2200003429898,None,,,,,,,,,,,,,,,,None,None,None,,None,None,266.4888492639875,None,3,1,1.218971626018174,266.4888492639875,None,267.7037204028631,None,None,None,None,,22,001,2023_Jan_23_1157,searchDisc5,2021.2.3,59.976773388244894,
images/exp1a_trial_312_colour2_distractors31_l.png,l,1,2,31,0,,,,,0,56,56,56,,,,,,,,,,,,,,,,,,,,,,,,,,,,,,,,,,,,,,,,,,,267.7198504100088,None,2,0.2395221649785526,267.7198504100088,None,,,,,,,,,,,,,,,,None,None,None,,None,None,268.00608660897706,None,1,1,0.6978761310456321,268.00608660897706,None,268.7030424578872,None,None,None,None,,22,001,2023_Jan_23_1157,searchDisc5,2021.2.3,59.976773388244894,
images/exp2a_trial_75_colour3_distractors4_r.png,r,3,3,4,0,,,,,0,57,57,57,,,,,,,,,,,,,,,,,,,,,,,,,,,,,,,,,,,,,,,,,,,268.7200519070029,None,2,0.2406967119895853,268.7200519070029,None,,,,,,,,,,,,,,,,None,None,None,,None,None,269.0060573130031,None,3,1,0.6216336619690992,269.0060573130031,None,269.6204622528923,None,None,None,None,,22,001,2023_Jan_23_1157,searchDisc5,2021.2.3,59.976773388244894,
images/exp2a_trial_19_colour1_distractors31_l.png,l,1,1,31,0,,,,,0,58,58,58,,,,,,,,,,,,,,,,,,,,,,,,,,,,,,,,,,,,,,,,,,,269.63741382799344,None,2,0.25499495200347155,269.63741382799344,None,,,,,,,,,,,,,,,,None,None,None,,None,None,269.9394730429631,None,1,1,0.8004913150216453,269.9394730429631,None,270.73728682387735,None,None,None,None,,22,001,2023_Jan_23_1157,searchDisc5,2021.2.3,59.976773388244894,
images/exp2a_trial_274_colour1_distractors19_l.png,l,1,1,19,0,,,,,0,59,59,59,,,,,,,,,,,,,,,,,,,,,,,,,,,,,,,,,,,,,,,,,,,270.7534896659781,None,2,0.23990385298384354,270.7534896659781,None,,,,,,,,,,,,,,,,None,None,None,,None,None,271.03945772198495,None,1,1,1.0353076600003988,271.03945772198495,None,272.07055043291183,None,None,None,None,,22,001,2023_Jan_23_1157,searchDisc5,2021.2.3,59.976773388244894,
images/exp2b_trial_205_colour3_distractors19_r.png,r,3,3,19,0,,,,,0,60,60,60,,,,,,,,,,,,,,,,,,,,,,,,,,,,,,,,,,,,,,,,,,,272.0866542949807,None,2,0.2870887729804963,272.0866542949807,None,,,,,,,,,,,,,,,,None,None,None,,None,None,272.42221611196874,None,3,1,0.6706231589778326,272.42221611196874,None,273.0872699938656,None,None,None,None,,22,001,2023_Jan_23_1157,searchDisc5,2021.2.3,59.976773388244894,
images/exp2b_trial_282_colour3_distractors4_l.png,l,1,3,4,0,,,,,0,61,61,61,,,,,,,,,,,,,,,,,,,,,,,,,,,,,,,,,,,,,,,,,,,273.1039711739868,None,2,0.3045641219941899,273.1039711739868,None,,,,,,,,,,,,,,,,None,None,None,,None,None,273.4544883350027,None,1,1,0.6223664929857478,273.4544883350027,None,274.07052959689753,None,None,None,None,,22,001,2023_Jan_23_1157,searchDisc5,2021.2.3,59.976773388244894,
images/exp2c_trial_128_colour1_distractors1_r.png,r,3,1,1,0,,,,,0,62,62,62,,,,,,,,,,,,,,,,,,,,,,,,,,,,,,,,,,,,,,,,,,,274.0872100449633,None,2,0.22328497597482055,274.0872100449633,None,,,,,,,,,,,,,,,,None,None,None,,None,None,274.3559700020123,None,3,1,0.6209681119653396,274.3559700020123,None,274.9708375118964,None,None,None,None,,22,001,2023_Jan_23_1157,searchDisc5,2021.2.3,59.976773388244894,
images/exp2b_trial_306_colour1_distractors19_l.png,l,1,1,19,0,,,,,0,63,63,63,,,,,,,,,,,,,,,,,,,,,,,,,,,,,,,,,,,,,,,,,,,274.9872948349803,None,2,0.25580763403559104,274.9872948349803,None,,,,,,,,,,,,,,,,None,None,None,,None,None,275.2887931779842,None,1,1,1.085283585009165,275.2887931779842,None,276.37084731187787,None,None,None,None,,22,001,2023_Jan_23_1157,searchDisc5,2021.2.3,59.976773388244894,
images/exp1a_trial_147_colour1_distractors31_l.png,l,1,1,31,0,,,,,0,64,64,64,,,,,,,,,,,,,,,,,,,,,,,,,,,,,,,,,,,,,,,,,,,276.38729862699984,None,2,0.23744807398179546,276.38729862699984,None,,,,,,,,,,,,,,,,None,None,None,,None,None,276.67104497598484,None,1,1,1.1845684829750098,276.67104497598484,None,277.85420806987094,None,None,None,None,,22,001,2023_Jan_23_1157,searchDisc5,2021.2.3,59.976773388244894,
images/exp2b_trial_252_colour3_distractors19_l.png,l,1,3,19,0,,,,,0,65,65,65,,,,,,,,,,,,,,,,,,,,,,,,,,,,,,,,,,,,,,,,,,,277.87277109897695,None,2,0.2377923679887317,277.87277109897695,None,,,,,,,,,,,,,,,,None,None,None,,None,None,278.1542937280028,None,1,1,0.7371702290256508,278.1542937280028,None,278.88741246688295,None,None,None,None,,22,001,2023_Jan_23_1157,searchDisc5,2021.2.3,59.976773388244894,
images/exp2b_trial_142_colour3_distractors31_r.png,r,3,3,31,0,,,,,0,66,66,66,,,,,,,,,,,,,,,,,,,,,,,,,,,,,,,,,,,,,,,,,,,278.90408388496144,None,2,0.25463879999006167,278.90408388496144,None,,,,,,,,,,,,,,,,None,None,None,,None,None,279.2043563440093,None,3,1,0.8030669440049678,279.2043563440093,None,280.0040567288699,None,None,None,None,,22,001,2023_Jan_23_1157,searchDisc5,2021.2.3,59.976773388244894,
images/exp2b_trial_108_colour3_distractors9_r.png,r,3,3,9,0,,,,,0,67,67,67,,,,,,,,,,,,,,,,,,,,,,,,,,,,,,,,,,,,,,,,,,,280.0207006499986,None,2,0.20463666698196903,280.0207006499986,None,,,,,,,,,,,,,,,,None,None,None,,None,None,280.27241105097346,None,3,1,0.7389580559683964,280.27241105097346,None,281.00409506490104,None,None,None,None,,22,001,2023_Jan_23_1157,searchDisc5,2021.2.3,59.976773388244894,
images/exp2a_trial_0_colour1_distractors1_r.png,r,3,1,1,0,,,,,0,68,68,68,,,,,,,,,,,,,,,,,,,,,,,,,,,,,,,,,,,,,,,,,,,281.020408625016,None,2,0.2563383590313606,281.020408625016,None,,,,,,,,,,,,,,,,None,None,None,,None,None,281.32070499297697,None,3,1,0.7041076009627432,281.32070499297697,None,282.0207310719008,None,None,None,None,,22,001,2023_Jan_23_1157,searchDisc5,2021.2.3,59.976773388244894,
images/exp2c_trial_105_colour2_distractors31_r.png,r,3,2,31,0,,,,,0,69,69,69,,,,,,,,,,,,,,,,,,,,,,,,,,,,,,,,,,,,,,,,,,,282.0369845620007,None,2,0.2544440940255299,282.0369845620007,None,,,,,,,,,,,,,,,,None,None,None,,None,None,282.33763340400765,None,3,1,0.9196703389752656,282.33763340400765,None,283.254160039901,None,None,None,None,,22,001,2023_Jan_23_1157,searchDisc5,2021.2.3,59.976773388244894,
images/exp2a_trial_268_colour3_distractors9_r.png,r,3,3,9,0,,,,,0,70,70,70,,,,,,,,,,,,,,,,,,,,,,,,,,,,,,,,,,,,,,,,,,,283.27027591498336,None,2,0.2233792470069602,283.27027591498336,None,,,,,,,,,,,,,,,,None,None,None,,None,None,283.53924098296557,None,3,1,0.6694055150146596,283.53924098296557,None,284.2042120829166,None,None,None,None,,22,001,2023_Jan_23_1157,searchDisc5,2021.2.3,59.976773388244894,
images/exp2b_trial_191_colour0_distractors0_l.png,l,1,0,0,0,,,,,0,71,71,71,,,,,,,,,,,,,,,,,,,,,,,,,,,,,,,,,,,,,,,,,,,284.2203256129869,None,2,0.22347764699952677,284.2203256129869,None,,,,,,,,,,,,,,,,None,None,None,,None,None,284.487736045965,None,1,1,0.9708548639900982,284.487736045965,None,285.4541647408798,None,None,None,None,,22,001,2023_Jan_23_1157,searchDisc5,2021.2.3,59.976773388244894,
images/exp1a_trial_188_colour3_distractors19_l.png,l,1,3,19,0,,,,,0,72,72,72,,,,,,,,,,,,,,,,,,,,,,,,,,,,,,,,,,,,,,,,,,,285.4708085919847,None,2,0.18810880300588906,285.4708085919847,None,,,,,,,,,,,,,,,,None,None,None,,None,None,285.70647572900634,None,1,1,0.7037877319962718,285.70647572900634,None,286.40434044188004,None,None,None,None,,22,001,2023_Jan_23_1157,searchDisc5,2021.2.3,59.976773388244894,
images/exp2c_trial_214_colour2_distractors9_l.png,l,1,2,9,0,,,,,0,73,73,73,,,,,,,,,,,,,,,,,,,,,,,,,,,,,,,,,,,,,,,,,,,286.4207696719677,None,2,0.20214556501014158,286.4207696719677,None,,,,,,,,,,,,,,,,None,None,None,,None,None,286.6734335109941,None,1,1,0.9043367470148951,286.6734335109941,None,287.57030786889953,None,None,None,None,,22,001,2023_Jan_23_1157,searchDisc5,2021.2.3,59.976773388244894,
images/exp2a_trial_302_colour3_distractors31_r.png,r,3,3,31,0,,,,,0,74,74,74,,,,,,,,,,,,,,,,,,,,,,,,,,,,,,,,,,,,,,,,,,,287.5873838849948,None,2,0.20749178295955062,287.5873838849948,None,,,,,,,,,,,,,,,,None,None,None,,None,None,287.83982465497684,None,3,1,0.6834006239660084,287.83982465497684,None,288.5203519768722,None,None,None,None,,22,001,2023_Jan_23_1157,searchDisc5,2021.2.3,59.976773388244894,
images/exp2b_trial_27_colour3_distractors9_l.png,l,1,3,9,0,,,,,0,75,75,75,,,,,,,,,,,,,,,,,,,,,,,,,,,,,,,,,,,,,,,,,,,288.53955336101353,None,2,0.23849585000425577,288.53955336101353,None,,,,,,,,,,,,,,,,None,None,None,,None,None,288.8214054389973,None,1,1,0.9882803270011209,288.8214054389973,None,289.8044786548882,None,None,None,None,,22,001,2023_Jan_23_1157,searchDisc5,2021.2.3,59.976773388244894,
images/exp2c_trial_64_colour1_distractors1_r.png,r,3,1,1,0,,,,,0,76,76,76,,,,,,,,,,,,,,,,,,,,,,,,,,,,,,,,,,,,,,,,,,,289.8230492619914,None,2,0.22128051397157833,289.8230492619914,None,,,,,,,,,,,,,,,,None,None,None,,None,None,290.08789554296527,None,3,1,0.5561596580082551,290.08789554296527,None,290.6377066628949,None,None,None,None,,22,001,2023_Jan_23_1157,searchDisc5,2021.2.3,59.976773388244894,
images/exp1a_trial_65_colour1_distractors4_r.png,r,3,1,4,0,,,,,0,77,77,77,,,,,,,,,,,,,,,,,,,,,,,,,,,,,,,,,,,,,,,,,,,290.6538441500161,None,2,0.22313763003330678,290.6538441500161,None,,,,,,,,,,,,,,,,None,None,None,,None,None,290.92331070796354,None,3,1,1.3360726819955744,290.92331070796354,None,292.25442861586924,None,None,None,None,,22,001,2023_Jan_23_1157,searchDisc5,2021.2.3,59.976773388244894,
images/exp2c_trial_23_colour2_distractors19_l.png,l,1,2,19,0,,,,,0,78,78,78,,,,,,,,,,,,,,,,,,,,,,,,,,,,,,,,,,,,,,,,,,,292.2704593699891,None,2,0.22345872002188116,292.2704593699891,None,,,,,,,,,,,,,,,,None,None,None,,None,None,292.53801284800284,None,1,1,0.8524033009889536,292.53801284800284,None,293.3880781678774,None,None,None,None,,22,001,2023_Jan_23_1157,searchDisc5,2021.2.3,59.976773388244894,
images/exp2c_trial_234_colour3_distractors1_r.png,r,3,3,1,0,,,,,0,79,79,79,,,,,,,,,,,,,,,,,,,,,,,,,,,,,,,,,,,,,,,,,,,293.40481881197775,None,2,0.1894979199860245,293.40481881197775,None,,,,,,,,,,,,,,,,None,None,None,,None,None,293.63997900899267,None,3,1,0.7205925679882057,293.63997900899267,None,294.35441408389596,None,None,None,None,,22,001,2023_Jan_23_1157,searchDisc5,2021.2.3,59.976773388244894,
images/exp1a_trial_77_colour3_distractors19_r.png,r,3,3,19,0,,,,,0,80,80,80,,,,,,,,,,,,,,,,,,,,,,,,,,,,,,,,,,,,,,,,,,,294.37034804100404,None,2,0.25673925201408565,294.37034804100404,None,,,,,,,,,,,,,,,,None,None,None,,None,None,294.6714435159811,None,3,1,0.6992035880102776,294.6714435159811,None,295.37116712787537,None,None,None,None,,22,001,2023_Jan_23_1157,searchDisc5,2021.2.3,59.976773388244894,
images/exp2c_trial_113_colour1_distractors9_l.png,l,1,1,9,0,,,,,0,81,81,81,,,,,,,,,,,,,,,,,,,,,,,,,,,,,,,,,,,,,,,,,,,295.38926707499195,None,2,0.2066000439808704,295.38926707499195,None,,,,,,,,,,,,,,,,None,None,None,,None,None,295.63796900300076,None,1,1,0.9215546550112776,295.63796900300076,None,296.55468230987316,None,None,None,None,,22,001,2023_Jan_23_1157,searchDisc5,2021.2.3,59.976773388244894,
images/exp1a_trial_255_colour0_distractors0_l.png,l,1,0,0,0,,,,,0,82,82,82,,,,,,,,,,,,,,,,,,,,,,,,,,,,,,,,,,,,,,,,,,,296.571166654001,None,2,0.16929932904895395,296.571166654001,None,,,,,,,,,,,,,,,,None,None,None,,None,None,296.7900748369866,None,1,1,0.7732024600263685,296.7900748369866,None,297.5547695809102,None,None,None,None,,22,001,2023_Jan_23_1157,searchDisc5,2021.2.3,59.976773388244894,
images/exp1a_trial_52_colour2_distractors1_l.png,l,1,2,1,0,,,,,0,83,83,83,,,,,,,,,,,,,,,,,,,,,,,,,,,,,,,,,,,,,,,,,,,297.5728687350056,None,2,0.1898184780147858,297.5728687350056,None,,,,,,,,,,,,,,,,None,None,None,,None,None,297.8069410310127,None,1,1,0.8038009949959815,297.8069410310127,None,298.6045250179188,None,None,None,None,,22,001,2023_Jan_23_1157,searchDisc5,2021.2.3,59.976773388244894,
images/exp2c_trial_78_colour3_distractors31_r.png,r,3,3,31,0,,,,,0,84,84,84,,,,,,,,,,,,,,,,,,,,,,,,,,,,,,,,,,,,,,,,,,,298.62111572700087,None,2,0.18802298104856163,298.62111572700087,None,,,,,,,,,,,,,,,,None,None,None,,None,None,298.8569943199982,None,3,1,0.7549803029978648,298.8569943199982,None,299.6045876469172,None,None,None,None,,22,001,2023_Jan_23_1157,searchDisc5,2021.2.3,59.976773388244894,
images/exp2c_trial_84_colour2_distractors1_l.png,l,1,2,1,0,,,,,0,85,85,85,,,,,,,,,,,,,,,,,,,,,,,,,,,,,,,,,,,,,,,,,,,299.62134815898025,None,2,0.22128396097104996,299.62134815898025,None,,,,,,,,,,,,,,,,None,None,None,,None,None,299.8880196689861,None,1,1,1.0037705039721914,299.8880196689861,None,300.88773290290845,None,None,None,None,,22,001,2023_Jan_23_1157,searchDisc5,2021.2.3,59.976773388244894,
images/exp2c_trial_77_colour3_distractors19_r.png,r,3,3,19,0,,,,,0,86,86,86,,,,,,,,,,,,,,,,,,,,,,,,,,,,,,,,,,,,,,,,,,,300.90394771896536,None,2,0.1881209530401975,300.90394771896536,None,,,,,,,,,,,,,,,,None,None,None,,None,None,301.13986595597817,None,3,1,1.2705774079659022,301.13986595597817,None,302.40487515386775,None,None,None,None,,22,001,2023_Jan_23_1157,searchDisc5,2021.2.3,59.976773388244894,
images/exp2b_trial_78_colour3_distractors31_r.png,r,3,3,31,0,,,,,0,87,87,87,,,,,,,,,,,,,,,,,,,,,,,,,,,,,,,,,,,,,,,,,,,302.4207837849972,None,2,0.27047305600717664,302.4207837849972,None,,,,,,,,,,,,,,,,None,None,None,,None,None,302.7405689909938,None,3,1,0.6707647549919784,302.7405689909938,None,303.4048394838639,None,None,None,None,,22,001,2023_Jan_23_1157,searchDisc5,2021.2.3,59.976773388244894,
images/exp1a_trial_64_colour1_distractors1_r.png,r,3,1,1,0,,,,,0,88,88,88,,,,,,,,,,,,,,,,,,,,,,,,,,,,,,,,,,,,,,,,,,,303.4213935279986,None,2,0.27118606300791726,303.4213935279986,None,,,,,,,,,,,,,,,,None,None,None,,None,None,303.73831138096284,None,3,1,0.6393716919701546,303.73831138096284,None,304.37160076790605,None,None,None,None,,22,001,2023_Jan_23_1157,searchDisc5,2021.2.3,59.976773388244894,
images/exp2a_trial_172_colour3_distractors9_r.png,r,3,3,9,0,,,,,0,89,89,89,,,,,,,,,,,,,,,,,,,,,,,,,,,,,,,,,,,,,,,,,,,304.38811868597986,None,2,0.2875820860499516,304.38811868597986,None,,,,,,,,,,,,,,,,None,None,None,,None,None,304.72149730299134,None,3,1,0.6044756170012988,304.72149730299134,None,305.3215058698726,None,None,None,None,,22,001,2023_Jan_23_1157,searchDisc5,2021.2.3,59.976773388244894,
images/exp1a_trial_173_colour3_distractors19_r.png,r,3,3,19,0,,,,,0,90,90,90,,,,,,,,,,,,,,,,,,,,,,,,,,,,,,,,,,,,,,,,,,,305.3379409610061,None,2,0.22291115199914202,305.3379409610061,None,,,,,,,,,,,,,,,,None,None,None,,None,None,305.6068794740131,None,3,1,0.5667453589849174,305.6068794740131,None,306.1714776929177,None,None,None,None,,22,001,2023_Jan_23_1157,searchDisc5,2021.2.3,59.976773388244894,
images/exp2b_trial_70_colour2_distractors4_r.png,r,3,2,4,0,,,,,0,91,91,91,,,,,,,,,,,,,,,,,,,,,,,,,,,,,,,,,,,,,,,,,,,306.1880675489665,None,2,0.23805437900591642,306.1880675489665,None,,,,,,,,,,,,,,,,None,None,None,,None,None,306.4716147079598,None,3,1,0.5218107010005042,306.4716147079598,None,306.98835232186246,None,None,None,None,,22,001,2023_Jan_23_1157,searchDisc5,2021.2.3,59.976773388244894,
images/exp2a_trial_67_colour1_distractors19_r.png,r,3,1,19,0,,,,,0,92,92,92,,,,,,,,,,,,,,,,,,,,,,,,,,,,,,,,,,,,,,,,,,,307.00655348598957,None,2,0.23757589503657073,307.00655348598957,None,,,,,,,,,,,,,,,,None,None,None,,None,None,307.28826872695936,None,3,1,0.6705447109998204,307.28826872695936,None,307.9548890118778,None,None,None,None,,22,001,2023_Jan_23_1157,searchDisc5,2021.2.3,59.976773388244894,
images/exp2c_trial_67_colour1_distractors19_r.png,r,3,1,19,0,,,,,0,93,93,93,,,,,,,,,,,,,,,,,,,,,,,,,,,,,,,,,,,,,,,,,,,307.9710019269842,None,2,0.2567030299687758,307.9710019269842,None,,,,,,,,,,,,,,,,None,None,None,,None,None,308.27390971401474,None,3,1,0.43531925400020555,308.27390971401474,None,308.70496981691684,None,None,None,None,,22,001,2023_Jan_23_1157,searchDisc5,2021.2.3,59.976773388244894,
images/exp2c_trial_287_colour0_distractors0_l.png,l,1,0,0,0,,,,,0,94,94,94,,,,,,,,,,,,,,,,,,,,,,,,,,,,,,,,,,,,,,,,,,,308.72297720296774,None,2,0.3045018009725027,308.72297720296774,None,,,,,,,,,,,,,,,,None,None,None,,None,None,309.07150589697994,None,1,1,0.7895298400544561,309.07150589697994,None,309.85477470491895,None,None,None,None,,22,001,2023_Jan_23_1157,searchDisc5,2021.2.3,59.976773388244894,
images/exp2c_trial_170_colour3_distractors1_r.png,r,3,3,1,0,,,,,0,95,95,95,,,,,,,,,,,,,,,,,,,,,,,,,,,,,,,,,,,,,,,,,,,309.8712262060144,None,2,0.2232266700011678,309.8712262060144,None,,,,,,,,,,,,,,,,None,None,None,,None,None,310.13833081995836,None,3,1,0.5387382049812004,310.13833081995836,None,310.6716056108882,None,None,None,None,,22,001,2023_Jan_23_1157,searchDisc5,2021.2.3,59.976773388244894,
images/exp1a_trial_293_colour2_distractors1_r.png,r,3,2,1,0,,,,,0,96,96,96,,,,,,,,,,,,,,,,,,,,,,,,,,,,,,,,,,,,,,,,,,,310.68761794496095,None,2,0.23800343897892162,310.68761794496095,None,,,,,,,,,,,,,,,,None,None,None,,None,None,310.97149674000684,None,3,1,0.5375010099960491,310.97149674000684,None,311.5048766769061,None,None,None,None,,22,001,2023_Jan_23_1157,searchDisc5,2021.2.3,59.976773388244894,
images/exp2c_trial_273_colour1_distractors9_l.png,l,1,1,9,0,,,,,0,97,97,97,,,,,,,,,,,,,,,,,,,,,,,,,,,,,,,,,,,,,,,,,,,311.5235656409641,None,2,0.19012160698184744,311.5235656409641,None,,,,,,,,,,,,,,,,None,None,None,,None,None,311.7571690849727,None,1,1,0.8863843569997698,311.7571690849727,None,312.6384153599094,None,None,None,None,,22,001,2023_Jan_23_1157,searchDisc5,2021.2.3,59.976773388244894,
images/exp2b_trial_126_colour0_distractors0_r.png,r,3,0,0,0,,,,,0,98,98,98,,,,,,,,,,,,,,,,,,,,,,,,,,,,,,,,,,,,,,,,,,,312.65492387500126,None,2,0.20447542297188193,312.65492387500126,None,,,,,,,,,,,,,,,,None,None,None,,None,None,312.9067192149814,None,3,1,1.039816175994929,312.9067192149814,None,313.938380676863,None,None,None,None,,22,001,2023_Jan_23_1157,searchDisc5,2021.2.3,59.976773388244894,
images/exp2a_trial_109_colour3_distractors19_r.png,r,3,3,19,0,,,,,0,99,99,99,,,,,,,,,,,,,,,,,,,,,,,,,,,,,,,,,,,,,,,,,,,313.95510485296836,None,2,0.23773289599921554,313.95510485296836,None,,,,,,,,,,,,,,,,None,None,None,,None,None,314.23876146395924,None,3,1,1.0039320799987763,314.23876146395924,None,315.23835302990045,None,None,None,None,,22,001,2023_Jan_23_1157,searchDisc5,2021.2.3,59.976773388244894,
images/exp1a_trial_87_colour2_distractors19_l.png,l,1,2,19,0,,,,,0,100,100,100,,,,,,,,,,,,,,,,,,,,,,,,,,,,,,,,,,,,,,,,,,,315.2547850519768,None,2,0.27104109997162595,315.2547850519768,None,,,,,,,,,,,,,,,,None,None,None,,None,None,315.57224854797823,None,1,1,0.7014398340252228,315.57224854797823,None,316.271860820899,None,None,None,None,,22,001,2023_Jan_23_1157,searchDisc5,2021.2.3,59.976773388244894,
images/exp2c_trial_203_colour3_distractors4_r.png,r,3,3,4,0,,,,,0,101,101,101,,,,,,,,,,,,,,,,,,,,,,,,,,,,,,,,,,,,,,,,,,,316.2897139060078,None,2,0.189438845962286,316.2897139060078,None,,,,,,,,,,,,,,,,None,None,None,,None,None,316.52464417001465,None,3,1,0.8701359779806808,316.52464417001465,None,317.3885523769015,None,None,None,None,,22,001,2023_Jan_23_1157,searchDisc5,2021.2.3,59.976773388244894,
images/exp1a_trial_196_colour1_distractors31_r.png,r,3,1,31,0,,,,,0,102,102,102,,,,,,,,,,,,,,,,,,,,,,,,,,,,,,,,,,,,,,,,,,,317.4055397649645,None,2,0.20456655597081408,317.4055397649645,None,,,,,,,,,,,,,,,,None,None,None,,None,None,317.65816969500156,None,3,1,2.0000927170040086,317.65816969500156,None,319.6553134048765,None,None,None,None,,22,001,2023_Jan_23_1157,searchDisc5,2021.2.3,59.976773388244894,
images/exp2a_trial_60_colour3_distractors19_l.png,l,1,3,19,0,,,,,0,103,103,103,,,,,,,,,,,,,,,,,,,,,,,,,,,,,,,,,,,,,,,,,,,319.67263949499466,None,2,0.22329153603641316,319.67263949499466,None,,,,,,,,,,,,,,,,None,None,None,,None,None,319.94086636498105,None,1,1,1.0853706479538232,319.94086636498105,None,321.02198879888164,None,None,None,None,,22,001,2023_Jan_23_1157,searchDisc5,2021.2.3,59.976773388244894,
images/exp1a_trial_210_colour1_distractors19_l.png,l,1,1,19,0,,,,,0,104,104,104,,,,,,,,,,,,,,,,,,,,,,,,,,,,,,,,,,,,,,,,,,,321.0392284299596,None,2,0.18788631196366623,321.0392284299596,None,,,,,,,,,,,,,,,,None,None,None,,None,None,321.27435163396876,None,1,1,0.8523066929774359,321.27435163396876,None,322.1223507019051,None,None,None,None,,22,001,2023_Jan_23_1157,searchDisc5,2021.2.3,59.976773388244894,
images/exp2c_trial_186_colour3_distractors4_l.png,l,1,3,4,0,,,,,0,105,105,105,,,,,,,,,,,,,,,,,,,,,,,,,,,,,,,,,,,,,,,,,,,322.14146361796884,None,2,0.1575382580049336,322.14146361796884,None,,,,,,,,,,,,,,,,None,None,None,,None,None,322.3416042670142,None,1,1,0.6856319230282679,322.3416042670142,None,323.02214383690733,None,None,None,None,,22,001,2023_Jan_23_1157,searchDisc5,2021.2.3,59.976773388244894,
images/exp1a_trial_138_colour3_distractors1_r.png,r,3,3,1,0,,,,,0,106,106,106,,,,,,,,,,,,,,,,,,,,,,,,,,,,,,,,,,,,,,,,,,,323.0395001019933,None,2,0.17059694201452658,323.0395001019933,None,,,,,,,,,,,,,,,,None,None,None,,None,None,323.2556491739815,None,3,1,0.7404598039574921,323.2556491739815,None,323.98963364791706,None,None,None,None,,22,001,2023_Jan_23_1157,searchDisc5,2021.2.3,59.976773388244894,
images/exp2a_trial_168_colour2_distractors19_r.png,r,3,2,19,0,,,,,0,107,107,107,,,,,,,,,,,,,,,,,,,,,,,,,,,,,,,,,,,,,,,,,,,324.00540116697084,None,2,0.23912551195826381,324.00540116697084,None,,,,,,,,,,,,,,,,None,None,None,,None,None,324.2933500179788,None,3,1,1.078572931990493,324.2933500179788,None,325.37201233291415,None,None,None,None,,22,001,2023_Jan_23_1157,searchDisc5,2021.2.3,59.976773388244894,
images/exp1a_trial_187_colour3_distractors9_l.png,l,1,3,9,0,,,,,0,108,108,108,,,,,,,,,,,,,,,,,,,,,,,,,,,,,,,,,,,,,,,,,,,325.38939984398894,None,2,0.1564023810205981,325.38939984398894,None,,,,,,,,,,,,,,,,None,None,None,,None,None,325.58893589198124,None,1,1,1.0182629220071249,325.58893589198124,None,326.60551360187236,None,None,None,None,,22,001,2023_Jan_23_1157,searchDisc5,2021.2.3,59.976773388244894,
images/exp2c_trial_133_colour2_distractors1_r.png,r,3,2,1,0,,,,,0,109,109,109,,,,,,,,,,,,,,,,,,,,,,,,,,,,,,,,,,,,,,,,,,,326.6221525539877,None,2,0.1887097170110792,326.6221525539877,None,,,,,,,,,,,,,,,,None,None,None,,None,None,326.855746590998,None,3,1,0.6396120130084455,326.855746590998,None,327.49004150789114,None,None,None,None,,22,001,2023_Jan_23_1157,searchDisc5,2021.2.3,59.976773388244894,
images/exp2c_trial_28_colour3_distractors19_l.png,l,1,3,19,0,,,,,0,110,110,110,,,,,,,,,,,,,,,,,,,,,,,,,,,,,,,,,,,,,,,,,,,327.5053011159762,None,2,0.2579256949829869,327.5053011159762,None,,,,,,,,,,,,,,,,None,None,None,,None,None,327.8080225319718,None,1,1,0.8680310469935648,327.8080225319718,None,328.67340775790507,None,None,None,None,,22,001,2023_Jan_23_1157,searchDisc5,2021.2.3,59.976773388244894,
images/exp2b_trial_95_colour0_distractors0_l.png,l,1,0,0,0,,,,,0,111,111,111,,,,,,,,,,,,,,,,,,,,,,,,,,,,,,,,,,,,,,,,,,,328.6894929470145,None,2,0.2032304789754562,328.6894929470145,None,,,,,,,,,,,,,,,,None,None,None,,None,None,328.9421923379996,None,1,1,0.6396858390071429,328.9421923379996,None,329.5717049928673,None,None,None,None,,22,001,2023_Jan_23_1157,searchDisc5,2021.2.3,59.976773388244894,
images/exp2c_trial_177_colour1_distractors9_l.png,l,1,1,9,0,,,,,0,112,112,112,,,,,,,,,,,,,,,,,,,,,,,,,,,,,,,,,,,,,,,,,,,329.5898863520124,None,2,0.20508817402878776,329.5898863520124,None,,,,,,,,,,,,,,,,None,None,None,,None,None,329.84196214500116,None,1,1,0.8209783610072918,329.84196214500116,None,330.65555253888596,None,None,None,None,,22,001,2023_Jan_23_1157,searchDisc5,2021.2.3,59.976773388244894,
images/exp2a_trial_68_colour1_distractors31_r.png,r,3,1,31,0,,,,,0,113,113,113,,,,,,,,,,,,,,,,,,,,,,,,,,,,,,,,,,,,,,,,,,,330.67281104199355,None,2,0.2061662880005315,330.67281104199355,None,,,,,,,,,,,,,,,,None,None,None,,None,None,330.92450428399025,None,3,1,0.7176302600419149,330.92450428399025,None,331.6389789958659,None,None,None,None,,22,001,2023_Jan_23_1157,searchDisc5,2021.2.3,59.976773388244894,
images/exp2a_trial_228_colour1_distractors31_r.png,r,3,1,31,0,,,,,0,114,114,114,,,,,,,,,,,,,,,,,,,,,,,,,,,,,,,,,,,,,,,,,,,331.654835267982,None,2,0.22235355398152024,331.654835267982,None,,,,,,,,,,,,,,,,None,None,None,,None,None,331.9253064590157,None,3,1,0.8344279499724507,331.9253064590157,None,332.755606567912,None,None,None,None,,22,001,2023_Jan_23_1157,searchDisc5,2021.2.3,59.976773388244894,
images/exp2b_trial_251_colour3_distractors9_l.png,l,1,3,9,0,,,,,0,115,115,115,,,,,,,,,,,,,,,,,,,,,,,,,,,,,,,,,,,,,,,,,,,332.7723352359608,None,2,0.2574219779926352,332.7723352359608,None,,,,,,,,,,,,,,,,None,None,None,,None,None,333.07462063396815,None,1,1,0.8681281859753653,333.07462063396815,None,333.93905097690293,None,None,None,None,,22,001,2023_Jan_23_1157,searchDisc5,2021.2.3,59.976773388244894,
images/exp2c_trial_114_colour1_distractors19_l.png,l,1,1,19,0,,,,,0,116,116,116,,,,,,,,,,,,,,,,,,,,,,,,,,,,,,,,,,,,,,,,,,,333.9556213360047,None,2,0.18776915001217276,333.9556213360047,None,,,,,,,,,,,,,,,,None,None,None,,None,None,334.19218532100786,None,1,1,0.6539886739919893,334.19218532100786,None,334.83902410291483,None,None,None,None,,22,001,2023_Jan_23_1157,searchDisc5,2021.2.3,59.976773388244894,
images/exp2c_trial_160_colour1_distractors1_r.png,r,3,1,1,0,,,,,0,117,117,117,,,,,,,,,,,,,,,,,,,,,,,,,,,,,,,,,,,,,,,,,,,334.8556473169592,None,2,0.20467407896649092,334.8556473169592,None,,,,,,,,,,,,,,,,None,None,None,,None,None,335.1058373519918,None,3,1,0.6891715149977244,335.1058373519918,None,335.7890996659,None,None,None,None,,22,001,2023_Jan_23_1157,searchDisc5,2021.2.3,59.976773388244894,
images/exp2c_trial_97_colour1_distractors4_r.png,r,3,1,4,0,,,,,0,118,118,118,,,,,,,,,,,,,,,,,,,,,,,,,,,,,,,,,,,,,,,,,,,335.80666269001085,None,2,0.2398110119975172,335.80666269001085,None,,,,,,,,,,,,,,,,None,None,None,,None,None,336.0917989430018,None,3,1,0.6538120479672216,336.0917989430018,None,336.7395263149112,None,None,None,None,,22,001,2023_Jan_23_1157,searchDisc5,2021.2.3,59.976773388244894,
images/exp2a_trial_174_colour3_distractors31_r.png,r,3,3,31,0,,,,,0,119,119,119,,,,,,,,,,,,,,,,,,,,,,,,,,,,,,,,,,,,,,,,,,,336.75674518797314,None,2,0.20624544797465205,336.75674518797314,None,,,,,,,,,,,,,,,,None,None,None,,None,None,337.00800549797714,None,3,1,0.617823373991996,337.00800549797714,None,337.622353638889,None,None,None,None,,22,001,2023_Jan_23_1157,searchDisc5,2021.2.3,59.976773388244894,
images/exp2c_trial_34_colour1_distractors9_r.png,r,3,1,9,0,,,,,0,120,120,120,,,,,,,,,,,,,,,,,,,,,,,,,,,,,,,,,,,,,,,,,,,337.63910098199267,None,2,0.22423536801943555,337.63910098199267,None,,,,,,,,,,,,,,,,None,None,None,,None,None,337.9078971070121,None,3,1,0.6517923820065334,337.9078971070121,None,338.5568633668765,None,None,None,None,,22,001,2023_Jan_23_1157,searchDisc5,2021.2.3,59.976773388244894,
images/exp2a_trial_27_colour3_distractors9_l.png,l,1,3,9,0,,,,,0,121,121,121,,,,,,,,,,,,,,,,,,,,,,,,,,,,,,,,,,,,,,,,,,,338.5723128039972,None,2,0.2546664119581692,338.5723128039972,None,,,,,,,,,,,,,,,,None,None,None,,None,None,338.8726791499648,None,1,1,0.6880740800406784,338.8726791499648,None,339.5568454449123,None,None,None,None,,22,001,2023_Jan_23_1157,searchDisc5,2021.2.3,59.976773388244894,
images/exp2a_trial_195_colour1_distractors19_r.png,r,3,1,19,0,,,,,0,122,122,122,,,,,,,,,,,,,,,,,,,,,,,,,,,,,,,,,,,,,,,,,,,339.5741685020039,None,2,0.18877291097305715,339.5741685020039,None,,,,,,,,,,,,,,,,None,None,None,,None,None,339.80802722496446,None,3,1,0.8531770060071722,339.80802722496446,None,340.65593864886904,None,None,None,None,,22,001,2023_Jan_23_1157,searchDisc5,2021.2.3,59.976773388244894,
images/exp1a_trial_128_colour1_distractors1_r.png,r,3,1,1,0,,,,,0,123,123,123,,,,,,,,,,,,,,,,,,,,,,,,,,,,,,,,,,,,,,,,,,,340.67196800600505,None,2,0.238914403016679,340.67196800600505,None,,,,,,,,,,,,,,,,None,None,None,,None,None,340.9588267079671,None,3,1,0.7025515320128761,340.9588267079671,None,341.6558735199098,None,None,None,None,,22,001,2023_Jan_23_1157,searchDisc5,2021.2.3,59.976773388244894,
images/exp2c_trial_178_colour1_distractors19_l.png,l,1,1,19,0,,,,,0,124,124,124,,,,,,,,,,,,,,,,,,,,,,,,,,,,,,,,,,,,,,,,,,,341.6732816849835,None,2,0.22204753698315471,341.6732816849835,None,,,,,,,,,,,,,,,,None,None,None,,None,None,341.9412676480133,None,1,1,0.7191679600509815,341.9412676480133,None,342.6560182458663,None,None,None,None,,22,001,2023_Jan_23_1157,searchDisc5,2021.2.3,59.976773388244894,
images/exp2a_trial_16_colour1_distractors4_l.png,l,1,1,4,0,,,,,0,125,125,125,,,,,,,,,,,,,,,,,,,,,,,,,,,,,,,,,,,,,,,,,,,342.67249171901494,None,2,0.20531772496178746,342.67249171901494,None,,,,,,,,,,,,,,,,None,None,None,,None,None,342.9248532910133,None,1,1,0.8045092609827407,342.9248532910133,None,343.7225842318905,None,None,None,None,,22,001,2023_Jan_23_1157,searchDisc5,2021.2.3,59.976773388244894,
images/exp2b_trial_30_colour0_distractors0_r.png,r,3,0,0,0,,,,,0,126,126,126,,,,,,,,,,,,,,,,,,,,,,,,,,,,,,,,,,,,,,,,,,,343.73974166001426,None,2,0.20565414801239967,343.73974166001426,None,,,,,,,,,,,,,,,,None,None,None,,None,None,343.99221781099914,None,3,1,0.9048277670517564,343.99221781099914,None,344.8888425029174,None,None,None,None,,22,001,2023_Jan_23_1157,searchDisc5,2021.2.3,59.976773388244894,
images/exp1a_trial_308_colour2_distractors1_l.png,l,1,2,1,0,,,,,0,127,127,127,,,,,,,,,,,,,,,,,,,,,,,,,,,,,,,,,,,,,,,,,,,344.90576307399897,None,2,0.2881639580009505,344.90576307399897,None,,,,,,,,,,,,,,,,None,None,None,,None,None,345.23948812298477,None,1,1,0.9564266059896909,345.23948812298477,None,346.1888070539164,None,None,None,None,,22,001,2023_Jan_23_1157,searchDisc5,2021.2.3,59.976773388244894,
images/exp2c_trial_102_colour2_distractors4_r.png,r,3,2,4,0,,,,,0,128,128,128,,,,,,,,,,,,,,,,,,,,,,,,,,,,,,,,,,,,,,,,,,,346.2065389630152,None,2,0.19105029699858278,346.2065389630152,None,,,,,,,,,,,,,,,,None,None,None,,None,None,346.4416859559715,None,3,1,0.50171262701042,346.4416859559715,None,346.938626564882,None,None,None,None,,22,001,2023_Jan_23_1157,searchDisc5,2021.2.3,59.976773388244894,
images/exp2b_trial_244_colour2_distractors1_l.png,l,1,2,1,0,,,,,0,129,129,129,,,,,,,,,,,,,,,,,,,,,,,,,,,,,,,,,,,,,,,,,,,346.9568896879791,None,2,0.224012219987344,346.9568896879791,None,,,,,,,,,,,,,,,,None,None,None,,None,None,347.2221413219813,None,1,1,0.7208133729873225,347.2221413219813,None,347.93937907189246,None,None,None,None,,22,001,2023_Jan_23_1157,searchDisc5,2021.2.3,59.976773388244894,
images/exp2b_trial_29_colour3_distractors31_l.png,l,1,3,31,0,,,,,0,130,130,130,,,,,,,,,,,,,,,,,,,,,,,,,,,,,,,,,,,,,,,,,,,347.9566571440082,None,2,0.24080490099731833,347.9566571440082,None,,,,,,,,,,,,,,,,None,None,None,,None,None,348.24256057699677,None,1,1,0.6343453350127675,348.24256057699677,None,348.873764411913,None,None,None,None,,22,001,2023_Jan_23_1157,searchDisc5,2021.2.3,59.976773388244894,
images/exp2b_trial_5_colour2_distractors1_r.png,r,3,2,1,0,,,,,0,131,131,131,,,,,,,,,,,,,,,,,,,,,,,,,,,,,,,,,,,,,,,,,,,348.8894029679941,None,2,0.22238383098738268,348.8894029679941,None,,,,,,,,,,,,,,,,None,None,None,,None,None,349.1574102349696,None,3,1,0.6370821080054156,349.1574102349696,None,349.7893763049098,None,None,None,None,,22,001,2023_Jan_23_1157,searchDisc5,2021.2.3,59.976773388244894,
images/exp2c_trial_176_colour1_distractors4_l.png,l,1,1,4,0,,,,,0,132,132,132,,,,,,,,,,,,,,,,,,,,,,,,,,,,,,,,,,,,,,,,,,,349.80664995196275,None,2,0.3240799810155295,349.80664995196275,None,,,,,,,,,,,,,,,,None,None,None,,None,None,350.17386238096515,None,1,1,0.6556368520250544,350.17386238096515,None,350.82385930886375,None,None,None,None,,22,001,2023_Jan_23_1157,searchDisc5,2021.2.3,59.976773388244894,
images/exp2b_trial_62_colour0_distractors0_r.png,r,3,0,0,0,,,,,0,133,133,133,,,,,,,,,,,,,,,,,,,,,,,,,,,,,,,,,,,,,,,,,,,350.8418931539636,None,2,0.2189836300094612,350.8418931539636,None,,,,,,,,,,,,,,,,None,None,None,,None,None,351.10657841997454,None,3,1,0.7555980519973673,351.10657841997454,None,351.8561697128636,None,None,None,None,,22,001,2023_Jan_23_1157,searchDisc5,2021.2.3,59.976773388244894,
images/exp2c_trial_290_colour1_distractors9_r.png,r,3,1,9,0,,,,,0,134,134,134,,,,,,,,,,,,,,,,,,,,,,,,,,,,,,,,,,,,,,,,,,,351.87484798399964,None,2,0.22114122204948217,351.87484798399964,None,,,,,,,,,,,,,,,,None,None,None,,None,None,352.13974411797244,None,3,1,0.7722491389722563,352.13974411797244,None,352.9061669208633,None,None,None,None,,22,001,2023_Jan_23_1157,searchDisc5,2021.2.3,59.976773388244894,
images/exp2c_trial_192_colour1_distractors1_r.png,r,3,1,1,0,,,,,0,135,135,135,,,,,,,,,,,,,,,,,,,,,,,,,,,,,,,,,,,,,,,,,,,352.9254467000137,None,2,0.2048782539786771,352.9254467000137,None,,,,,,,,,,,,,,,,None,None,None,,None,None,353.1759556159959,None,3,1,0.6081050090142526,353.1759556159959,None,353.77397858888725,None,None,None,None,,22,001,2023_Jan_23_1157,searchDisc5,2021.2.3,59.976773388244894,
images/exp2a_trial_126_colour0_distractors0_r.png,r,3,0,0,0,,,,,0,136,136,136,,,,,,,,,,,,,,,,,,,,,,,,,,,,,,,,,,,,,,,,,,,353.7892458449933,None,2,0.2702410360216163,353.7892458449933,None,,,,,,,,,,,,,,,,None,None,None,,None,None,354.10683540900936,None,3,1,0.45544938900275156,354.10683540900936,None,354.55618968887137,None,None,None,None,,22,001,2023_Jan_23_1157,searchDisc5,2021.2.3,59.976773388244894,
images/exp2c_trial_289_colour1_distractors4_r.png,r,3,1,4,0,,,,,0,137,137,137,,,,,,,,,,,,,,,,,,,,,,,,,,,,,,,,,,,,,,,,,,,354.5728648889926,None,2,0.25623140297830105,354.5728648889926,None,,,,,,,,,,,,,,,,None,None,None,,None,None,354.87506801099516,None,3,1,0.6213196280295961,354.87506801099516,None,355.4906564848672,None,None,None,None,,22,001,2023_Jan_23_1157,searchDisc5,2021.2.3,59.976773388244894,
images/exp1a_trial_69_colour2_distractors1_r.png,r,3,2,1,0,,,,,0,138,138,138,,,,,,,,,,,,,,,,,,,,,,,,,,,,,,,,,,,,,,,,,,,355.50717420398723,None,2,0.22132810100447387,355.50717420398723,None,,,,,,,,,,,,,,,,None,None,None,,None,None,355.7759766099625,None,3,1,0.45526663900818676,355.7759766099625,None,356.223030151875,None,None,None,None,,22,001,2023_Jan_23_1157,searchDisc5,2021.2.3,59.976773388244894,
images/exp1a_trial_115_colour1_distractors31_l.png,l,1,1,31,0,,,,,0,139,139,139,,,,,,,,,,,,,,,,,,,,,,,,,,,,,,,,,,,,,,,,,,,356.2395628319937,None,2,0.22127505001844838,356.2395628319937,None,,,,,,,,,,,,,,,,None,None,None,,None,None,356.5085335620097,None,1,1,0.8182089980109595,356.5085335620097,None,357.324139734864,None,None,None,None,,22,001,2023_Jan_23_1157,searchDisc5,2021.2.3,59.976773388244894,
images/exp2b_trial_4_colour1_distractors31_r.png,r,3,1,31,0,,,,,0,140,140,140,,,,,,,,,,,,,,,,,,,,,,,,,,,,,,,,,,,,,,,,,,,357.3396826219978,None,2,0.18780952302040532,357.3396826219978,None,,,,,,,,,,,,,,,,None,None,None,,None,None,357.57525777700357,None,3,1,0.8532382199773565,357.57525777700357,None,358.42397477788035,None,None,None,None,,22,001,2023_Jan_23_1157,searchDisc5,2021.2.3,59.976773388244894,
images/exp2c_trial_213_colour2_distractors4_l.png,l,1,2,4,0,,,,,0,141,141,141,,,,,,,,,,,,,,,,,,,,,,,,,,,,,,,,,,,,,,,,,,,358.4396257280023,None,2,0.25414067396195605,358.4396257280023,None,,,,,,,,,,,,,,,,None,None,None,,None,None,358.7396483019693,None,1,1,0.8048073159880005,358.7396483019693,None,359.5396479228686,None,None,None,None,,22,001,2023_Jan_23_1157,searchDisc5,2021.2.3,59.976773388244894,
images/exp2c_trial_47_colour1_distractors1_l.png,l,1,1,1,0,,,,,0,142,142,142,,,,,,,,,,,,,,,,,,,,,,,,,,,,,,,,,,,,,,,,,,,359.5567589129787,None,2,0.20602981199044734,359.5567589129787,None,,,,,,,,,,,,,,,,None,None,None,,None,None,359.8096563969739,None,1,1,0.7715570860309526,359.8096563969739,None,360.5730239268916,None,None,None,None,,22,001,2023_Jan_23_1157,searchDisc5,2021.2.3,59.976773388244894,
images/exp2a_trial_107_colour3_distractors4_r.png,r,3,3,4,0,,,,,0,143,143,143,,,,,,,,,,,,,,,,,,,,,,,,,,,,,,,,,,,,,,,,,,,360.5924326509703,None,2,0.17326447897357866,360.5924326509703,None,,,,,,,,,,,,,,,,None,None,None,,None,None,360.80967806698754,None,3,1,0.8699649900081567,360.80967806698754,None,361.673034646915,None,None,None,None,,22,001,2023_Jan_23_1157,searchDisc5,2021.2.3,59.976773388244894,
images/exp2a_trial_134_colour2_distractors4_r.png,r,3,2,4,0,,,,,0,144,144,144,,,,,,,,,,,,,,,,,,,,,,,,,,,,,,,,,,,,,,,,,,,361.6896847629687,None,2,0.22340977500425652,361.6896847629687,None,,,,,,,,,,,,,,,,None,None,None,,None,None,361.95952571200905,None,3,1,0.8179520689882338,361.95952571200905,None,362.7731737318856,None,None,None,None,,22,001,2023_Jan_23_1157,searchDisc5,2021.2.3,59.976773388244894,
images/exp2c_trial_317_colour3_distractors31_l.png,l,1,3,31,0,,,,,0,145,145,145,,,,,,,,,,,,,,,,,,,,,,,,,,,,,,,,,,,,,,,,,,,362.7923540349584,None,2,0.20462138002039865,362.7923540349584,None,,,,,,,,,,,,,,,,None,None,None,,None,None,363.0399855109863,None,1,1,0.786003157030791,363.0399855109863,None,363.8231750988809,None,None,None,None,,22,001,2023_Jan_23_1157,searchDisc5,2021.2.3,59.976773388244894,
images/exp2a_trial_54_colour2_distractors9_l.png,l,1,2,9,0,,,,,0,146,146,146,,,,,,,,,,,,,,,,,,,,,,,,,,,,,,,,,,,,,,,,,,,363.84040317096515,None,2,0.18789842998376116,363.84040317096515,None,,,,,,,,,,,,,,,,None,None,None,,None,None,364.0754731729976,None,1,1,1.3008572740363888,364.0754731729976,None,365.3731782029092,None,None,None,None,,22,001,2023_Jan_23_1157,searchDisc5,2021.2.3,59.976773388244894,
images/exp2a_trial_175_colour1_distractors1_l.png,l,1,1,1,0,,,,,0,147,147,147,,,,,,,,,,,,,,,,,,,,,,,,,,,,,,,,,,,,,,,,,,,365.39046765398234,None,2,0.1900528409751132,365.39046765398234,None,,,,,,,,,,,,,,,,None,None,None,,None,None,365.6257396629662,None,1,1,0.9041001529549249,365.6257396629662,None,366.52333991487393,None,None,None,None,,22,001,2023_Jan_23_1157,searchDisc5,2021.2.3,59.976773388244894,
images/exp2c_trial_311_colour2_distractors19_l.png,l,1,2,19,0,,,,,0,148,148,148,,,,,,,,,,,,,,,,,,,,,,,,,,,,,,,,,,,,,,,,,,,366.53986648999853,None,2,0.23791218094993383,366.53986648999853,None,,,,,,,,,,,,,,,,None,None,None,,None,None,366.82318830199074,None,1,1,0.903415548033081,366.82318830199074,None,367.7229728289123,None,None,None,None,,22,001,2023_Jan_23_1157,searchDisc5,2021.2.3,59.976773388244894,
images/exp2a_trial_220_colour3_distractors19_l.png,l,1,3,19,0,,,,,0,149,149,149,,,,,,,,,,,,,,,,,,,,,,,,,,,,,,,,,,,,,,,,,,,367.74193986301543,None,2,0.18957156996475533,367.74193986301543,None,,,,,,,,,,,,,,,,None,None,None,,None,None,367.97380614001304,None,1,1,0.6703072999953292,367.97380614001304,None,368.64029762086574,None,None,None,None,,22,001,2023_Jan_23_1157,searchDisc5,2021.2.3,59.976773388244894,
images/exp2c_trial_293_colour2_distractors1_r.png,r,3,2,1,0,,,,,0,150,150,150,,,,,,,,,,,,,,,,,,,,,,,,,,,,,,,,,,,,,,,,,,,368.65629338898,None,2,0.2035545589751564,368.65629338898,None,,,,,,,,,,,,,,,,None,None,None,,None,None,368.9086168130161,None,3,1,0.6397553400020115,368.9086168130161,None,369.5410807008913,None,None,None,None,,22,001,2023_Jan_23_1157,searchDisc5,2021.2.3,59.976773388244894,
images/exp2a_trial_71_colour2_distractors9_r.png,r,3,2,9,0,,,,,0,151,151,151,,,,,,,,,,,,,,,,,,,,,,,,,,,,,,,,,,,,,,,,,,,369.5560640770127,None,2,0.2195295699639246,369.5560640770127,None,,,,,,,,,,,,,,,,None,None,None,,None,None,369.8241752340109,None,3,1,0.8684409569832496,369.8241752340109,None,370.6896402879094,None,None,None,None,,22,001,2023_Jan_23_1157,searchDisc5,2021.2.3,59.976773388244894,
images/exp2a_trial_267_colour3_distractors4_r.png,r,3,3,4,0,,,,,0,152,152,152,,,,,,,,,,,,,,,,,,,,,,,,,,,,,,,,,,,,,,,,,,,370.7058630709653,None,2,0.20558991597499698,370.7058630709653,None,,,,,,,,,,,,,,,,None,None,None,,None,None,370.9567280510091,None,3,1,0.6049714699620381,370.9567280510091,None,371.5567288168997,None,None,None,None,,22,001,2023_Jan_23_1157,searchDisc5,2021.2.3,59.976773388244894,
images/exp2c_trial_16_colour1_distractors4_l.png,l,1,1,4,0,,,,,0,153,153,153,,,,,,,,,,,,,,,,,,,,,,,,,,,,,,,,,,,,,,,,,,,371.5758366569644,None,2,0.17337070300709456,371.5758366569644,None,,,,,,,,,,,,,,,,None,None,None,,None,None,371.79230828298023,None,1,1,0.6538105870131403,371.79230828298023,None,372.44038033690885,None,None,None,None,,22,001,2023_Jan_23_1157,searchDisc5,2021.2.3,59.976773388244894,
images/exp2b_trial_309_colour2_distractors4_l.png,l,1,2,4,0,,,,,0,154,154,154,,,,,,,,,,,,,,,,,,,,,,,,,,,,,,,,,,,,,,,,,,,372.4568285889691,None,2,0.17198312003165483,372.4568285889691,None,,,,,,,,,,,,,,,,None,None,None,,None,None,372.67391995701473,None,1,1,0.8540436470066197,372.67391995701473,None,373.5228351208672,None,None,None,None,,22,001,2023_Jan_23_1157,searchDisc5,2021.2.3,59.976773388244894,
images/exp2b_trial_135_colour2_distractors9_r.png,r,3,2,9,0,,,,,0,155,155,155,,,,,,,,,,,,,,,,,,,,,,,,,,,,,,,,,,,,,,,,,,,373.5400479059899,None,2,0.1549815050093457,373.5400479059899,None,,,,,,,,,,,,,,,,None,None,None,,None,None,373.74153944000136,None,3,1,1.0718863190268166,373.74153944000136,None,374.8068727809179,None,None,None,None,,22,001,2023_Jan_23_1157,searchDisc5,2021.2.3,59.976773388244894,
images/exp1a_trial_189_colour3_distractors31_l.png,l,1,3,31,0,,,,,0,156,156,156,,,,,,,,,,,,,,,,,,,,,,,,,,,,,,,,,,,,,,,,,,,374.82569682301255,None,2,0.25443474401254207,374.82569682301255,None,,,,,,,,,,,,,,,,None,None,None,,None,None,375.12371293397155,None,1,1,1.2665338380029425,375.12371293397155,None,376.39027710487716,None,None,None,None,,22,001,2023_Jan_23_1157,searchDisc5,2021.2.3,59.976773388244894,
images/exp2b_trial_64_colour1_distractors1_r.png,r,3,1,1,0,,,,,0,157,157,157,,,,,,,,,,,,,,,,,,,,,,,,,,,,,,,,,,,,,,,,,,,376.4075558040058,None,2,0.17104541504522786,376.4075558040058,None,,,,,,,,,,,,,,,,None,None,None,,None,None,376.6257283409941,None,3,1,1.0234225839958526,376.6257283409941,None,377.6409902128682,None,None,None,None,,22,001,2023_Jan_23_1157,searchDisc5,2021.2.3,59.976773388244894,
images/exp2c_trial_43_colour3_distractors4_r.png,r,3,3,4,0,,,,,0,158,158,158,,,,,,,,,,,,,,,,,,,,,,,,,,,,,,,,,,,,,,,,,,,377.6572234669584,None,2,0.1871085749589838,377.6572234669584,None,,,,,,,,,,,,,,,,None,None,None,,None,None,377.8933931950014,None,3,1,0.7081903690122999,377.8933931950014,None,378.5901889329136,None,None,None,None,,22,001,2023_Jan_23_1157,searchDisc5,2021.2.3,59.976773388244894,
images/exp2b_trial_287_colour0_distractors0_l.png,l,1,0,0,0,,,,,0,159,159,159,,,,,,,,,,,,,,,,,,,,,,,,,,,,,,,,,,,,,,,,,,,378.6068685289938,None,2,0.18582817498827353,378.6068685289938,None,,,,,,,,,,,,,,,,None,None,None,,None,None,378.84062641696073,None,1,1,0.6566584059619345,378.84062641696073,None,379.49028169091906,None,None,None,None,,22,001,2023_Jan_23_1157,searchDisc5,2021.2.3,59.976773388244894,
images/exp2a_trial_51_colour1_distractors31_l.png,l,1,1,31,0,,,,,0,160,160,160,,,,,,,,,,,,,,,,,,,,,,,,,,,,,,,,,,,,,,,,,,,379.5089496189612,None,2,0.17112832597922534,379.5089496189612,None,,,,,,,,,,,,,,,,None,None,None,,None,None,379.7264037269633,None,1,1,1.121818368032109,379.7264037269633,None,380.8404028648685,None,None,None,None,,22,001,2023_Jan_23_1157,searchDisc5,2021.2.3,59.976773388244894,
images/exp2c_trial_282_colour3_distractors4_l.png,l,1,3,4,0,,,,,0,161,161,161,,,,,,,,,,,,,,,,,,,,,,,,,,,,,,,,,,,,,,,,,,,380.85798321000766,None,2,0.1354202040238306,380.85798321000766,None,,,,,,,,,,,,,,,,None,None,None,,None,None,381.0411889620009,None,1,1,0.8074234329978935,381.0411889620009,None,381.84035407386835,None,None,None,None,,22,001,2023_Jan_23_1157,searchDisc5,2021.2.3,59.976773388244894,
images/exp2c_trial_44_colour3_distractors9_r.png,r,3,3,9,0,,,,,0,162,162,162,,,,,,,,,,,,,,,,,,,,,,,,,,,,,,,,,,,,,,,,,,,381.85771084198495,None,2,0.15455083001870662,381.85771084198495,None,,,,,,,,,,,,,,,,None,None,None,,None,None,382.0592012279667,None,3,1,1.2876739419880323,382.0592012279667,None,383.34031821288517,None,None,None,None,,22,001,2023_Jan_23_1157,searchDisc5,2021.2.3,59.976773388244894,
images/exp1a_trial_72_colour2_distractors19_r.png,r,3,2,19,0,,,,,0,163,163,163,,,,,,,,,,,,,,,,,,,,,,,,,,,,,,,,,,,,,,,,,,,383.3575979240122,None,2,0.18947776698041707,383.3575979240122,None,,,,,,,,,,,,,,,,None,None,None,,None,None,383.5918350350112,None,3,1,0.8665875180158764,383.5918350350112,None,384.4570948289067,None,None,None,None,,22,001,2023_Jan_23_1157,searchDisc5,2021.2.3,59.976773388244894,
images/exp1a_trial_83_colour1_distractors31_l.png,l,1,1,31,0,,,,,0,164,164,164,,,,,,,,,,,,,,,,,,,,,,,,,,,,,,,,,,,,,,,,,,,384.4730989059899,None,2,0.22030869801528752,384.4730989059899,None,,,,,,,,,,,,,,,,None,None,None,,None,None,384.74284286896,None,1,1,0.8006922219647095,384.74284286896,None,385.5404167808767,None,None,None,None,,22,001,2023_Jan_23_1157,searchDisc5,2021.2.3,59.976773388244894,
images/exp2c_trial_281_colour3_distractors1_l.png,l,1,3,1,0,,,,,0,165,165,165,,,,,,,,,,,,,,,,,,,,,,,,,,,,,,,,,,,,,,,,,,,385.5570997039904,None,2,0.17227935703704134,385.5570997039904,None,,,,,,,,,,,,,,,,None,None,None,,None,None,385.7761995329638,None,1,1,0.6712518219719641,385.7761995329638,None,386.4404540318821,None,None,None,None,,22,001,2023_Jan_23_1157,searchDisc5,2021.2.3,59.976773388244894,
images/exp2b_trial_44_colour3_distractors9_r.png,r,3,3,9,0,,,,,0,166,166,166,,,,,,,,,,,,,,,,,,,,,,,,,,,,,,,,,,,,,,,,,,,386.4576898479718,None,2,0.13796852302039042,386.4576898479718,None,,,,,,,,,,,,,,,,None,None,None,,None,None,386.64313563297037,None,3,1,0.8245342700392939,386.64313563297037,None,387.46023971891844,None,None,None,None,,22,001,2023_Jan_23_1157,searchDisc5,2021.2.3,59.976773388244894,
images/exp2c_trial_140_colour3_distractors9_r.png,r,3,3,9,0,,,,,0,167,167,167,,,,,,,,,,,,,,,,,,,,,,,,,,,,,,,,,,,,,,,,,,,387.4769233649713,None,2,0.18525082396809012,387.4769233649713,None,,,,,,,,,,,,,,,,None,None,None,,None,None,387.7104723440134,None,3,1,0.9544282520073466,387.7104723440134,None,388.6572746408812,None,None,None,None,,22,001,2023_Jan_23_1157,searchDisc5,2021.2.3,59.976773388244894,
images/exp1a_trial_319_colour0_distractors0_l.png,l,1,0,0,0,,,,,0,168,168,168,,,,,,,,,,,,,,,,,,,,,,,,,,,,,,,,,,,,,,,,,,,388.6749806489679,None,2,0.2385123599669896,388.6749806489679,None,,,,,,,,,,,,,,,,None,None,None,,None,None,388.9574777049711,None,1,1,0.6556538720033132,388.9574777049711,None,389.6072751169151,None,None,None,None,,22,001,2023_Jan_23_1157,searchDisc5,2021.2.3,59.976773388244894,
images/exp2a_trial_34_colour1_distractors9_r.png,r,3,1,9,0,,,,,0,169,169,169,,,,,,,,,,,,,,,,,,,,,,,,,,,,,,,,,,,,,,,,,,,389.62446386698866,None,2,0.22237616800703108,389.62446386698866,None,,,,,,,,,,,,,,,,None,None,None,,None,None,389.89283405500464,None,3,1,0.7199730509892106,389.89283405500464,None,390.60833839887636,None,None,None,None,,22,001,2023_Jan_23_1157,searchDisc5,2021.2.3,59.976773388244894,
images/exp2c_trial_24_colour2_distractors31_l.png,l,1,2,31,0,,,,,0,170,170,170,,,,,,,,,,,,,,,,,,,,,,,,,,,,,,,,,,,,,,,,,,,390.62661124696024,None,2,0.23876694799400866,390.62661124696024,None,,,,,,,,,,,,,,,,None,None,None,,None,None,390.9104475660133,None,1,1,0.7507179179810919,390.9104475660133,None,391.65669851786805,None,None,None,None,,22,001,2023_Jan_23_1157,searchDisc5,2021.2.3,59.976773388244894,
images/exp2c_trial_144_colour1_distractors4_l.png,l,1,1,4,0,,,,,0,171,171,171,,,,,,,,,,,,,,,,,,,,,,,,,,,,,,,,,,,,,,,,,,,391.6743011159706,None,2,0.18818618002114818,391.6743011159706,None,,,,,,,,,,,,,,,,None,None,None,,None,None,391.90780893701594,None,1,1,0.7890313590178266,391.90780893701594,None,392.69074834186466,None,None,None,None,,22,001,2023_Jan_23_1157,searchDisc5,2021.2.3,59.976773388244894,
images/exp2a_trial_55_colour2_distractors19_l.png,l,1,2,19,0,,,,,0,172,172,172,,,,,,,,,,,,,,,,,,,,,,,,,,,,,,,,,,,,,,,,,,,392.70793575799325,None,2,0.20505096099805087,392.70793575799325,None,,,,,,,,,,,,,,,,None,None,None,,None,None,392.9594468699652,None,1,1,0.9815742470091209,392.9594468699652,None,393.94066544589003,None,None,None,None,,22,001,2023_Jan_23_1157,searchDisc5,2021.2.3,59.976773388244894,
images/exp2c_trial_216_colour2_distractors31_l.png,l,1,2,31,0,,,,,0,173,173,173,,,,,,,,,,,,,,,,,,,,,,,,,,,,,,,,,,,,,,,,,,,393.9581809209776,None,2,0.17200266104191542,393.9581809209776,None,,,,,,,,,,,,,,,,None,None,None,,None,None,394.1761673850124,None,1,1,0.7373737180023454,394.1761673850124,None,394.9094951448671,None,None,None,None,,22,001,2023_Jan_23_1157,searchDisc5,2021.2.3,59.976773388244894,
images/exp2c_trial_306_colour1_distractors19_l.png,l,1,1,19,0,,,,,0,174,174,174,,,,,,,,,,,,,,,,,,,,,,,,,,,,,,,,,,,,,,,,,,,394.92673110199394,None,2,0.18506699398858473,394.92673110199394,None,,,,,,,,,,,,,,,,None,None,None,,None,None,395.16045080998447,None,1,1,0.6374581059790216,395.16045080998447,None,395.79070247688213,None,None,None,None,,22,001,2023_Jan_23_1157,searchDisc5,2021.2.3,59.976773388244894,
images/exp2b_trial_307_colour1_distractors31_l.png,l,1,1,31,0,,,,,0,175,175,175,,,,,,,,,,,,,,,,,,,,,,,,,,,,,,,,,,,,,,,,,,,395.8080878839828,None,2,0.1733578119892627,395.8080878839828,None,,,,,,,,,,,,,,,,None,None,None,,None,None,396.02703898597974,None,1,1,0.7844080459908582,396.02703898597974,None,396.8073273268703,None,None,None,None,,22,001,2023_Jan_23_1157,searchDisc5,2021.2.3,59.976773388244894,
images/exp2a_trial_297_colour2_distractors31_r.png,r,3,2,31,0,,,,,0,176,176,176,,,,,,,,,,,,,,,,,,,,,,,,,,,,,,,,,,,,,,,,,,,396.82412592699984,None,2,0.2065209390129894,396.82412592699984,None,,,,,,,,,,,,,,,,None,None,None,,None,None,397.0791942309588,None,3,1,0.9465332350227982,397.0791942309588,None,398.02526293987756,None,None,None,None,,22,001,2023_Jan_23_1157,searchDisc5,2021.2.3,59.976773388244894,
images/exp2a_trial_81_colour1_distractors9_l.png,l,1,1,9,0,,,,,0,177,177,177,,,,,,,,,,,,,,,,,,,,,,,,,,,,,,,,,,,,,,,,,,,398.040752262983,None,2,0.2381549869896844,398.040752262983,None,,,,,,,,,,,,,,,,None,None,None,,None,None,398.3264444649685,None,1,1,0.6862502540461719,398.3264444649685,None,399.00748725289594,None,None,None,None,,22,001,2023_Jan_23_1157,searchDisc5,2021.2.3,59.976773388244894,
images/exp1a_trial_43_colour3_distractors4_r.png,r,3,3,4,0,,,,,0,178,178,178,,,,,,,,,,,,,,,,,,,,,,,,,,,,,,,,,,,,,,,,,,,399.0261403750046,None,2,0.12226883601397276,399.0261403750046,None,,,,,,,,,,,,,,,,None,None,None,,None,None,399.19300591101637,None,3,1,0.6888670340413228,399.19300591101637,None,399.87430506987147,None,None,None,None,,22,001,2023_Jan_23_1157,searchDisc5,2021.2.3,59.976773388244894,
images/exp2a_trial_317_colour3_distractors31_l.png,l,1,3,31,0,,,,,0,179,179,179,,,,,,,,,,,,,,,,,,,,,,,,,,,,,,,,,,,,,,,,,,,399.8930717149633,None,2,0.22067932900972664,399.8930717149633,None,,,,,,,,,,,,,,,,None,None,None,,None,None,400.15775878500426,None,1,1,0.9516199070494622,400.15775878500426,None,401.1075157139159,None,None,None,None,,22,001,2023_Jan_23_1157,searchDisc5,2021.2.3,59.976773388244894,
images/exp2c_trial_247_colour2_distractors19_l.png,l,1,2,19,0,,,,,0,180,180,180,,,,,,,,,,,,,,,,,,,,,,,,,,,,,,,,,,,,,,,,,,,401.1270022789831,None,2,0.12202050897758454,401.1270022789831,None,,,,,,,,,,,,,,,,None,None,None,,None,None,401.29314528999384,None,1,1,0.7368743669940159,401.29314528999384,None,402.02429552086977,None,None,None,None,,22,001,2023_Jan_23_1157,searchDisc5,2021.2.3,59.976773388244894,
images/exp2a_trial_26_colour3_distractors4_l.png,l,1,3,4,0,,,,,0,181,181,181,,,,,,,,,,,,,,,,,,,,,,,,,,,,,,,,,,,,,,,,,,,402.04062314197654,None,2,0.13709820300573483,402.04062314197654,None,,,,,,,,,,,,,,,,None,None,None,,None,None,402.22647436195984,None,1,1,0.7730291929910891,402.22647436195984,None,402.9910405039147,None,None,None,None,,22,001,2023_Jan_23_1157,searchDisc5,2021.2.3,59.976773388244894,
images/exp2a_trial_207_colour1_distractors1_l.png,l,1,1,1,0,,,,,0,182,182,182,,,,,,,,,,,,,,,,,,,,,,,,,,,,,,,,,,,,,,,,,,,403.0076013689977,None,2,0.15459565201308578,403.0076013689977,None,,,,,,,,,,,,,,,,None,None,None,,None,None,403.2106407629908,None,1,1,0.6896358439698815,403.2106407629908,None,403.89099638887564,None,None,None,None,,22,001,2023_Jan_23_1157,searchDisc5,2021.2.3,59.976773388244894,
images/exp1a_trial_279_colour2_distractors19_l.png,l,1,2,19,0,,,,,0,183,183,183,,,,,,,,,,,,,,,,,,,,,,,,,,,,,,,,,,,,,,,,,,,403.9075925669749,None,2,0.12142211996251717,403.9075925669749,None,,,,,,,,,,,,,,,,None,None,None,,None,None,404.07671226898674,None,1,1,1.1017647589906119,404.07671226898674,None,405.1743917289015,None,None,None,None,,22,001,2023_Jan_23_1157,searchDisc5,2021.2.3,59.976773388244894,
images/exp2b_trial_34_colour1_distractors9_r.png,r,3,1,9,0,,,,,0,184,184,184,,,,,,,,,,,,,,,,,,,,,,,,,,,,,,,,,,,,,,,,,,,405.19087653100723,None,2,0.1720272230450064,405.19087653100723,None,,,,,,,,,,,,,,,,None,None,None,,None,None,405.40825442399364,None,3,1,0.9215152940014377,405.40825442399364,None,406.32434712986577,None,None,None,None,,22,001,2023_Jan_23_1157,searchDisc5,2021.2.3,59.976773388244894,
images/exp2a_trial_182_colour2_distractors9_l.png,l,1,2,9,0,,,,,0,185,185,185,,,,,,,,,,,,,,,,,,,,,,,,,,,,,,,,,,,,,,,,,,,406.34167895797873,None,2,0.15504284895723686,406.34167895797873,None,,,,,,,,,,,,,,,,None,None,None,,None,None,406.5431700629997,None,1,1,0.9838046870427206,406.5431700629997,None,407.5243502318801,None,None,None,None,,22,001,2023_Jan_23_1157,searchDisc5,2021.2.3,59.976773388244894,
images/exp1a_trial_125_colour3_distractors31_l.png,l,1,3,31,0,,,,,0,186,186,186,,,,,,,,,,,,,,,,,,,,,,,,,,,,,,,,,,,,,,,,,,,407.54155426000943,None,2,0.13787037500878796,407.54155426000943,None,,,,,,,,,,,,,,,,None,None,None,,None,None,407.72733324597357,None,1,1,0.8170062429853715,407.72733324597357,None,408.5411181398842,None,None,None,None,,22,001,2023_Jan_23_1157,searchDisc5,2021.2.3,59.976773388244894,
images/exp2c_trial_200_colour2_distractors19_r.png,r,3,2,19,0,,,,,0,187,187,187,,,,,,,,,,,,,,,,,,,,,,,,,,,,,,,,,,,,,,,,,,,408.5581622389727,None,2,0.15456001501297578,408.5581622389727,None,,,,,,,,,,,,,,,,None,None,None,,None,None,408.7600878129597,None,1,0,0.7202598589938134,408.7600878129597,None,409.474459339882,None,None,None,None,,22,001,2023_Jan_23_1157,searchDisc5,2021.2.3,59.976773388244894,
images/exp2b_trial_250_colour3_distractors4_l.png,l,1,3,4,0,,,,,0,188,188,188,,,,,,,,,,,,,,,,,,,,,,,,,,,,,,,,,,,,,,,,,,,409.49344397196546,None,2,0.17212387797189876,409.49344397196546,None,,,,,,,,,,,,,,,,None,None,None,,None,None,409.71016917098314,None,1,1,1.3215633479994722,409.71016917098314,None,411.02442648991126,None,None,None,None,,22,001,2023_Jan_23_1157,searchDisc5,2021.2.3,59.976773388244894,
images/exp2a_trial_288_colour1_distractors1_r.png,r,3,1,1,0,,,,,0,189,189,189,,,,,,,,,,,,,,,,,,,,,,,,,,,,,,,,,,,,,,,,,,,411.0415765849757,None,2,0.18769629596499726,411.0415765849757,None,,,,,,,,,,,,,,,,None,None,None,,None,None,411.277674529003,None,3,1,1.0562600279808976,411.277674529003,None,412.32449528786236,None,None,None,None,,22,001,2023_Jan_23_1157,searchDisc5,2021.2.3,59.976773388244894,
images/exp2b_trial_46_colour3_distractors31_r.png,r,3,3,31,0,,,,,0,190,190,190,,,,,,,,,,,,,,,,,,,,,,,,,,,,,,,,,,,,,,,,,,,412.3413599010091,None,2,0.18749706697417423,412.3413599010091,None,,,,,,,,,,,,,,,,None,None,None,,None,None,412.5755705870106,None,3,1,0.9531800299882889,412.5755705870106,None,413.5244777008949,None,None,None,None,,22,001,2023_Jan_23_1157,searchDisc5,2021.2.3,59.976773388244894,
images/exp1a_trial_113_colour1_distractors9_l.png,l,1,1,9,0,,,,,0,191,191,191,,,,,,,,,,,,,,,,,,,,,,,,,,,,,,,,,,,,,,,,,,,413.54392661200836,None,2,0.15526642295299098,413.54392661200836,None,,,,,,,,,,,,,,,,None,None,None,,None,None,413.7416857400094,None,1,1,1.0542246960103512,413.7416857400094,None,414.7911916179175,None,None,None,None,,22,001,2023_Jan_23_1157,searchDisc5,2021.2.3,59.976773388244894,
images/exp2b_trial_226_colour1_distractors9_r.png,r,3,1,9,0,,,,,0,192,192,192,,,,,,,,,,,,,,,,,,,,,,,,,,,,,,,,,,,,,,,,,,,414.8081081119599,None,2,0.1698060409980826,414.8081081119599,None,,,,,,,,,,,,,,,,None,None,None,,None,None,415.0273836439592,None,3,1,1.2545385349658318,415.0273836439592,None,416.2744432438805,None,None,None,None,,22,001,2023_Jan_23_1157,searchDisc5,2021.2.3,59.976773388244894,
images/exp1a_trial_88_colour2_distractors31_l.png,l,1,2,31,0,,,,,0,193,193,193,,,,,,,,,,,,,,,,,,,,,,,,,,,,,,,,,,,,,,,,,,,416.29168738698354,None,2,0.17152418399928138,416.29168738698354,None,,,,,,,,,,,,,,,,None,None,None,,None,None,416.50797035801224,None,1,1,0.8157896150369197,416.50797035801224,None,417.3240940928983,None,None,None,None,,22,001,2023_Jan_23_1157,searchDisc5,2021.2.3,59.976773388244894,
images/exp2a_trial_188_colour3_distractors19_l.png,l,1,3,19,0,,,,,0,194,194,194,,,,,,,,,,,,,,,,,,,,,,,,,,,,,,,,,,,,,,,,,,,417.34421955101425,None,2,0.13788173196371645,417.34421955101425,None,,,,,,,,,,,,,,,,None,None,None,,None,None,417.5272595739807,None,1,1,0.7029366699862294,417.5272595739807,None,418.22414156889425,None,None,None,None,,22,001,2023_Jan_23_1157,searchDisc5,2021.2.3,59.976773388244894,
images/exp1a_trial_0_colour1_distractors1_r.png,r,3,1,1,0,,,,,0,195,195,195,,,,,,,,,,,,,,,,,,,,,,,,,,,,,,,,,,,,,,,,,,,418.24226963397814,None,2,0.15606657497119159,418.24226963397814,None,,,,,,,,,,,,,,,,None,None,None,,None,None,418.4423682889901,None,3,1,0.7383731799782254,418.4423682889901,None,419.17458667188765,None,None,None,None,,22,001,2023_Jan_23_1157,searchDisc5,2021.2.3,59.976773388244894,
images/exp2b_trial_105_colour2_distractors31_r.png,r,3,2,31,0,,,,,0,196,196,196,,,,,,,,,,,,,,,,,,,,,,,,,,,,,,,,,,,,,,,,,,,419.1933709229925,None,2,0.2567493229871616,419.1933709229925,None,,,,,,,,,,,,,,,,None,None,None,,None,None,419.4924238579697,None,3,1,0.6009370639803819,419.4924238579697,None,420.09134061787626,None,None,None,None,,22,001,2023_Jan_23_1157,searchDisc5,2021.2.3,59.976773388244894,
images/exp2c_trial_271_colour1_distractors1_l.png,l,1,1,1,0,,,,,0,197,197,197,,,,,,,,,,,,,,,,,,,,,,,,,,,,,,,,,,,,,,,,,,,420.1089948359877,None,2,0.17367292800918221,420.1089948359877,None,,,,,,,,,,,,,,,,None,None,None,,None,None,420.3283376090112,None,1,1,0.6696186590124853,420.3283376090112,None,420.99142270391457,None,None,None,None,,22,001,2023_Jan_23_1157,searchDisc5,2021.2.3,59.976773388244894,
images/exp2c_trial_66_colour1_distractors9_r.png,r,3,1,9,0,,,,,0,198,198,198,,,,,,,,,,,,,,,,,,,,,,,,,,,,,,,,,,,,,,,,,,,421.00852762698196,None,2,0.13799998600734398,421.00852762698196,None,,,,,,,,,,,,,,,,None,None,None,,None,None,421.1942108689691,None,3,1,0.7878624940058216,421.1942108689691,None,421.9748089309025,None,None,None,None,,22,001,2023_Jan_23_1157,searchDisc5,2021.2.3,59.976773388244894,
images/exp1a_trial_228_colour1_distractors31_r.png,r,3,1,31,0,,,,,0,199,199,199,,,,,,,,,,,,,,,,,,,,,,,,,,,,,,,,,,,,,,,,,,,421.99190338200424,None,2,0.1740517719881609,421.99190338200424,None,,,,,,,,,,,,,,,,None,None,None,,None,None,422.210390541004,None,3,1,1.5143833860056475,422.210390541004,None,423.72486566090373,None,None,None,None,,22,001,2023_Jan_23_1157,searchDisc5,2021.2.3,59.976773388244894,
images/exp2a_trial_97_colour1_distractors4_r.png,r,3,1,4,0,,,,,0,200,200,200,,,,,,,,,,,,,,,,,,,,,,,,,,,,,,,,,,,,,,,,,,,423.7415241120034,None,2,0.18791633599903435,423.7415241120034,None,,,,,,,,,,,,,,,,None,None,None,,None,None,423.97537664696574,None,3,1,1.121629778004717,423.97537664696574,None,425.09139896290725,None,None,None,None,,22,001,2023_Jan_23_1157,searchDisc5,2021.2.3,59.976773388244894,
images/exp2c_trial_188_colour3_distractors19_l.png,l,1,3,19,0,,,,,0,201,201,201,,,,,,,,,,,,,,,,,,,,,,,,,,,,,,,,,,,,,,,,,,,425.10821833100636,None,2,0.15489219699520618,425.10821833100636,None,,,,,,,,,,,,,,,,None,None,None,,None,None,425.31124573596753,None,1,1,1.1043195910169743,425.31124573596753,None,426.40816665989695,None,None,None,None,,22,001,2023_Jan_23_1157,searchDisc5,2021.2.3,59.976773388244894,
images/exp2c_trial_261_colour2_distractors1_r.png,r,3,2,1,0,,,,,0,202,202,202,,,,,,,,,,,,,,,,,,,,,,,,,,,,,,,,,,,,,,,,,,,426.4246167059755,None,2,0.138085983984638,426.4246167059755,None,,,,,,,,,,,,,,,,None,None,None,,None,None,426.6085930399713,None,3,1,1.172868143999949,426.6085930399713,None,427.7750268998963,None,None,None,None,,22,001,2023_Jan_23_1157,searchDisc5,2021.2.3,59.976773388244894,
images/exp2a_trial_80_colour1_distractors4_l.png,l,1,1,4,0,,,,,0,203,203,203,,,,,,,,,,,,,,,,,,,,,,,,,,,,,,,,,,,,,,,,,,,427.7923127830145,None,2,0.20636343897785991,427.7923127830145,None,,,,,,,,,,,,,,,,None,None,None,,None,None,428.04400589398574,None,1,1,0.8034912220318802,428.04400589398574,None,428.8415681419021,None,None,None,None,,22,001,2023_Jan_23_1157,searchDisc5,2021.2.3,59.976773388244894,
images/exp1a_trial_44_colour3_distractors9_r.png,r,3,3,9,0,,,,,0,204,204,204,,,,,,,,,,,,,,,,,,,,,,,,,,,,,,,,,,,,,,,,,,,428.8587822249974,None,2,0.12256034300662577,428.8587822249974,None,,,,,,,,,,,,,,,,None,None,None,,None,None,429.0250614309916,None,3,1,0.853809640975669,429.0250614309916,None,429.87608252589706,None,None,None,None,,22,001,2023_Jan_23_1157,searchDisc5,2021.2.3,59.976773388244894,
images/exp1a_trial_309_colour2_distractors4_l.png,l,1,2,4,0,,,,,0,205,205,205,,,,,,,,,,,,,,,,,,,,,,,,,,,,,,,,,,,,,,,,,,,429.89169418095844,None,2,0.22114411502843723,429.89169418095844,None,,,,,,,,,,,,,,,,None,None,None,,None,None,430.15955312299775,None,1,1,0.8871671439846978,430.15955312299775,None,431.041443650861,None,None,None,None,,22,001,2023_Jan_23_1157,searchDisc5,2021.2.3,59.976773388244894,
images/exp2a_trial_89_colour3_distractors1_l.png,l,1,3,1,0,,,,,0,206,206,206,,,,,,,,,,,,,,,,,,,,,,,,,,,,,,,,,,,,,,,,,,,431.05836086400086,None,2,0.13799835200188681,431.05836086400086,None,,,,,,,,,,,,,,,,None,None,None,,None,None,431.242020998965,None,1,1,0.6554953299928457,431.242020998965,None,431.8911075499083,None,None,None,None,,22,001,2023_Jan_23_1157,searchDisc5,2021.2.3,59.976773388244894,
images/exp1a_trial_7_colour2_distractors9_r.png,r,3,2,9,0,,,,,0,207,207,207,,,,,,,,,,,,,,,,,,,,,,,,,,,,,,,,,,,,,,,,,,,431.9093804829754,None,2,0.13811481895390898,431.9093804829754,None,,,,,,,,,,,,,,,,None,None,None,,None,None,432.0942784869694,None,3,1,0.7712706869933754,432.0942784869694,None,432.8584846328769,None,None,None,None,,22,001,2023_Jan_23_1157,searchDisc5,2021.2.3,59.976773388244894,
images/exp1a_trial_120_colour2_distractors31_l.png,l,1,2,31,0,,,,,0,208,208,208,,,,,,,,,,,,,,,,,,,,,,,,,,,,,,,,,,,,,,,,,,,432.87509563501226,None,2,0.18862000096123666,432.87509563501226,None,,,,,,,,,,,,,,,,None,None,None,,None,None,433.10858237196226,None,1,1,1.0329712370294146,433.10858237196226,None,434.1417951518844,None,None,None,None,,22,001,2023_Jan_23_1157,searchDisc5,2021.2.3,59.976773388244894,
images/exp2a_trial_49_colour1_distractors9_l.png,l,1,1,9,0,,,,,0,209,209,209,,,,,,,,,,,,,,,,,,,,,,,,,,,,,,,,,,,,,,,,,,,434.15934375696816,None,2,0.13845216896152124,434.15934375696816,None,,,,,,,,,,,,,,,,None,None,None,,None,None,434.3427349299891,None,1,1,1.2209629490389489,434.3427349299891,None,435.5584093599056,None,None,None,None,,22,001,2023_Jan_23_1157,searchDisc5,2021.2.3,59.976773388244894,
images/exp1a_trial_230_colour2_distractors4_r.png,r,3,2,4,0,,,,,0,210,210,210,,,,,,,,,,,,,,,,,,,,,,,,,,,,,,,,,,,,,,,,,,,435.5751492579584,None,2,0.13900526898214594,435.5751492579584,None,,,,,,,,,,,,,,,,None,None,None,,None,None,435.75901763001457,None,3,1,0.8373048020293936,435.75901763001457,None,436.5919403119071,None,None,None,None,,22,001,2023_Jan_23_1157,searchDisc5,2021.2.3,59.976773388244894,
images/exp2a_trial_2_colour1_distractors9_r.png,r,3,1,9,0,,,,,0,211,211,211,,,,,,,,,,,,,,,,,,,,,,,,,,,,,,,,,,,,,,,,,,,436.60919259197544,None,2,0.15447980002500117,436.60919259197544,None,,,,,,,,,,,,,,,,None,None,None,,None,None,436.8108280359884,None,3,1,0.7883000859874301,436.8108280359884,None,437.5918863609142,None,None,None,None,,22,001,2023_Jan_23_1157,searchDisc5,2021.2.3,59.976773388244894,
images/exp1a_trial_19_colour1_distractors31_l.png,l,1,1,31,0,,,,,0,212,212,212,,,,,,,,,,,,,,,,,,,,,,,,,,,,,,,,,,,,,,,,,,,437.60855823999736,None,2,0.17066127300495282,437.60855823999736,None,,,,,,,,,,,,,,,,None,None,None,,None,None,437.82835905696265,None,1,1,1.217700649984181,437.82835905696265,None,439.04196105986483,None,None,None,None,,22,001,2023_Jan_23_1157,searchDisc5,2021.2.3,59.976773388244894,
images/exp2b_trial_35_colour1_distractors19_r.png,r,3,1,19,0,,,,,0,213,213,213,,,,,,,,,,,,,,,,,,,,,,,,,,,,,,,,,,,,,,,,,,,439.05921789997956,None,2,0.09082168299937621,439.05921789997956,None,,,,,,,,,,,,,,,,None,None,None,,None,None,439.1939609159599,None,3,1,0.8176221359753981,439.1939609159599,None,440.00868998591903,None,None,None,None,,22,001,2023_Jan_23_1157,searchDisc5,2021.2.3,59.976773388244894,
images/exp2b_trial_81_colour1_distractors9_l.png,l,1,1,9,0,,,,,0,214,214,214,,,,,,,,,,,,,,,,,,,,,,,,,,,,,,,,,,,,,,,,,,,440.02586315298686,None,2,0.1876879580086097,440.02586315298686,None,,,,,,,,,,,,,,,,None,None,None,,None,None,440.2618215740076,None,1,1,0.7887022249633446,440.2618215740076,None,441.0420039968623,None,None,None,None,,22,001,2023_Jan_23_1157,searchDisc5,2021.2.3,59.976773388244894,
images/exp2c_trial_173_colour3_distractors19_r.png,r,3,3,19,0,,,,,0,215,215,215,,,,,,,,,,,,,,,,,,,,,,,,,,,,,,,,,,,,,,,,,,,441.05932997498894,None,2,0.13778656598879024,441.05932997498894,None,,,,,,,,,,,,,,,,None,None,None,,None,None,441.24211969797034,None,3,1,0.8698946299846284,441.24211969797034,None,442.10868622486595,None,None,None,None,,22,001,2023_Jan_23_1157,searchDisc5,2021.2.3,59.976773388244894,
images/exp2c_trial_286_colour0_distractors0_r.png,r,3,0,0,0,,,,,0,216,216,216,,,,,,,,,,,,,,,,,,,,,,,,,,,,,,,,,,,,,,,,,,,442.1273410219583,None,2,0.13724531495245174,442.1273410219583,None,,,,,,,,,,,,,,,,None,None,None,,None,None,442.31099284096854,None,3,1,0.6236557810334489,442.31099284096854,None,442.9254550399084,None,None,None,None,,22,001,2023_Jan_23_1157,searchDisc5,2021.2.3,59.976773388244894,
images/exp1a_trial_129_colour1_distractors4_r.png,r,3,1,4,0,,,,,0,217,217,217,,,,,,,,,,,,,,,,,,,,,,,,,,,,,,,,,,,,,,,,,,,442.9443909570109,None,2,0.1732434830046259,442.9443909570109,None,,,,,,,,,,,,,,,,None,None,None,,None,None,443.15910415299004,None,3,1,0.7529129030299373,443.15910415299004,None,443.9087647228909,None,None,None,None,,22,001,2023_Jan_23_1157,searchDisc5,2021.2.3,59.976773388244894,
images/exp1a_trial_24_colour2_distractors31_l.png,l,1,2,31,0,,,,,0,218,218,218,,,,,,,,,,,,,,,,,,,,,,,,,,,,,,,,,,,,,,,,,,,443.9246727459831,None,2,0.15559611102798954,443.9246727459831,None,,,,,,,,,,,,,,,,None,None,None,,None,None,444.12872099201195,None,1,1,0.8340742459986359,444.12872099201195,None,444.9606717899034,None,None,None,None,,22,001,2023_Jan_23_1157,searchDisc5,2021.2.3,59.976773388244894,
images/exp2b_trial_55_colour2_distractors19_l.png,l,1,2,19,0,,,,,0,219,219,219,,,,,,,,,,,,,,,,,,,,,,,,,,,,,,,,,,,,,,,,,,,444.97462958900724,None,2,0.10348041000543162,444.97462958900724,None,,,,,,,,,,,,,,,,None,None,None,,None,None,445.12674087198684,None,1,1,0.7535850779968314,445.12674087198684,None,445.8755054578825,None,None,None,None,,22,001,2023_Jan_23_1157,searchDisc5,2021.2.3,59.976773388244894,
images/exp2c_trial_92_colour3_distractors19_l.png,l,1,3,19,0,,,,,0,220,220,220,,,,,,,,,,,,,,,,,,,,,,,,,,,,,,,,,,,,,,,,,,,445.8930933219963,None,2,0.12004336598329246,445.8930933219963,None,,,,,,,,,,,,,,,,None,None,None,,None,None,446.0582751239999,None,1,1,1.0718736889539286,446.0582751239999,None,447.1255446298921,None,None,None,None,,22,001,2023_Jan_23_1157,searchDisc5,2021.2.3,59.976773388244894,
images/exp2a_trial_46_colour3_distractors31_r.png,r,3,3,31,0,,,,,0,221,221,221,,,,,,,,,,,,,,,,,,,,,,,,,,,,,,,,,,,,,,,,,,,447.1434576539905,None,2,0.1200693819555454,447.1434576539905,None,,,,,,,,,,,,,,,,None,None,None,,None,None,447.311207804014,None,3,1,0.8060997140128165,447.311207804014,None,448.10847108190063,None,None,None,None,,22,001,2023_Jan_23_1157,searchDisc5,2021.2.3,59.976773388244894,
images/exp2c_trial_130_colour1_distractors9_r.png,r,3,1,9,0,,,,,0,222,222,222,,,,,,,,,,,,,,,,,,,,,,,,,,,,,,,,,,,,,,,,,,,448.1257355649723,None,2,0.2694129479932599,448.1257355649723,None,,,,,,,,,,,,,,,,None,None,None,,None,None,448.44268959597684,None,3,1,0.5377283609705046,448.44268959597684,None,448.97544328887597,None,None,None,None,,22,001,2023_Jan_23_1157,searchDisc5,2021.2.3,59.976773388244894,
images/exp2c_trial_51_colour1_distractors31_l.png,l,1,1,31,0,,,,,0,223,223,223,,,,,,,,,,,,,,,,,,,,,,,,,,,,,,,,,,,,,,,,,,,448.9925181749859,None,2,0.20782118901843205,448.9925181749859,None,,,,,,,,,,,,,,,,None,None,None,,None,None,449.2436271319748,None,1,1,0.7675689900061116,449.2436271319748,None,450.00995880588306,None,None,None,None,,22,001,2023_Jan_23_1157,searchDisc5,2021.2.3,59.976773388244894,
