ImageFile,targ_side,correctAnswer,colour,distNo,targetType,trials_2.thisRepN,trials_2.thisTrialN,trials_2.thisN,trials_2.thisIndex,trials.thisRepN,trials.thisTrialN,trials.thisN,trials.thisIndex,text_6.started,text_6.stopped,buttonBox.keys,buttonBox.rt,buttonBox.started,buttonBox.stopped,text_7.started,text_7.stopped,buttonBox_3.keys,buttonBox_3.rt,buttonBox_3.started,buttonBox_3.stopped,text_8.started,text_8.stopped,buttonBox_4.keys,buttonBox_4.rt,buttonBox_4.started,buttonBox_4.stopped,text_9.started,text_9.stopped,buttonBox_5.keys,buttonBox_5.rt,buttonBox_5.started,buttonBox_5.stopped,text_2.started,text_2.stopped,buttonBox_6.keys,buttonBox_6.rt,buttonBox_6.started,buttonBox_6.stopped,text_5.started,text_5.stopped,buttonBox_7.keys,buttonBox_7.rt,image_2.started,image_2.stopped,image_3.started,image_3.stopped,buttonBox_8.keys,buttonBox_8.rt,buttonBox_8.started,buttonBox_8.stopped,polygon.started,polygon.stopped,buttonBox_9.keys,buttonBox_9.rt,buttonBox_9.started,buttonBox_9.stopped,image.started,image.stopped,buttonBox_10.keys,buttonBox_10.corr,buttonBox_10.rt,buttonBox_10.started,buttonBox_10.stopped,text_4.started,text_4.stopped,text.started,text.stopped,buttonBox_11.keys,buttonBox_11.rt,buttonBox_11.started,buttonBox_11.stopped,targetTypeInstruction.started,targetTypeInstruction.stopped,buttonBox_2.keys,buttonBox_2.rt,buttonBox_2.started,buttonBox_2.stopped,dispStimuli.started,dispStimuli.stopped,buttonBox_12.keys,buttonBox_12.corr,buttonBox_12.rt,buttonBox_12.started,buttonBox_12.stopped,breakMessage.started,breakMessage.stopped,buttonBox_13.keys,buttonBox_13.started,buttonBox_13.stopped,buttonBox_13.rt,participant,session,date,expName,psychopyVersion,frameRate,
,,,,,,,,,,,,,,14.839043615036644,None,2,90.96865557297133,14.839043615036644,None,,,,,,,,,,,,,,,,,,,,,,,,,,,,,,,,,,,,,,,,,,,,,,,,,,,,,,,,,,,,,,,,,,,,,,,,,,,,,23,001,2023_Jan_23_1232,searchDisc5,2021.2.3,60.07629004890177,
,,,,,,,,,,,,,,,,,,,,105.80600570701063,None,2,46.88027859601425,105.80600570701063,None,,,,,,,,,,,,,,,,,,,,,,,,,,,,,,,,,,,,,,,,,,,,,,,,,,,,,,,,,,,,,,,,,,,,,,,23,001,2023_Jan_23_1232,searchDisc5,2021.2.3,60.07629004890177,
,,,,,,,,,,,,,,,,,,,,,,,,,,152.690519151045,None,2,10.147965054959059,152.690519151045,None,,,,,,,,,,,,,,,,,,,,,,,,,,,,,,,,,,,,,,,,,,,,,,,,,,,,,,,,,,,,,,,,,23,001,2023_Jan_23_1232,searchDisc5,2021.2.3,60.07629004890177,
,,,,,,,,,,,,,,,,,,,,,,,,,,,,,,,,162.8429822199978,None,2,6.181344789045397,162.8429822199978,None,,,,,,,,,,,,,,,,,,,,,,,,,,,,,,,,,,,,,,,,,,,,,,,,,,,,,,,,,,,23,001,2023_Jan_23_1232,searchDisc5,2021.2.3,60.07629004890177,
,,,,,,,,,,,,,,,,,,,,,,,,,,,,,,,,,,,,,,169.02426107000792,None,2,10.43191886000568,170.00973012804752,None,,,,,,,,,,,,,,,,,,,,,,,,,,,,,,,,,,,,,,,,,,,,,,,,,,,,,23,001,2023_Jan_23_1232,searchDisc5,2021.2.3,60.07629004890177,
,,,,,,,,,,,,,,,,,,,,,,,,,,,,,,,,,,,,,,,,,,,,180.44071494601667,None,2,12.067559945979156,,,,,,,,,,,,,,,,,,,,,,,,,,,,,,,,,,,,,,,,,,,,,,,,,23,001,2023_Jan_23_1232,searchDisc5,2021.2.3,60.07629004890177,
,,,,,,,,,,,,,,,,,,,,,,,,,,,,,,,,,,,,,,,,,,,,,,,,195.52503518701997,None,195.52503518701997,None,2,4.196950763987843,195.52503518701997,None,,,,,,,,,,,,,,,,,,,,,,,,,,,,,,,,,,,,,,,,,23,001,2023_Jan_23_1232,searchDisc5,2021.2.3,60.07629004890177,
Practice arrays/exp1a_trial_18_colour1_distractors19_l.png,l,1,,,,0,0,0,8,,,,,,,,,,,,,,,,,,,,,,,,,,,,,,,,,,,,,,,,,,,,,,,199.74204088904662,None,2,2.817153687996324,199.74204088904662,None,202.6108064840082,None,1,1,2.2734881219803356,202.6108064840082,None,204.87483289802913,None,,,,,,,,,,,,,,,,,,,,,,,,,,23,001,2023_Jan_23_1232,searchDisc5,2021.2.3,60.07629004890177,
Practice arrays/exp1a_trial_0_colour1_distractors1_r.png,r,3,,,,0,1,1,0,,,,,,,,,,,,,,,,,,,,,,,,,,,,,,,,,,,,,,,,,,,,,,,206.8770773220458,None,2,2.0137338700005785,206.8770773220458,None,208.94444074400235,None,3,1,1.4188912010286003,208.94444074400235,None,210.3590138720465,None,,,,,,,,,,,,,,,,,,,,,,,,,,23,001,2023_Jan_23_1232,searchDisc5,2021.2.3,60.07629004890177,
Practice arrays/exp1a_trial_16_colour1_distractors4_l.png,l,1,,,,0,2,2,13,,,,,,,,,,,,,,,,,,,,,,,,,,,,,,,,,,,,,,,,,,,,,,,212.36109397100518,None,2,0.8471864879829809,212.36109397100518,None,213.2611592989997,None,1,1,0.9378501080209389,213.2611592989997,None,214.19240266800625,None,,,,,,,,,,,,,,,,,,,,,,,,,,23,001,2023_Jan_23_1232,searchDisc5,2021.2.3,60.07629004890177,
Practice arrays/exp1a_trial_12_colour3_distractors9_r.png,r,3,,,,0,3,3,5,,,,,,,,,,,,,,,,,,,,,,,,,,,,,,,,,,,,,,,,,,,,,,,216.19448780303355,None,2,2.3992841480067,216.19448780303355,None,218.64411565603223,None,3,1,0.7163452709792182,218.64411565603223,None,219.3592090830207,None,,,,,,,,,,,,,,,,,,,,,,,,,,23,001,2023_Jan_23_1232,searchDisc5,2021.2.3,60.07629004890177,
Practice arrays/exp1a_trial_17_colour1_distractors9_l.png,l,1,,,,0,4,4,7,,,,,,,,,,,,,,,,,,,,,,,,,,,,,,,,,,,,,,,,,,,,,,,221.35888196504675,None,2,0.8833017720025964,221.35888196504675,None,222.29208378499607,None,1,1,0.4639930159901269,222.29208378499607,None,222.7593228960177,None,,,,,,,,,,,,,,,,,,,,,,,,,,23,001,2023_Jan_23_1232,searchDisc5,2021.2.3,60.07629004890177,
Practice arrays/exp1a_trial_10_colour3_distractors1_r.png,r,3,,,,0,5,5,4,,,,,,,,,,,,,,,,,,,,,,,,,,,,,,,,,,,,,,,,,,,,,,,224.76100197201595,None,2,0.5638887569657527,224.76100197201595,None,225.37617355800467,None,3,1,0.5065746489563026,225.37617355800467,None,225.87603434204357,None,,,,,,,,,,,,,,,,,,,,,,,,,,23,001,2023_Jan_23_1232,searchDisc5,2021.2.3,60.07629004890177,
Practice arrays/exp1a_trial_14_colour3_distractors31_r.png,r,3,,,,0,6,6,6,,,,,,,,,,,,,,,,,,,,,,,,,,,,,,,,,,,,,,,,,,,,,,,227.87772117904387,None,2,0.3656734859687276,227.87772117904387,None,228.29578813904664,None,3,1,0.48172117001377046,228.29578813904664,None,228.7762742729974,None,,,,,,,,,,,,,,,,,,,,,,,,,,23,001,2023_Jan_23_1232,searchDisc5,2021.2.3,60.07629004890177,
Practice arrays/exp1a_trial_27_colour3_distractors9_l.png,l,1,,,,0,7,7,12,,,,,,,,,,,,,,,,,,,,,,,,,,,,,,,,,,,,,,,,,,,,,,,230.77762528700987,None,2,0.7803858799743466,230.77762528700987,None,231.60949882405112,None,3,0,0.4393433009972796,231.60949882405112,None,232.04226991801988,None,,,,,,,,,,,,,,,,,,,,,,,,,,23,001,2023_Jan_23_1232,searchDisc5,2021.2.3,60.07629004890177,
Practice arrays/exp1a_trial_23_colour2_distractors19_l.png,l,1,,,,0,8,8,10,,,,,,,,,,,,,,,,,,,,,,,,,,,,,,,,,,,,,,,,,,,,,,,234.044628563046,None,2,0.313670948962681,234.044628563046,None,234.41156754101394,None,1,1,0.7186641120351851,234.41156754101394,None,235.12633552402258,None,,,,,,,,,,,,,,,,,,,,,,,,,,23,001,2023_Jan_23_1232,searchDisc5,2021.2.3,60.07629004890177,
Practice arrays/exp1a_trial_21_colour2_distractors4_l.png,l,1,,,,0,9,9,9,,,,,,,,,,,,,,,,,,,,,,,,,,,,,,,,,,,,,,,,,,,,,,,237.12793884403072,None,2,0.5323764380300418,237.12793884403072,None,237.70932898204774,None,1,1,0.6181329709943384,237.70932898204774,None,238.3263496980071,None,,,,,,,,,,,,,,,,,,,,,,,,,,23,001,2023_Jan_23_1232,searchDisc5,2021.2.3,60.07629004890177,
Practice arrays/exp1a_trial_1_colour1_distractors4_r.png,r,3,,,,0,10,10,1,,,,,,,,,,,,,,,,,,,,,,,,,,,,,,,,,,,,,,,,,,,,,,,240.3283725710353,None,2,1.047202278045006,240.3283725710353,None,241.4286183580407,None,1,0,0.6404692429932766,241.4286183580407,None,242.0597115260316,None,,,,,,,,,,,,,,,,,,,,,,,,,,23,001,2023_Jan_23_1232,searchDisc5,2021.2.3,60.07629004890177,
Practice arrays/exp1a_trial_31_colour0_distractors0_l.png,l,1,,,,0,11,11,15,,,,,,,,,,,,,,,,,,,,,,,,,,,,,,,,,,,,,,,,,,,,,,,244.06137468502857,None,2,0.29847214301116765,244.06137468502857,None,244.41197241400369,None,1,1,0.5393247510073707,244.41197241400369,None,244.94345105002867,None,,,,,,,,,,,,,,,,,,,,,,,,,,23,001,2023_Jan_23_1232,searchDisc5,2021.2.3,60.07629004890177,
Practice arrays/exp1a_trial_7_colour2_distractors9_r.png,r,3,,,,0,12,12,2,,,,,,,,,,,,,,,,,,,,,,,,,,,,,,,,,,,,,,,,,,,,,,,246.94530925201252,None,2,0.3660371970036067,246.94530925201252,None,247.36242283100728,None,3,1,0.5860993579844944,247.36242283100728,None,247.9432685910142,None,,,,,,,,,,,,,,,,,,,,,,,,,,23,001,2023_Jan_23_1232,searchDisc5,2021.2.3,60.07629004890177,
Practice arrays/exp1a_trial_25_colour3_distractors1_l.png,l,1,,,,0,13,13,11,,,,,,,,,,,,,,,,,,,,,,,,,,,,,,,,,,,,,,,,,,,,,,,249.94483357301215,None,2,0.38373607699759305,249.94483357301215,None,250.37609883100959,None,1,1,0.670222522050608,250.37609883100959,None,251.04333670000779,None,,,,,,,,,,,,,,,,,,,,,,,,,,23,001,2023_Jan_23_1232,searchDisc5,2021.2.3,60.07629004890177,
Practice arrays/exp1a_trial_30_colour0_distractors0_r.png,r,3,,,,0,14,14,14,,,,,,,,,,,,,,,,,,,,,,,,,,,,,,,,,,,,,,,,,,,,,,,253.04561723402003,None,2,0.4138714749715291,253.04561723402003,None,253.50953855004627,None,3,1,0.47327082499396056,253.50953855004627,None,253.97668395802611,None,,,,,,,,,,,,,,,,,,,,,,,,,,23,001,2023_Jan_23_1232,searchDisc5,2021.2.3,60.07629004890177,
Practice arrays/exp1a_trial_8_colour2_distractors19_r.png,r,3,,,,0,15,15,3,,,,,,,,,,,,,,,,,,,,,,,,,,,,,,,,,,,,,,,,,,,,,,,255.97835425904486,None,2,0.29712291102623567,255.97835425904486,None,256.3285307630431,None,3,1,0.602534340985585,256.3285307630431,None,256.92678388999775,None,,,,,,,,,,,,,,,,,,,,,,,,,,23,001,2023_Jan_23_1232,searchDisc5,2021.2.3,60.07629004890177,
,,,,,,,,,,,,,,,,,,,,,,,,,,,,,,,,,,,,,,,,,,,,,,,,,,,,,,,,,,,,,,,,,,,,,,,259.01225247205,None,2,6.9503034870140254,259.99365418299567,None,,,,,,,,,,,,,,,,,,,,23,001,2023_Jan_23_1232,searchDisc5,2021.2.3,60.07629004890177,
images/exp1b_trial_80_colour1_distractors4_l.png,l,1,1,4,1,,,,,0,0,0,0,,,,,,,,,,,,,,,,,,,,,,,,,,,,,,,,,,,,,,,,,,,273.2785713089979,None,2,0.6770763330277987,273.2785713089979,None,,,,,,,,,,,,,,,,267.5292158109951,None,2,3.767522733018268,269.5124114820501,None,274.0163908350514,None,1,1,0.7348530300077982,274.0163908350514,None,274.7609420562163,None,None,None,None,,23,001,2023_Jan_23_1232,searchDisc5,2021.2.3,60.07629004890177,
images/exp1b_trial_219_colour3_distractors9_l.png,l,1,3,9,1,,,,,0,1,1,1,,,,,,,,,,,,,,,,,,,,,,,,,,,,,,,,,,,,,,,,,,,274.776754171995,None,2,1.141851753985975,274.776754171995,None,,,,,,,,,,,,,,,,None,None,None,,None,None,275.96244587702677,None,1,1,0.9648937070160173,275.96244587702677,None,276.92696784859874,None,None,None,None,,23,001,2023_Jan_23_1232,searchDisc5,2021.2.3,60.07629004890177,
images/exp1b_trial_41_colour2_distractors31_r.png,r,3,2,31,1,,,,,0,2,2,2,,,,,,,,,,,,,,,,,,,,,,,,,,,,,,,,,,,,,,,,,,,276.9436507320497,None,2,1.0697995409718715,276.9436507320497,None,,,,,,,,,,,,,,,,None,None,None,,None,None,278.0602010160219,None,3,1,2.2709106410038657,278.0602010160219,None,280.32756241560566,None,None,None,None,,23,001,2023_Jan_23_1232,searchDisc5,2021.2.3,60.07629004890177,
images/exp1b_trial_67_colour1_distractors19_r.png,r,3,1,19,1,,,,,0,3,3,3,,,,,,,,,,,,,,,,,,,,,,,,,,,,,,,,,,,,,,,,,,,280.3434947220376,None,2,1.7382425920222886,280.3434947220376,None,,,,,,,,,,,,,,,,None,None,None,,None,None,282.1275955940364,None,3,1,0.6705016099731438,282.1275955940364,None,282.7943737126014,None,None,None,None,,23,001,2023_Jan_23_1232,searchDisc5,2021.2.3,60.07629004890177,
images/exp1b_trial_79_colour1_distractors1_l.png,l,1,1,1,1,,,,,0,4,4,4,,,,,,,,,,,,,,,,,,,,,,,,,,,,,,,,,,,,,,,,,,,282.81027404003544,None,2,1.0537594340275973,282.81027404003544,None,,,,,,,,,,,,,,,,None,None,None,,None,None,283.9106106880354,None,1,1,0.6730396370403469,283.9106106880354,None,284.57764066963574,None,None,None,None,,23,001,2023_Jan_23_1232,searchDisc5,2021.2.3,60.07629004890177,
images/exp1b_trial_239_colour1_distractors1_l.png,l,1,1,1,1,,,,,0,5,5,5,,,,,,,,,,,,,,,,,,,,,,,,,,,,,,,,,,,,,,,,,,,284.5942247310304,None,2,0.8713868979830295,284.5942247310304,None,,,,,,,,,,,,,,,,None,None,None,,None,None,285.5109445670387,None,1,1,0.6734763169661164,285.5109445670387,None,286.1778683706478,None,None,None,None,,23,001,2023_Jan_23_1232,searchDisc5,2021.2.3,60.07629004890177,
images/exp1b_trial_16_colour1_distractors4_l.png,l,1,1,4,1,,,,,0,6,6,6,,,,,,,,,,,,,,,,,,,,,,,,,,,,,,,,,,,,,,,,,,,286.19598035200033,None,2,0.5558929489925504,286.19598035200033,None,,,,,,,,,,,,,,,,None,None,None,,None,None,286.7940312450519,None,1,1,0.6226164000108838,286.7940312450519,None,287.4112072436081,None,None,None,None,,23,001,2023_Jan_23_1232,searchDisc5,2021.2.3,60.07629004890177,
images/exp1b_trial_48_colour1_distractors4_l.png,l,1,1,4,1,,,,,0,7,7,7,,,,,,,,,,,,,,,,,,,,,,,,,,,,,,,,,,,,,,,,,,,287.42951711203204,None,2,0.5869721609633416,287.42951711203204,None,,,,,,,,,,,,,,,,None,None,None,,None,None,288.06092020199867,None,1,1,0.937506080023013,288.06092020199867,None,288.99448968864164,None,None,None,None,,23,001,2023_Jan_23_1232,searchDisc5,2021.2.3,60.07629004890177,
images/exp1b_trial_88_colour2_distractors31_l.png,l,1,2,31,1,,,,,0,8,8,8,,,,,,,,,,,,,,,,,,,,,,,,,,,,,,,,,,,,,,,,,,,289.01291713200044,None,2,0.45466111303539947,289.01291713200044,None,,,,,,,,,,,,,,,,None,None,None,,None,None,289.51117455301574,None,1,1,0.854818037012592,289.51117455301574,None,290.36135272965186,None,None,None,None,,23,001,2023_Jan_23_1232,searchDisc5,2021.2.3,60.07629004890177,
images/exp1b_trial_66_colour1_distractors9_r.png,r,3,1,9,1,,,,,0,9,9,9,,,,,,,,,,,,,,,,,,,,,,,,,,,,,,,,,,,,,,,,,,,290.3774029640481,None,2,0.43970858701504767,290.3774029640481,None,,,,,,,,,,,,,,,,None,None,None,,None,None,290.86308799899416,None,3,1,0.5367346840212122,290.86308799899416,None,291.39453548063176,None,None,None,None,,23,001,2023_Jan_23_1232,searchDisc5,2021.2.3,60.07629004890177,
images/exp1b_trial_302_colour3_distractors31_r.png,r,3,3,31,1,,,,,0,10,10,10,,,,,,,,,,,,,,,,,,,,,,,,,,,,,,,,,,,,,,,,,,,291.410743319022,None,2,0.4565266119898297,291.410743319022,None,,,,,,,,,,,,,,,,None,None,None,,None,None,291.91322033002507,None,3,1,1.584960690990556,291.91322033002507,None,293.4947043146065,None,None,None,None,,23,001,2023_Jan_23_1232,searchDisc5,2021.2.3,60.07629004890177,
images/exp1b_trial_40_colour2_distractors19_r.png,r,3,2,19,1,,,,,0,11,11,11,,,,,,,,,,,,,,,,,,,,,,,,,,,,,,,,,,,,,,,,,,,293.5111142010428,None,2,0.9564930410124362,293.5111142010428,None,,,,,,,,,,,,,,,,None,None,None,,None,None,294.5105365610216,None,3,1,0.7030613119713962,294.5105365610216,None,295.2114120626182,None,None,None,None,,23,001,2023_Jan_23_1232,searchDisc5,2021.2.3,60.07629004890177,
images/exp1b_trial_314_colour3_distractors4_l.png,l,1,3,4,1,,,,,0,12,12,12,,,,,,,,,,,,,,,,,,,,,,,,,,,,,,,,,,,,,,,,,,,295.2293447640259,None,2,0.3898550779558718,295.2293447640259,None,,,,,,,,,,,,,,,,None,None,None,,None,None,295.6628757599974,None,1,1,1.1870138669619337,295.6628757599974,None,296.8446795766184,None,None,None,None,,23,001,2023_Jan_23_1232,searchDisc5,2021.2.3,60.07629004890177,
images/exp1b_trial_203_colour3_distractors4_r.png,r,3,3,4,1,,,,,0,13,13,13,,,,,,,,,,,,,,,,,,,,,,,,,,,,,,,,,,,,,,,,,,,296.86335836100625,None,2,0.3713668070267886,296.86335836100625,None,,,,,,,,,,,,,,,,None,None,None,,None,None,297.27951727999607,None,3,1,0.8891361990245059,297.27951727999607,None,298.16153208764155,None,None,None,None,,23,001,2023_Jan_23_1232,searchDisc5,2021.2.3,60.07629004890177,
images/exp1b_trial_313_colour3_distractors1_l.png,l,1,3,1,1,,,,,0,14,14,14,,,,,,,,,,,,,,,,,,,,,,,,,,,,,,,,,,,,,,,,,,,298.1773966299952,None,2,0.35444456402910873,298.1773966299952,None,,,,,,,,,,,,,,,,None,None,None,,None,None,298.577970192011,None,1,1,0.5733038579928689,298.577970192011,None,299.14482688762365,None,None,None,None,,23,001,2023_Jan_23_1232,searchDisc5,2021.2.3,60.07629004890177,
images/exp1b_trial_95_colour0_distractors0_l.png,l,1,0,0,1,,,,,0,15,15,15,,,,,,,,,,,,,,,,,,,,,,,,,,,,,,,,,,,,,,,,,,,299.1606560330256,None,2,0.35456473304657266,299.1606560330256,None,,,,,,,,,,,,,,,,None,None,None,,None,None,299.5608619590057,None,1,1,0.45649675198365003,299.5608619590057,None,300.0114917066356,None,None,None,None,,23,001,2023_Jan_23_1232,searchDisc5,2021.2.3,60.07629004890177,
images/exp1b_trial_270_colour3_distractors31_r.png,r,3,3,31,1,,,,,0,16,16,16,,,,,,,,,,,,,,,,,,,,,,,,,,,,,,,,,,,,,,,,,,,300.0279398559942,None,2,0.35613019397715107,300.0279398559942,None,,,,,,,,,,,,,,,,None,None,None,,None,None,300.4301027000183,None,3,1,0.8182059690007009,300.4301027000183,None,301.2450107696175,None,None,None,None,,23,001,2023_Jan_23_1232,searchDisc5,2021.2.3,60.07629004890177,
images/exp1b_trial_197_colour2_distractors1_r.png,r,3,2,1,1,,,,,0,17,17,17,,,,,,,,,,,,,,,,,,,,,,,,,,,,,,,,,,,,,,,,,,,301.26116252399515,None,2,0.3542998199700378,301.26116252399515,None,,,,,,,,,,,,,,,,None,None,None,,None,None,301.6614898550324,None,3,1,0.6748415679903701,301.6614898550324,None,302.3283673196391,None,None,None,None,,23,001,2023_Jan_23_1232,searchDisc5,2021.2.3,60.07629004890177,
images/exp1b_trial_221_colour3_distractors31_l.png,l,1,3,31,1,,,,,0,18,18,18,,,,,,,,,,,,,,,,,,,,,,,,,,,,,,,,,,,,,,,,,,,302.34399658901384,None,2,0.3202116949832998,302.34399658901384,None,,,,,,,,,,,,,,,,None,None,None,,None,None,302.7114852020168,None,1,1,1.0866711309645325,302.7114852020168,None,303.7950992316299,None,None,None,None,,23,001,2023_Jan_23_1232,searchDisc5,2021.2.3,60.07629004890177,
images/exp1b_trial_8_colour2_distractors19_r.png,r,3,2,19,1,,,,,0,19,19,19,,,,,,,,,,,,,,,,,,,,,,,,,,,,,,,,,,,,,,,,,,,303.81120842701057,None,2,0.35443471098551527,303.81120842701057,None,,,,,,,,,,,,,,,,None,None,None,,None,None,304.21392597904196,None,3,1,0.5881510060280561,304.21392597904196,None,304.7948397206317,None,None,None,None,,23,001,2023_Jan_23_1232,searchDisc5,2021.2.3,60.07629004890177,
images/exp1b_trial_253_colour3_distractors31_l.png,l,1,3,31,1,,,,,0,20,20,20,,,,,,,,,,,,,,,,,,,,,,,,,,,,,,,,,,,,,,,,,,,304.81124704005197,None,2,0.3717808419605717,304.81124704005197,None,,,,,,,,,,,,,,,,None,None,None,,None,None,305.2307165330276,None,1,1,1.703191559005063,305.2307165330276,None,306.92830939664856,None,None,None,None,,23,001,2023_Jan_23_1232,searchDisc5,2021.2.3,60.07629004890177,
images/exp1b_trial_279_colour2_distractors19_l.png,l,1,2,19,1,,,,,0,21,21,21,,,,,,,,,,,,,,,,,,,,,,,,,,,,,,,,,,,,,,,,,,,306.94460022001294,None,2,0.9375312000047415,306.94460022001294,None,,,,,,,,,,,,,,,,None,None,None,,None,None,307.93043903802754,None,1,1,1.2700872090063058,307.93043903802754,None,309.1951464756101,None,None,None,None,,23,001,2023_Jan_23_1232,searchDisc5,2021.2.3,60.07629004890177,
images/exp1b_trial_127_colour0_distractors0_l.png,l,1,0,0,1,,,,,0,22,22,22,,,,,,,,,,,,,,,,,,,,,,,,,,,,,,,,,,,,,,,,,,,309.21321433904814,None,2,0.3899211089592427,309.21321433904814,None,,,,,,,,,,,,,,,,None,None,None,,None,None,309.6471010509995,None,1,1,0.5883049250114709,309.6471010509995,None,310.2285171845986,None,None,None,None,,23,001,2023_Jan_23_1232,searchDisc5,2021.2.3,60.07629004890177,
images/exp1b_trial_96_colour1_distractors1_r.png,r,3,1,1,1,,,,,0,23,23,23,,,,,,,,,,,,,,,,,,,,,,,,,,,,,,,,,,,,,,,,,,,310.2448392920196,None,2,0.28765328298322856,310.2448392920196,None,,,,,,,,,,,,,,,,None,None,None,,None,None,310.57795549102593,None,3,1,0.5400896249921061,310.57795549102593,None,311.1117569196329,None,None,None,None,,23,001,2023_Jan_23_1232,searchDisc5,2021.2.3,60.07629004890177,
images/exp1b_trial_4_colour1_distractors31_r.png,r,3,1,31,1,,,,,0,24,24,24,,,,,,,,,,,,,,,,,,,,,,,,,,,,,,,,,,,,,,,,,,,311.12772666901583,None,2,0.3212503149989061,311.12772666901583,None,,,,,,,,,,,,,,,,None,None,None,,None,None,311.49519222200615,None,3,1,0.7860537949600257,311.49519222200615,None,312.2785076196131,None,None,None,None,,23,001,2023_Jan_23_1232,searchDisc5,2021.2.3,60.07629004890177,
images/exp1b_trial_282_colour3_distractors4_l.png,l,1,3,4,1,,,,,0,25,25,25,,,,,,,,,,,,,,,,,,,,,,,,,,,,,,,,,,,,,,,,,,,312.29689268104266,None,2,0.3711006380035542,312.29689268104266,None,,,,,,,,,,,,,,,,None,None,None,,None,None,312.7140106970328,None,1,1,0.6224995609954931,312.7140106970328,None,313.3284123005986,None,None,None,None,,23,001,2023_Jan_23_1232,searchDisc5,2021.2.3,60.07629004890177,
images/exp1b_trial_312_colour2_distractors31_l.png,l,1,2,31,1,,,,,0,26,26,26,,,,,,,,,,,,,,,,,,,,,,,,,,,,,,,,,,,,,,,,,,,313.34428916999605,None,2,0.2743962910026312,313.34428916999605,None,,,,,,,,,,,,,,,,None,None,None,,None,None,313.6619447750272,None,1,1,0.7508170259534381,313.6619447750272,None,314.41204142161297,None,None,None,None,,23,001,2023_Jan_23_1232,searchDisc5,2021.2.3,60.07629004890177,
images/exp1b_trial_110_colour3_distractors31_r.png,r,3,3,31,1,,,,,0,27,27,27,,,,,,,,,,,,,,,,,,,,,,,,,,,,,,,,,,,,,,,,,,,314.4310078910203,None,2,0.5386975790024735,314.4310078910203,None,,,,,,,,,,,,,,,,None,None,None,,None,None,315.01362561102724,None,3,1,0.6189904480124824,315.01362561102724,None,315.62883412964294,None,None,None,None,,23,001,2023_Jan_23_1232,searchDisc5,2021.2.3,60.07629004890177,
images/exp1b_trial_68_colour1_distractors31_r.png,r,3,1,31,1,,,,,0,28,28,28,,,,,,,,,,,,,,,,,,,,,,,,,,,,,,,,,,,,,,,,,,,315.6463374540326,None,2,0.3865562219871208,315.6463374540326,None,,,,,,,,,,,,,,,,None,None,None,,None,None,316.07931518700207,None,3,1,0.853371462028008,316.07931518700207,None,316.9286974026298,None,None,None,None,,23,001,2023_Jan_23_1232,searchDisc5,2021.2.3,60.07629004890177,
images/exp1b_trial_49_colour1_distractors9_l.png,l,1,1,9,1,,,,,0,29,29,29,,,,,,,,,,,,,,,,,,,,,,,,,,,,,,,,,,,,,,,,,,,316.94517970702145,None,2,0.3546783920028247,316.94517970702145,None,,,,,,,,,,,,,,,,None,None,None,,None,None,317.348121061048,None,1,1,0.5885496329865418,317.348121061048,None,317.92863692760585,None,None,None,None,,23,001,2023_Jan_23_1232,searchDisc5,2021.2.3,60.07629004890177,
images/exp1b_trial_211_colour1_distractors31_l.png,l,1,1,31,1,,,,,0,30,30,30,,,,,,,,,,,,,,,,,,,,,,,,,,,,,,,,,,,,,,,,,,,317.9457082209992,None,2,0.2889141609775834,317.9457082209992,None,,,,,,,,,,,,,,,,None,None,None,,None,None,318.27876615105197,None,1,1,0.7521334270131774,318.27876615105197,None,319.0286529906269,None,None,None,None,,23,001,2023_Jan_23_1232,searchDisc5,2021.2.3,60.07629004890177,
images/exp1b_trial_218_colour3_distractors4_l.png,l,1,3,4,1,,,,,0,31,31,31,,,,,,,,,,,,,,,,,,,,,,,,,,,,,,,,,,,,,,,,,,,319.045233412995,None,2,0.7068688849685714,319.045233412995,None,,,,,,,,,,,,,,,,None,None,None,,None,None,319.79547663603444,None,1,1,0.7725690910010599,319.79547663603444,None,320.56213271860616,None,None,None,None,,23,001,2023_Jan_23_1232,searchDisc5,2021.2.3,60.07629004890177,
images/exp1b_trial_268_colour3_distractors9_r.png,r,3,3,9,1,,,,,0,32,32,32,,,,,,,,,,,,,,,,,,,,,,,,,,,,,,,,,,,,,,,,,,,320.5792980910046,None,2,0.3689684720011428,320.5792980910046,None,,,,,,,,,,,,,,,,None,None,None,,None,None,320.9976016750443,None,3,1,0.6551597630023025,320.9976016750443,None,321.6455090226198,None,None,None,None,,23,001,2023_Jan_23_1232,searchDisc5,2021.2.3,60.07629004890177,
images/exp1b_trial_196_colour1_distractors31_r.png,r,3,1,31,1,,,,,0,33,33,33,,,,,,,,,,,,,,,,,,,,,,,,,,,,,,,,,,,,,,,,,,,321.66250083601335,None,2,0.2887900819769129,321.66250083601335,None,,,,,,,,,,,,,,,,None,None,None,,None,None,321.9957130840048,None,3,1,0.7850918769836426,321.9957130840048,None,322.77893262063736,None,None,None,None,,23,001,2023_Jan_23_1232,searchDisc5,2021.2.3,60.07629004890177,
images/exp1b_trial_118_colour2_distractors9_l.png,l,1,2,9,1,,,,,0,34,34,34,,,,,,,,,,,,,,,,,,,,,,,,,,,,,,,,,,,,,,,,,,,322.79536405002,None,2,0.29077340802177787,322.79536405002,None,,,,,,,,,,,,,,,,None,None,None,,None,None,323.1297675370006,None,1,1,0.671143282961566,323.1297675370006,None,323.79548140660046,None,None,None,None,,23,001,2023_Jan_23_1232,searchDisc5,2021.2.3,60.07629004890177,
images/exp1b_trial_141_colour3_distractors19_r.png,r,3,3,19,1,,,,,0,35,35,35,,,,,,,,,,,,,,,,,,,,,,,,,,,,,,,,,,,,,,,,,,,323.8125158059993,None,2,0.302699779975228,323.8125158059993,None,,,,,,,,,,,,,,,,None,None,None,,None,None,324.16224198404234,None,3,1,0.586661679961253,324.16224198404234,None,324.7455354206439,None,None,None,None,,23,001,2023_Jan_23_1232,searchDisc5,2021.2.3,60.07629004890177,
images/exp1b_trial_26_colour3_distractors4_l.png,l,1,3,4,1,,,,,0,36,36,36,,,,,,,,,,,,,,,,,,,,,,,,,,,,,,,,,,,,,,,,,,,324.76257123501273,None,2,0.3243137199897319,324.76257123501273,None,,,,,,,,,,,,,,,,None,None,None,,None,None,325.13135750201764,None,1,1,1.102672402979806,325.13135750201764,None,326.2289545826323,None,None,None,None,,23,001,2023_Jan_23_1232,searchDisc5,2021.2.3,60.07629004890177,
images/exp1b_trial_294_colour2_distractors4_r.png,r,3,2,4,1,,,,,0,37,37,37,,,,,,,,,,,,,,,,,,,,,,,,,,,,,,,,,,,,,,,,,,,326.24830705003114,None,2,0.42172237898921594,326.24830705003114,None,,,,,,,,,,,,,,,,None,None,None,,None,None,326.7132071950473,None,3,1,0.7218626359826885,326.7132071950473,None,327.42906731662225,None,None,None,None,,23,001,2023_Jan_23_1232,searchDisc5,2021.2.3,60.07629004890177,
images/exp1b_trial_303_colour1_distractors1_l.png,l,1,1,1,1,,,,,0,38,38,38,,,,,,,,,,,,,,,,,,,,,,,,,,,,,,,,,,,,,,,,,,,327.4462339919992,None,2,0.30445793498074636,327.4462339919992,None,,,,,,,,,,,,,,,,None,None,None,,None,None,327.79540020402055,None,1,1,0.7736381710274145,327.79540020402055,None,328.5624214626558,None,None,None,None,,23,001,2023_Jan_23_1232,searchDisc5,2021.2.3,60.07629004890177,
images/exp1b_trial_204_colour3_distractors9_r.png,r,3,3,9,1,,,,,0,39,39,39,,,,,,,,,,,,,,,,,,,,,,,,,,,,,,,,,,,,,,,,,,,328.5785565400147,None,2,0.28774799400707707,328.5785565400147,None,,,,,,,,,,,,,,,,None,None,None,,None,None,328.91236436303006,None,3,1,0.7048249910003506,328.91236436303006,None,329.61236004063977,None,None,None,None,,23,001,2023_Jan_23_1232,searchDisc5,2021.2.3,60.07629004890177,
images/exp1b_trial_125_colour3_distractors31_l.png,l,1,3,31,1,,,,,0,40,40,40,,,,,,,,,,,,,,,,,,,,,,,,,,,,,,,,,,,,,,,,,,,329.628785086039,None,2,0.30557487497571856,329.628785086039,None,,,,,,,,,,,,,,,,None,None,None,,None,None,329.97856842301553,None,1,1,1.5690405379864387,329.97856842301553,None,331.5457772336493,None,None,None,None,,23,001,2023_Jan_23_1232,searchDisc5,2021.2.3,60.07629004890177,
images/exp1b_trial_133_colour2_distractors1_r.png,r,3,2,1,1,,,,,0,41,41,41,,,,,,,,,,,,,,,,,,,,,,,,,,,,,,,,,,,,,,,,,,,331.5627136080293,None,2,0.2546952319680713,331.5627136080293,None,,,,,,,,,,,,,,,,None,None,None,,None,None,331.8632474570186,None,3,1,0.6077243579784408,331.8632474570186,None,332.4645307636063,None,None,None,None,,23,001,2023_Jan_23_1232,searchDisc5,2021.2.3,60.07629004890177,
images/exp1b_trial_159_colour0_distractors0_l.png,l,1,0,0,1,,,,,0,42,42,42,,,,,,,,,,,,,,,,,,,,,,,,,,,,,,,,,,,,,,,,,,,332.47981892101234,None,2,0.2676828849944286,332.47981892101234,None,,,,,,,,,,,,,,,,None,None,None,,None,None,332.7987477860297,None,1,1,0.5557764890254475,332.7987477860297,None,333.34552168163356,None,None,None,None,,23,001,2023_Jan_23_1232,searchDisc5,2021.2.3,60.07629004890177,
images/exp1b_trial_276_colour2_distractors1_l.png,l,1,2,1,1,,,,,0,43,43,43,,,,,,,,,,,,,,,,,,,,,,,,,,,,,,,,,,,,,,,,,,,333.3622396940482,None,2,0.20706696005072445,333.3622396940482,None,,,,,,,,,,,,,,,,None,None,None,,None,None,333.61453018401517,None,1,1,0.6051041139871813,333.61453018401517,None,334.21255335565075,None,None,None,None,,23,001,2023_Jan_23_1232,searchDisc5,2021.2.3,60.07629004890177,
images/exp1b_trial_265_colour2_distractors31_r.png,r,3,2,31,1,,,,,0,44,44,44,,,,,,,,,,,,,,,,,,,,,,,,,,,,,,,,,,,,,,,,,,,334.230250859051,None,2,0.13742271601222456,334.230250859051,None,,,,,,,,,,,,,,,,None,None,None,,None,None,334.41539029905107,None,3,1,1.23770161496941,334.41539029905107,None,335.6459239816002,None,None,None,None,,23,001,2023_Jan_23_1232,searchDisc5,2021.2.3,60.07629004890177,
images/exp1b_trial_244_colour2_distractors1_l.png,l,1,2,1,1,,,,,0,45,45,45,,,,,,,,,,,,,,,,,,,,,,,,,,,,,,,,,,,,,,,,,,,335.66139207500964,None,2,0.240910092019476,335.66139207500964,None,,,,,,,,,,,,,,,,None,None,None,,None,None,335.947958993027,None,1,1,0.8065684129833244,335.947958993027,None,336.7469339946227,None,None,None,None,,23,001,2023_Jan_23_1232,searchDisc5,2021.2.3,60.07629004890177,
images/exp1b_trial_29_colour3_distractors31_l.png,l,1,3,31,1,,,,,0,46,46,46,,,,,,,,,,,,,,,,,,,,,,,,,,,,,,,,,,,,,,,,,,,336.76310683303745,None,2,0.13573199301026762,336.76310683303745,None,,,,,,,,,,,,,,,,None,None,None,,None,None,336.9466542630107,None,1,1,1.2191079159965739,336.9466542630107,None,338.162579243636,None,None,None,None,,23,001,2023_Jan_23_1232,searchDisc5,2021.2.3,60.07629004890177,
images/exp1b_trial_255_colour0_distractors0_l.png,l,1,0,0,1,,,,,0,47,47,47,,,,,,,,,,,,,,,,,,,,,,,,,,,,,,,,,,,,,,,,,,,338.179497678997,None,2,0.29007954499684274,338.179497678997,None,,,,,,,,,,,,,,,,None,None,None,,None,None,338.51305974600837,None,1,1,0.638185149000492,338.51305974600837,None,339.1459808466432,None,None,None,None,,23,001,2023_Jan_23_1232,searchDisc5,2021.2.3,60.07629004890177,
images/exp1b_trial_5_colour2_distractors1_r.png,r,3,2,1,1,,,,,0,48,48,48,,,,,,,,,,,,,,,,,,,,,,,,,,,,,,,,,,,,,,,,,,,339.16237665200606,None,2,0.3048541009775363,339.16237665200606,None,,,,,,,,,,,,,,,,None,None,None,,None,None,339.5127942810068,None,3,1,0.6891352199600078,339.5127942810068,None,340.19599002662,None,None,None,None,,23,001,2023_Jan_23_1232,searchDisc5,2021.2.3,60.07629004890177,
images/exp1b_trial_185_colour3_distractors1_l.png,l,1,3,1,1,,,,,0,49,49,49,,,,,,,,,,,,,,,,,,,,,,,,,,,,,,,,,,,,,,,,,,,340.2130828680238,None,2,0.45461224898463115,340.2130828680238,None,,,,,,,,,,,,,,,,None,None,None,,None,None,340.7129890390206,None,1,1,0.7901205400121398,340.7129890390206,None,341.49600678564167,None,None,None,None,,23,001,2023_Jan_23_1232,searchDisc5,2021.2.3,60.07629004890177,
images/exp1b_trial_202_colour3_distractors1_r.png,r,3,3,1,1,,,,,0,50,50,50,,,,,,,,,,,,,,,,,,,,,,,,,,,,,,,,,,,,,,,,,,,341.5130797850434,None,2,0.24088926997501403,341.5130797850434,None,,,,,,,,,,,,,,,,None,None,None,,None,None,341.7983203890035,None,3,1,0.7202815409982577,341.7983203890035,None,342.5124890766281,None,None,None,None,,23,001,2023_Jan_23_1232,searchDisc5,2021.2.3,60.07629004890177,
images/exp1b_trial_9_colour2_distractors31_r.png,r,3,2,31,1,,,,,0,51,51,51,,,,,,,,,,,,,,,,,,,,,,,,,,,,,,,,,,,,,,,,,,,342.5293407700374,None,2,0.30489553295774385,342.5293407700374,None,,,,,,,,,,,,,,,,None,None,None,,None,None,342.8804038410308,None,3,1,1.7031660119537264,342.8804038410308,None,344.579440035607,None,None,None,None,,23,001,2023_Jan_23_1232,searchDisc5,2021.2.3,60.07629004890177,
images/exp1b_trial_28_colour3_distractors19_l.png,l,1,3,19,1,,,,,0,52,52,52,,,,,,,,,,,,,,,,,,,,,,,,,,,,,,,,,,,,,,,,,,,344.59533395804465,None,2,0.2893674799706787,344.59533395804465,None,,,,,,,,,,,,,,,,None,None,None,,None,None,344.93040034204023,None,1,1,0.6036372290109284,344.93040034204023,None,345.5290206826001,None,None,None,None,,23,001,2023_Jan_23_1232,searchDisc5,2021.2.3,60.07629004890177,
images/exp1b_trial_165_colour2_distractors1_r.png,r,3,2,1,1,,,,,0,53,53,53,,,,,,,,,,,,,,,,,,,,,,,,,,,,,,,,,,,,,,,,,,,345.545046069019,None,2,0.2876846499857493,345.545046069019,None,,,,,,,,,,,,,,,,None,None,None,,None,None,345.8798794350005,None,3,1,0.4889392589684576,345.8798794350005,None,346.362963641627,None,None,None,None,,23,001,2023_Jan_23_1232,searchDisc5,2021.2.3,60.07629004890177,
images/exp1b_trial_287_colour0_distractors0_l.png,l,1,0,0,1,,,,,0,54,54,54,,,,,,,,,,,,,,,,,,,,,,,,,,,,,,,,,,,,,,,,,,,346.38007321202895,None,2,0.3899573049857281,346.38007321202895,None,,,,,,,,,,,,,,,,None,None,None,,None,None,346.8151047330466,None,1,1,0.5391452990006655,346.8151047330466,None,347.3472942876222,None,None,None,None,,23,001,2023_Jan_23_1232,searchDisc5,2021.2.3,60.07629004890177,
images/exp1b_trial_12_colour3_distractors9_r.png,r,3,3,9,1,,,,,0,55,55,55,,,,,,,,,,,,,,,,,,,,,,,,,,,,,,,,,,,,,,,,,,,347.36267604801105,None,2,0.3036139199975878,347.36267604801105,None,,,,,,,,,,,,,,,,None,None,None,,None,None,347.71350682200864,None,3,1,0.9388516200124286,347.71350682200864,None,348.6473026366264,None,None,None,None,,23,001,2023_Jan_23_1232,searchDisc5,2021.2.3,60.07629004890177,
images/exp1b_trial_288_colour1_distractors1_r.png,r,3,1,1,1,,,,,0,56,56,56,,,,,,,,,,,,,,,,,,,,,,,,,,,,,,,,,,,,,,,,,,,348.66269869200187,None,2,0.27128394099418074,348.66269869200187,None,,,,,,,,,,,,,,,,None,None,None,,None,None,348.9795411490486,None,3,1,0.572205058997497,348.9795411490486,None,349.5462206516357,None,None,None,None,,23,001,2023_Jan_23_1232,searchDisc5,2021.2.3,60.07629004890177,
images/exp1b_trial_157_colour3_distractors31_l.png,l,1,3,31,1,,,,,0,57,57,57,,,,,,,,,,,,,,,,,,,,,,,,,,,,,,,,,,,,,,,,,,,349.56330546102254,None,2,0.2889875670080073,349.56330546102254,None,,,,,,,,,,,,,,,,None,None,None,,None,None,349.89633322000736,None,1,1,0.7190635809674859,349.89633322000736,None,350.6130780506472,None,None,None,None,,23,001,2023_Jan_23_1232,searchDisc5,2021.2.3,60.07629004890177,
images/exp1b_trial_2_colour1_distractors9_r.png,r,3,1,9,1,,,,,0,58,58,58,,,,,,,,,,,,,,,,,,,,,,,,,,,,,,,,,,,,,,,,,,,350.63030238001375,None,2,0.2897392479935661,350.63030238001375,None,,,,,,,,,,,,,,,,None,None,None,,None,None,350.96407395700226,None,3,1,0.703045010974165,350.96407395700226,None,351.66299039263396,None,None,None,None,,23,001,2023_Jan_23_1232,searchDisc5,2021.2.3,60.07629004890177,
images/exp1b_trial_121_colour3_distractors1_l.png,l,1,3,1,1,,,,,0,59,59,59,,,,,,,,,,,,,,,,,,,,,,,,,,,,,,,,,,,,,,,,,,,351.68008304404793,None,2,0.2887077830382623,351.68008304404793,None,,,,,,,,,,,,,,,,None,None,None,,None,None,352.0128849520115,None,1,1,0.9919777549803257,352.0128849520115,None,352.9976137836173,None,None,None,None,,23,001,2023_Jan_23_1232,searchDisc5,2021.2.3,60.07629004890177,
images/exp1b_trial_111_colour1_distractors1_l.png,l,1,1,1,1,,,,,0,60,60,60,,,,,,,,,,,,,,,,,,,,,,,,,,,,,,,,,,,,,,,,,,,353.0157205320429,None,2,0.18560641998192295,353.0157205320429,None,,,,,,,,,,,,,,,,None,None,None,,None,None,353.2488324640435,None,1,1,0.655693489999976,353.2488324640435,None,353.8964065186272,None,None,None,None,,23,001,2023_Jan_23_1232,searchDisc5,2021.2.3,60.07629004890177,
images/exp1b_trial_138_colour3_distractors1_r.png,r,3,3,1,1,,,,,0,61,61,61,,,,,,,,,,,,,,,,,,,,,,,,,,,,,,,,,,,,,,,,,,,353.9134426190285,None,2,0.17139154096366838,353.9134426190285,None,,,,,,,,,,,,,,,,None,None,None,,None,None,354.131767110026,None,3,1,0.7740504869725555,354.131767110026,None,354.89741149560433,None,None,None,None,,23,001,2023_Jan_23_1232,searchDisc5,2021.2.3,60.07629004890177,
images/exp1b_trial_264_colour2_distractors19_r.png,r,3,2,19,1,,,,,0,62,62,62,,,,,,,,,,,,,,,,,,,,,,,,,,,,,,,,,,,,,,,,,,,354.9129030299955,None,2,0.27029377600410953,354.9129030299955,None,,,,,,,,,,,,,,,,None,None,None,,None,None,355.2305534360348,None,3,1,0.6710414059925824,355.2305534360348,None,355.89650688260446,None,None,None,None,,23,001,2023_Jan_23_1232,searchDisc5,2021.2.3,60.07629004890177,
images/exp1b_trial_263_colour2_distractors9_r.png,r,3,2,9,1,,,,,0,63,63,63,,,,,,,,,,,,,,,,,,,,,,,,,,,,,,,,,,,,,,,,,,,355.9128408160177,None,2,0.2572273220284842,355.9128408160177,None,,,,,,,,,,,,,,,,None,None,None,,None,None,356.21330433303956,None,3,1,0.7193531519733369,356.21330433303956,None,356.92969530760894,None,None,None,None,,23,001,2023_Jan_23_1232,searchDisc5,2021.2.3,60.07629004890177,
images/exp1b_trial_298_colour3_distractors1_r.png,r,3,3,1,1,,,,,0,64,64,64,,,,,,,,,,,,,,,,,,,,,,,,,,,,,,,,,,,,,,,,,,,356.94670258800033,None,2,0.25667845498537645,356.94670258800033,None,,,,,,,,,,,,,,,,None,None,None,,None,None,357.24674224300543,None,3,1,0.4056692629819736,357.24674224300543,None,357.6475082026271,None,None,None,None,,23,001,2023_Jan_23_1232,searchDisc5,2021.2.3,60.07629004890177,
images/exp1b_trial_122_colour3_distractors4_l.png,l,1,3,4,1,,,,,0,65,65,65,,,,,,,,,,,,,,,,,,,,,,,,,,,,,,,,,,,,,,,,,,,357.6646951940493,None,2,0.6217760050203651,357.6646951940493,None,,,,,,,,,,,,,,,,None,None,None,,None,None,358.32990628900006,None,1,1,0.6379602270317264,358.32990628900006,None,358.96314233161394,None,None,None,None,,23,001,2023_Jan_23_1232,searchDisc5,2021.2.3,60.07629004890177,
images/exp1b_trial_251_colour3_distractors9_l.png,l,1,3,9,1,,,,,0,66,66,66,,,,,,,,,,,,,,,,,,,,,,,,,,,,,,,,,,,,,,,,,,,358.9800929510384,None,2,0.30469178897328675,358.9800929510384,None,,,,,,,,,,,,,,,,None,None,None,,None,None,359.32996695901966,None,1,1,0.8224621139816009,359.32996695901966,None,360.1475248506002,None,None,None,None,,23,001,2023_Jan_23_1232,searchDisc5,2021.2.3,60.07629004890177,
images/exp1b_trial_19_colour1_distractors31_l.png,l,1,1,31,1,,,,,0,67,67,67,,,,,,,,,,,,,,,,,,,,,,,,,,,,,,,,,,,,,,,,,,,360.16283068299526,None,2,0.2232312519918196,360.16283068299526,None,,,,,,,,,,,,,,,,None,None,None,,None,None,360.4319438300445,None,1,1,0.6674972320324741,360.4319438300445,None,361.0965955096006,None,None,None,None,,23,001,2023_Jan_23_1232,searchDisc5,2021.2.3,60.07629004890177,
images/exp1b_trial_296_colour2_distractors19_r.png,r,3,2,19,1,,,,,0,68,68,68,,,,,,,,,,,,,,,,,,,,,,,,,,,,,,,,,,,,,,,,,,,361.1131622560206,None,2,0.2703493279987015,361.1131622560206,None,,,,,,,,,,,,,,,,None,None,None,,None,None,361.430765251047,None,3,1,0.6716509450343437,361.430765251047,None,362.0966830096266,None,None,None,None,,23,001,2023_Jan_23_1232,searchDisc5,2021.2.3,60.07629004890177,
images/exp1b_trial_275_colour1_distractors31_l.png,l,1,1,31,1,,,,,0,69,69,69,,,,,,,,,,,,,,,,,,,,,,,,,,,,,,,,,,,,,,,,,,,362.11283662205096,None,2,0.2887079200008884,362.11283662205096,None,,,,,,,,,,,,,,,,None,None,None,,None,None,362.44765614904463,None,1,1,1.2696155870216899,362.44765614904463,None,363.7144048446033,None,None,None,None,,23,001,2023_Jan_23_1232,searchDisc5,2021.2.3,60.07629004890177,
images/exp1b_trial_146_colour1_distractors19_l.png,l,1,1,19,1,,,,,0,70,70,70,,,,,,,,,,,,,,,,,,,,,,,,,,,,,,,,,,,,,,,,,,,363.7297565120389,None,2,0.17094765999354422,363.7297565120389,None,,,,,,,,,,,,,,,,None,None,None,,None,None,363.9496097570518,None,1,1,0.8367847849731334,363.9496097570518,None,364.78013407862164,None,None,None,None,,23,001,2023_Jan_23_1232,searchDisc5,2021.2.3,60.07629004890177,
images/exp1b_trial_23_colour2_distractors19_l.png,l,1,2,19,1,,,,,0,71,71,71,,,,,,,,,,,,,,,,,,,,,,,,,,,,,,,,,,,,,,,,,,,364.7970598569955,None,2,0.24050053098471835,364.7970598569955,None,,,,,,,,,,,,,,,,None,None,None,,None,None,365.0811634330312,None,1,1,1.1353023209958337,365.0811634330312,None,366.2134539256047,None,None,None,None,,23,001,2023_Jan_23_1232,searchDisc5,2021.2.3,60.07629004890177,
images/exp1b_trial_160_colour1_distractors1_r.png,r,3,1,1,1,,,,,0,72,72,72,,,,,,,,,,,,,,,,,,,,,,,,,,,,,,,,,,,,,,,,,,,366.22981678601354,None,2,1.656564567994792,366.22981678601354,None,,,,,,,,,,,,,,,,None,None,None,,None,None,367.9308026219951,None,3,1,0.6213300480158068,367.9308026219951,None,368.54700039663004,None,None,None,None,,23,001,2023_Jan_23_1232,searchDisc5,2021.2.3,60.07629004890177,
images/exp1b_trial_139_colour3_distractors4_r.png,r,3,3,4,1,,,,,0,73,73,73,,,,,,,,,,,,,,,,,,,,,,,,,,,,,,,,,,,,,,,,,,,368.5640548079973,None,2,0.3877881289809011,368.5640548079973,None,,,,,,,,,,,,,,,,None,None,None,,None,None,368.999963993032,None,3,1,0.8893868169980124,368.999963993032,None,369.8801762996416,None,None,None,None,,23,001,2023_Jan_23_1232,searchDisc5,2021.2.3,60.07629004890177,
images/exp1b_trial_51_colour1_distractors31_l.png,l,1,1,31,1,,,,,0,74,74,74,,,,,,,,,,,,,,,,,,,,,,,,,,,,,,,,,,,,,,,,,,,369.8973362770048,None,2,0.2886489410302602,369.8973362770048,None,,,,,,,,,,,,,,,,None,None,None,,None,None,370.2302047580015,None,1,1,0.685141897003632,370.2302047580015,None,370.9144904996327,None,None,None,None,,23,001,2023_Jan_23_1232,searchDisc5,2021.2.3,60.07629004890177,
images/exp1b_trial_214_colour2_distractors9_l.png,l,1,2,9,1,,,,,0,75,75,75,,,,,,,,,,,,,,,,,,,,,,,,,,,,,,,,,,,,,,,,,,,370.93005630304106,None,2,0.2545389860169962,370.93005630304106,None,,,,,,,,,,,,,,,,None,None,None,,None,None,371.22993062401656,None,1,1,0.6879102510283701,371.22993062401656,None,371.91353623159813,None,None,None,None,,23,001,2023_Jan_23_1232,searchDisc5,2021.2.3,60.07629004890177,
images/exp1b_trial_87_colour2_distractors19_l.png,l,1,2,19,1,,,,,0,76,76,76,,,,,,,,,,,,,,,,,,,,,,,,,,,,,,,,,,,,,,,,,,,371.92972200299846,None,2,0.23875238402979448,371.92972200299846,None,,,,,,,,,,,,,,,,None,None,None,,None,None,372.21462860004976,None,1,1,0.6367856690194458,372.21462860004976,None,372.84655984960847,None,None,None,None,,23,001,2023_Jan_23_1232,searchDisc5,2021.2.3,60.07629004890177,
images/exp1b_trial_306_colour1_distractors19_l.png,l,1,1,19,1,,,,,0,77,77,77,,,,,,,,,,,,,,,,,,,,,,,,,,,,,,,,,,,,,,,,,,,372.86318509303965,None,2,0.22452231700299308,372.86318509303965,None,,,,,,,,,,,,,,,,None,None,None,,None,None,373.1295307010296,None,1,1,0.9698727450449951,373.1295307010296,None,374.09699490961503,None,None,None,None,,23,001,2023_Jan_23_1232,searchDisc5,2021.2.3,60.07629004890177,
images/exp1b_trial_163_colour1_distractors19_r.png,r,3,1,19,1,,,,,0,78,78,78,,,,,,,,,,,,,,,,,,,,,,,,,,,,,,,,,,,,,,,,,,,374.1133883530274,None,2,0.20251149701653048,374.1133883530274,None,,,,,,,,,,,,,,,,None,None,None,,None,None,374.3668720020214,None,3,1,0.4874270180007443,374.3668720020214,None,374.84687917462435,None,None,None,None,,23,001,2023_Jan_23_1232,searchDisc5,2021.2.3,60.07629004890177,
images/exp1b_trial_168_colour2_distractors19_r.png,r,3,2,19,1,,,,,0,79,79,79,,,,,,,,,,,,,,,,,,,,,,,,,,,,,,,,,,,,,,,,,,,374.8642950130161,None,2,0.3053458260255866,374.8642950130161,None,,,,,,,,,,,,,,,,None,None,None,,None,None,375.2144640140468,None,3,1,0.6707489300169982,375.2144640140468,None,375.880294375628,None,None,None,None,,23,001,2023_Jan_23_1232,searchDisc5,2021.2.3,60.07629004890177,
images/exp1b_trial_170_colour3_distractors1_r.png,r,3,3,1,1,,,,,0,80,80,80,,,,,,,,,,,,,,,,,,,,,,,,,,,,,,,,,,,,,,,,,,,375.89727238204796,None,2,0.3053909130394459,375.89727238204796,None,,,,,,,,,,,,,,,,None,None,None,,None,None,376.2472861810238,None,3,1,0.5730863409698941,376.2472861810238,None,376.8136094376503,None,None,None,None,,23,001,2023_Jan_23_1232,searchDisc5,2021.2.3,60.07629004890177,
images/exp1b_trial_285_colour3_distractors31_l.png,l,1,3,31,1,,,,,0,81,81,81,,,,,,,,,,,,,,,,,,,,,,,,,,,,,,,,,,,,,,,,,,,376.8305078720441,None,2,0.32022351102204993,376.8305078720441,None,,,,,,,,,,,,,,,,None,None,None,,None,None,377.1965475650504,None,1,1,0.9348924710066058,377.1965475650504,None,378.1303025675996,None,None,None,None,,23,001,2023_Jan_23_1232,searchDisc5,2021.2.3,60.07629004890177,
images/exp1b_trial_57_colour3_distractors1_l.png,l,1,3,1,1,,,,,0,82,82,82,,,,,,,,,,,,,,,,,,,,,,,,,,,,,,,,,,,,,,,,,,,378.14680832100566,None,2,0.2234307510079816,378.14680832100566,None,,,,,,,,,,,,,,,,None,None,None,,None,None,378.4165310920216,None,1,1,0.80435095296707,378.4165310920216,None,379.21366064563045,None,None,None,None,,23,001,2023_Jan_23_1232,searchDisc5,2021.2.3,60.07629004890177,
images/exp1b_trial_53_colour2_distractors4_l.png,l,1,2,4,1,,,,,0,83,83,83,,,,,,,,,,,,,,,,,,,,,,,,,,,,,,,,,,,,,,,,,,,379.2300751240109,None,2,0.2545974550303072,379.2300751240109,None,,,,,,,,,,,,,,,,None,None,None,,None,None,379.5311778720352,None,1,1,0.5891474480158649,379.5311778720352,None,380.113624769653,None,None,None,None,,23,001,2023_Jan_23_1232,searchDisc5,2021.2.3,60.07629004890177,
images/exp1b_trial_189_colour3_distractors31_l.png,l,1,3,31,1,,,,,0,84,84,84,,,,,,,,,,,,,,,,,,,,,,,,,,,,,,,,,,,,,,,,,,,380.1301365480176,None,2,0.32202193402918056,380.1301365480176,None,,,,,,,,,,,,,,,,None,None,None,,None,None,380.4970152800088,None,1,1,0.8024030040251091,380.4970152800088,None,381.29722082461814,None,None,None,None,,23,001,2023_Jan_23_1232,searchDisc5,2021.2.3,60.07629004890177,
images/exp1b_trial_261_colour2_distractors1_r.png,r,3,2,1,1,,,,,0,85,85,85,,,,,,,,,,,,,,,,,,,,,,,,,,,,,,,,,,,,,,,,,,,381.31354868999915,None,2,0.25659451400861144,381.31354868999915,None,,,,,,,,,,,,,,,,None,None,None,,None,None,381.6145425090217,None,3,1,0.6218301379703917,381.6145425090217,None,382.23136972465437,None,None,None,None,,23,001,2023_Jan_23_1232,searchDisc5,2021.2.3,60.07629004890177,
images/exp1b_trial_109_colour3_distractors19_r.png,r,3,3,19,1,,,,,0,86,86,86,,,,,,,,,,,,,,,,,,,,,,,,,,,,,,,,,,,,,,,,,,,382.24635184701765,None,2,0.27029846800724044,382.24635184701765,None,,,,,,,,,,,,,,,,None,None,None,,None,None,382.5632743090391,None,3,1,0.9544570769648999,382.5632743090391,None,383.5139043796051,None,None,None,None,,23,001,2023_Jan_23_1232,searchDisc5,2021.2.3,60.07629004890177,
images/exp1b_trial_192_colour1_distractors1_r.png,r,3,1,1,1,,,,,0,87,87,87,,,,,,,,,,,,,,,,,,,,,,,,,,,,,,,,,,,,,,,,,,,383.5302296010195,None,2,0.3547059450065717,383.5302296010195,None,,,,,,,,,,,,,,,,None,None,None,,None,None,383.93099752505077,None,3,1,0.7064361039665528,383.93099752505077,None,384.6304723436304,None,None,None,None,,23,001,2023_Jan_23_1232,searchDisc5,2021.2.3,60.07629004890177,
images/exp1b_trial_158_colour0_distractors0_r.png,r,3,0,0,1,,,,,0,88,88,88,,,,,,,,,,,,,,,,,,,,,,,,,,,,,,,,,,,,,,,,,,,384.64908563601784,None,2,0.3053702490287833,384.64908563601784,None,,,,,,,,,,,,,,,,None,None,None,,None,None,384.9971475820057,None,3,1,0.5902167779859155,384.9971475820057,None,385.58131901464077,None,None,None,None,,23,001,2023_Jan_23_1232,searchDisc5,2021.2.3,60.07629004890177,
images/exp1b_trial_174_colour3_distractors31_r.png,r,3,3,31,1,,,,,0,89,89,89,,,,,,,,,,,,,,,,,,,,,,,,,,,,,,,,,,,,,,,,,,,385.5970442510443,None,2,0.30380862299352884,385.5970442510443,None,,,,,,,,,,,,,,,,None,None,None,,None,None,385.94704334205016,None,3,1,2.4691274779615924,385.94704334205016,None,388.4133123136533,None,None,None,None,,23,001,2023_Jan_23_1232,searchDisc5,2021.2.3,60.07629004890177,
images/exp1b_trial_150_colour2_distractors9_l.png,l,1,2,9,1,,,,,0,90,90,90,,,,,,,,,,,,,,,,,,,,,,,,,,,,,,,,,,,,,,,,,,,388.43355070904363,None,2,0.20531117502832785,388.43355070904363,None,,,,,,,,,,,,,,,,None,None,None,,None,None,388.6810259790509,None,1,1,0.672400497016497,388.6810259790509,None,389.3473459936038,None,None,None,None,,23,001,2023_Jan_23_1232,searchDisc5,2021.2.3,60.07629004890177,
images/exp1b_trial_44_colour3_distractors9_r.png,r,3,3,9,1,,,,,0,91,91,91,,,,,,,,,,,,,,,,,,,,,,,,,,,,,,,,,,,,,,,,,,,389.36637621500995,None,2,0.2722551489714533,389.36637621500995,None,,,,,,,,,,,,,,,,None,None,None,,None,None,389.68140210199635,None,3,1,0.8551384229795076,389.68140210199635,None,390.53083584263806,None,None,None,None,,23,001,2023_Jan_23_1232,searchDisc5,2021.2.3,60.07629004890177,
images/exp1b_trial_137_colour2_distractors31_r.png,r,3,2,31,1,,,,,0,92,92,92,,,,,,,,,,,,,,,,,,,,,,,,,,,,,,,,,,,,,,,,,,,390.5474242080236,None,2,0.27139802899910137,390.5474242080236,None,,,,,,,,,,,,,,,,None,None,None,,None,None,390.86421397305094,None,3,1,0.752781423041597,390.86421397305094,None,391.6135583746189,None,None,None,None,,23,001,2023_Jan_23_1232,searchDisc5,2021.2.3,60.07629004890177,
images/exp1b_trial_38_colour2_distractors4_r.png,r,3,2,4,1,,,,,0,93,93,93,,,,,,,,,,,,,,,,,,,,,,,,,,,,,,,,,,,,,,,,,,,391.6306653820211,None,2,0.3052079560002312,391.6306653820211,None,,,,,,,,,,,,,,,,None,None,None,,None,None,391.981409177999,None,3,1,0.6252007510047406,391.981409177999,None,392.5974741936487,None,None,None,None,,23,001,2023_Jan_23_1232,searchDisc5,2021.2.3,60.07629004890177,
images/exp1b_trial_164_colour1_distractors31_r.png,r,3,1,31,1,,,,,0,94,94,94,,,,,,,,,,,,,,,,,,,,,,,,,,,,,,,,,,,,,,,,,,,392.6145467820461,None,2,0.2698697740561329,392.6145467820461,None,,,,,,,,,,,,,,,,None,None,None,,None,None,392.9318349750247,None,3,1,0.5846210229792632,392.9318349750247,None,393.5136263725988,None,None,None,None,,23,001,2023_Jan_23_1232,searchDisc5,2021.2.3,60.07629004890177,
images/exp1b_trial_1_colour1_distractors4_r.png,r,3,1,4,1,,,,,0,95,95,95,,,,,,,,,,,,,,,,,,,,,,,,,,,,,,,,,,,,,,,,,,,393.5315887129982,None,2,0.3052533330046572,393.5315887129982,None,,,,,,,,,,,,,,,,None,None,None,,None,None,393.8800931320293,None,3,1,0.6392206900054589,393.8800931320293,None,394.5141365746211,None,None,None,None,,23,001,2023_Jan_23_1232,searchDisc5,2021.2.3,60.07629004890177,
images/exp1b_trial_3_colour1_distractors19_r.png,r,3,1,19,1,,,,,0,96,96,96,,,,,,,,,,,,,,,,,,,,,,,,,,,,,,,,,,,,,,,,,,,394.53066721302457,None,2,0.33896168402861804,394.53066721302457,None,,,,,,,,,,,,,,,,None,None,None,,None,None,394.91423311200924,None,3,1,0.46930387895554304,394.91423311200924,None,395.3807534986234,None,None,None,None,,23,001,2023_Jan_23_1232,searchDisc5,2021.2.3,60.07629004890177,
images/exp1b_trial_18_colour1_distractors19_l.png,l,1,1,19,1,,,,,0,97,97,97,,,,,,,,,,,,,,,,,,,,,,,,,,,,,,,,,,,,,,,,,,,395.39860826404765,None,2,0.3743116789846681,395.39860826404765,None,,,,,,,,,,,,,,,,None,None,None,,None,None,395.8170009840396,None,1,1,0.6842320110299625,395.8170009840396,None,396.49754376562197,None,None,None,None,,23,001,2023_Jan_23_1232,searchDisc5,2021.2.3,60.07629004890177,
images/exp1b_trial_262_colour2_distractors4_r.png,r,3,2,4,1,,,,,0,98,98,98,,,,,,,,,,,,,,,,,,,,,,,,,,,,,,,,,,,,,,,,,,,396.51408747700043,None,2,0.28796302096452564,396.51408747700043,None,,,,,,,,,,,,,,,,None,None,None,,None,None,396.8475873999996,None,3,1,0.5222588109900244,396.8475873999996,None,397.36350776160253,None,None,None,None,,23,001,2023_Jan_23_1232,searchDisc5,2021.2.3,60.07629004890177,
images/exp1b_trial_0_colour1_distractors1_r.png,r,3,1,1,1,,,,,0,99,99,99,,,,,,,,,,,,,,,,,,,,,,,,,,,,,,,,,,,,,,,,,,,397.3816661380115,None,2,0.25712996895890683,397.3816661380115,None,,,,,,,,,,,,,,,,None,None,None,,None,None,397.68416409002384,None,3,1,0.504777344991453,397.68416409002384,None,398.18089832963307,None,None,None,None,,23,001,2023_Jan_23_1232,searchDisc5,2021.2.3,60.07629004890177,
images/exp1b_trial_222_colour0_distractors0_r.png,r,3,0,0,1,,,,,0,100,100,100,,,,,,,,,,,,,,,,,,,,,,,,,,,,,,,,,,,,,,,,,,,398.19735040701926,None,2,0.2567654550075531,398.19735040701926,None,,,,,,,,,,,,,,,,None,None,None,,None,None,398.49793725204654,None,3,1,0.4211036110064015,398.49793725204654,None,398.91430176862633,None,None,None,None,,23,001,2023_Jan_23_1232,searchDisc5,2021.2.3,60.07629004890177,
images/exp1b_trial_113_colour1_distractors9_l.png,l,1,1,9,1,,,,,0,101,101,101,,,,,,,,,,,,,,,,,,,,,,,,,,,,,,,,,,,,,,,,,,,398.93124899303075,None,2,0.32115818897727877,398.93124899303075,None,,,,,,,,,,,,,,,,None,None,None,,None,None,399.29857389000244,None,1,1,0.5215580869698897,399.29857389000244,None,399.814306924626,None,None,None,None,,23,001,2023_Jan_23_1232,searchDisc5,2021.2.3,60.07629004890177,
images/exp1b_trial_225_colour1_distractors4_r.png,r,3,1,4,1,,,,,0,102,102,102,,,,,,,,,,,,,,,,,,,,,,,,,,,,,,,,,,,,,,,,,,,399.8312741550035,None,2,0.2712313639931381,399.8312741550035,None,,,,,,,,,,,,,,,,None,None,None,,None,None,400.1496957470081,None,3,1,0.5394630910013802,400.1496957470081,None,400.68086002963247,None,None,None,None,,23,001,2023_Jan_23_1232,searchDisc5,2021.2.3,60.07629004890177,
images/exp1b_trial_318_colour0_distractors0_r.png,r,3,0,0,1,,,,,0,103,103,103,,,,,,,,,,,,,,,,,,,,,,,,,,,,,,,,,,,,,,,,,,,400.69776758301305,None,2,0.2566854439792223,400.69776758301305,None,,,,,,,,,,,,,,,,None,None,None,,None,None,401.0006335140206,None,3,1,0.4570388830034062,401.0006335140206,None,401.44769591964433,None,None,None,None,,23,001,2023_Jan_23_1232,searchDisc5,2021.2.3,60.07629004890177,
images/exp1b_trial_85_colour2_distractors4_l.png,l,1,2,4,1,,,,,0,104,104,104,,,,,,,,,,,,,,,,,,,,,,,,,,,,,,,,,,,,,,,,,,,401.4637708880473,None,2,0.30234171595657244,401.4637708880473,None,,,,,,,,,,,,,,,,None,None,None,,None,None,401.8138236399973,None,1,1,0.7728751960094087,401.8138236399973,None,402.5810778906278,None,None,None,None,,23,001,2023_Jan_23_1232,searchDisc5,2021.2.3,60.07629004890177,
images/exp1b_trial_13_colour3_distractors19_r.png,r,3,3,19,1,,,,,0,105,105,105,,,,,,,,,,,,,,,,,,,,,,,,,,,,,,,,,,,,,,,,,,,402.5982606760226,None,2,0.2879478720133193,402.5982606760226,None,,,,,,,,,,,,,,,,None,None,None,,None,None,402.9314951450215,None,3,1,1.119384748977609,402.9314951450215,None,404.0477114396461,None,None,None,None,,23,001,2023_Jan_23_1232,searchDisc5,2021.2.3,60.07629004890177,
images/exp1b_trial_308_colour2_distractors1_l.png,l,1,2,1,1,,,,,0,106,106,106,,,,,,,,,,,,,,,,,,,,,,,,,,,,,,,,,,,,,,,,,,,404.06449588603573,None,2,0.240105853008572,404.06449588603573,None,,,,,,,,,,,,,,,,None,None,None,,None,None,404.35085649602115,None,1,1,0.687682890042197,404.35085649602115,None,405.0310996366141,None,None,None,None,,23,001,2023_Jan_23_1232,searchDisc5,2021.2.3,60.07629004890177,
images/exp1b_trial_52_colour2_distractors1_l.png,l,1,2,1,1,,,,,0,107,107,107,,,,,,,,,,,,,,,,,,,,,,,,,,,,,,,,,,,,,,,,,,,405.0504428340355,None,2,0.23761325899977237,405.0504428340355,None,,,,,,,,,,,,,,,,None,None,None,,None,None,405.3314657220035,None,1,1,0.7740578270168044,405.3314657220035,None,406.0979628176254,None,None,None,None,,23,001,2023_Jan_23_1232,searchDisc5,2021.2.3,60.07629004890177,
images/exp1b_trial_116_colour2_distractors1_l.png,l,1,2,1,1,,,,,0,108,108,108,,,,,,,,,,,,,,,,,,,,,,,,,,,,,,,,,,,,,,,,,,,406.1152167620021,None,2,0.30483457702212036,406.1152167620021,None,,,,,,,,,,,,,,,,None,None,None,,None,None,406.4654818830313,None,3,0,0.5230132949654944,406.4654818830313,None,406.98225186262863,None,None,None,None,,23,001,2023_Jan_23_1232,searchDisc5,2021.2.3,60.07629004890177,
images/exp1b_trial_77_colour3_distractors19_r.png,r,3,3,19,1,,,,,0,109,109,109,,,,,,,,,,,,,,,,,,,,,,,,,,,,,,,,,,,,,,,,,,,406.99718981503975,None,2,0.8533302680007182,406.99718981503975,None,,,,,,,,,,,,,,,,None,None,None,,None,None,407.89843253500294,None,3,1,0.8703496140078641,407.89843253500294,None,408.7646338746243,None,None,None,None,,23,001,2023_Jan_23_1232,searchDisc5,2021.2.3,60.07629004890177,
images/exp1b_trial_234_colour3_distractors1_r.png,r,3,3,1,1,,,,,0,110,110,110,,,,,,,,,,,,,,,,,,,,,,,,,,,,,,,,,,,,,,,,,,,408.7815256040194,None,2,0.2554904010030441,408.7815256040194,None,,,,,,,,,,,,,,,,None,None,None,,None,None,409.08199457405135,None,3,1,0.8557264470146038,409.08199457405135,None,409.93144852462575,None,None,None,None,,23,001,2023_Jan_23_1232,searchDisc5,2021.2.3,60.07629004890177,
images/exp1b_trial_290_colour1_distractors9_r.png,r,3,1,9,1,,,,,0,111,111,111,,,,,,,,,,,,,,,,,,,,,,,,,,,,,,,,,,,,,,,,,,,409.94784283504123,None,2,0.2887072850135155,409.94784283504123,None,,,,,,,,,,,,,,,,None,None,None,,None,None,410.2820410760469,None,3,1,0.8040765679907054,410.2820410760469,None,411.08128540763283,None,None,None,None,,23,001,2023_Jan_23_1232,searchDisc5,2021.2.3,60.07629004890177,
images/exp1b_trial_42_colour3_distractors1_r.png,r,3,3,1,1,,,,,0,112,112,112,,,,,,,,,,,,,,,,,,,,,,,,,,,,,,,,,,,,,,,,,,,411.098417766043,None,2,0.30506322998553514,411.098417766043,None,,,,,,,,,,,,,,,,None,None,None,,None,None,411.44874206901295,None,3,1,1.325939370028209,411.44874206901295,None,412.7657757196401,None,None,None,None,,23,001,2023_Jan_23_1232,searchDisc5,2021.2.3,60.07629004890177,
images/exp1b_trial_134_colour2_distractors4_r.png,r,3,2,4,1,,,,,0,113,113,113,,,,,,,,,,,,,,,,,,,,,,,,,,,,,,,,,,,,,,,,,,,412.781321529008,None,2,0.45109687000513077,412.781321529008,None,,,,,,,,,,,,,,,,None,None,None,,None,None,413.2816786500043,None,3,1,0.5073998229927383,413.2816786500043,None,413.7825298676442,None,None,None,None,,23,001,2023_Jan_23_1232,searchDisc5,2021.2.3,60.07629004890177,
images/exp1b_trial_147_colour1_distractors31_l.png,l,1,1,31,1,,,,,0,114,114,114,,,,,,,,,,,,,,,,,,,,,,,,,,,,,,,,,,,,,,,,,,,413.7979427790269,None,2,0.3540863820235245,413.7979427790269,None,,,,,,,,,,,,,,,,None,None,None,,None,None,414.1985466920305,None,1,1,0.7022549519897439,414.1985466920305,None,414.89784297962325,None,None,None,None,,23,001,2023_Jan_23_1232,searchDisc5,2021.2.3,60.07629004890177,
images/exp1b_trial_273_colour1_distractors9_l.png,l,1,1,9,1,,,,,0,115,115,115,,,,,,,,,,,,,,,,,,,,,,,,,,,,,,,,,,,,,,,,,,,414.91444073599996,None,2,0.20669890800490975,414.91444073599996,None,,,,,,,,,,,,,,,,None,None,None,,None,None,415.16680660500424,None,1,1,0.7052010699990205,415.16680660500424,None,415.8647802366002,None,None,None,None,,23,001,2023_Jan_23_1232,searchDisc5,2021.2.3,60.07629004890177,
images/exp1b_trial_206_colour3_distractors31_r.png,r,3,3,31,1,,,,,0,116,116,116,,,,,,,,,,,,,,,,,,,,,,,,,,,,,,,,,,,,,,,,,,,415.88069096399704,None,2,0.2028563999920152,415.88069096399704,None,,,,,,,,,,,,,,,,None,None,None,,None,None,416.13311378500657,None,3,1,0.6697224900126457,416.13311378500657,None,416.7979947486136,None,None,None,None,,23,001,2023_Jan_23_1232,searchDisc5,2021.2.3,60.07629004890177,
images/exp1b_trial_254_colour0_distractors0_r.png,r,3,0,0,1,,,,,0,117,117,117,,,,,,,,,,,,,,,,,,,,,,,,,,,,,,,,,,,,,,,,,,,416.8150498070172,None,2,0.2721626849961467,416.8150498070172,None,,,,,,,,,,,,,,,,None,None,None,,None,None,417.1307422990212,None,3,1,0.5568250039941631,417.1307422990212,None,417.68247611062253,None,None,None,None,,23,001,2023_Jan_23_1232,searchDisc5,2021.2.3,60.07629004890177,
images/exp1b_trial_6_colour2_distractors4_r.png,r,3,2,4,1,,,,,0,118,118,118,,,,,,,,,,,,,,,,,,,,,,,,,,,,,,,,,,,,,,,,,,,417.6986274080118,None,2,0.27300533500965685,417.6986274080118,None,,,,,,,,,,,,,,,,None,None,None,,None,None,418.01685923704645,None,3,1,0.5360726080252789,418.01685923704645,None,418.54814506663826,None,None,None,None,,23,001,2023_Jan_23_1232,searchDisc5,2021.2.3,60.07629004890177,
images/exp1b_trial_15_colour1_distractors1_l.png,l,1,1,1,1,,,,,0,119,119,119,,,,,,,,,,,,,,,,,,,,,,,,,,,,,,,,,,,,,,,,,,,418.56456182705006,None,2,0.2880927090300247,418.56456182705006,None,,,,,,,,,,,,,,,,None,None,None,,None,None,418.8982903350261,None,1,1,0.5066614259849302,418.8982903350261,None,419.3981255126244,None,None,None,None,,23,001,2023_Jan_23_1232,searchDisc5,2021.2.3,60.07629004890177,
images/exp1b_trial_11_colour3_distractors4_r.png,r,3,3,4,1,,,,,0,120,120,120,,,,,,,,,,,,,,,,,,,,,,,,,,,,,,,,,,,,,,,,,,,419.41537010803586,None,2,0.24072718399111181,419.41537010803586,None,,,,,,,,,,,,,,,,None,None,None,,None,None,419.69852315000026,None,3,1,0.8208424220210873,419.69852315000026,None,420.5145506926172,None,None,None,None,,23,001,2023_Jan_23_1232,searchDisc5,2021.2.3,60.07629004890177,
images/exp1b_trial_215_colour2_distractors19_l.png,l,1,2,19,1,,,,,0,121,121,121,,,,,,,,,,,,,,,,,,,,,,,,,,,,,,,,,,,,,,,,,,,420.5305605940521,None,2,0.24053711298620328,420.5305605940521,None,,,,,,,,,,,,,,,,None,None,None,,None,None,420.81767778203357,None,1,1,0.6843848429853097,420.81767778203357,None,421.4978528686159,None,None,None,None,,23,001,2023_Jan_23_1232,searchDisc5,2021.2.3,60.07629004890177,
images/exp1b_trial_307_colour1_distractors31_l.png,l,1,1,31,1,,,,,0,122,122,122,,,,,,,,,,,,,,,,,,,,,,,,,,,,,,,,,,,,,,,,,,,421.5167649680516,None,2,0.17534107499523088,421.5167649680516,None,,,,,,,,,,,,,,,,None,None,None,,None,None,421.73431936401175,None,1,1,0.6835614949814044,421.73431936401175,None,422.4159539206128,None,None,None,None,,23,001,2023_Jan_23_1232,searchDisc5,2021.2.3,60.07629004890177,
images/exp1b_trial_104_colour2_distractors19_r.png,r,3,2,19,1,,,,,0,123,123,123,,,,,,,,,,,,,,,,,,,,,,,,,,,,,,,,,,,,,,,,,,,422.4343518950045,None,2,0.12100047600688413,422.4343518950045,None,,,,,,,,,,,,,,,,None,None,None,,None,None,422.60124278703006,None,3,1,0.6539616610389203,422.60124278703006,None,423.2482913526299,None,None,None,None,,23,001,2023_Jan_23_1232,searchDisc5,2021.2.3,60.07629004890177,
images/exp1b_trial_142_colour3_distractors31_r.png,r,3,3,31,1,,,,,0,124,124,124,,,,,,,,,,,,,,,,,,,,,,,,,,,,,,,,,,,,,,,,,,,423.26578890002565,None,2,0.20712254400132224,423.26578890002565,None,,,,,,,,,,,,,,,,None,None,None,,None,None,423.5170374950394,None,3,1,0.5011061900295317,423.5170374950394,None,424.0148816076515,None,None,None,None,,23,001,2023_Jan_23_1232,searchDisc5,2021.2.3,60.07629004890177,
images/exp1b_trial_213_colour2_distractors4_l.png,l,1,2,4,1,,,,,0,125,125,125,,,,,,,,,,,,,,,,,,,,,,,,,,,,,,,,,,,,,,,,,,,424.0313782489975,None,2,0.27199402498081326,424.0313782489975,None,,,,,,,,,,,,,,,,None,None,None,,None,None,424.34847352601355,None,1,1,0.7386264259694144,424.34847352601355,None,425.08167069560733,None,None,None,None,,23,001,2023_Jan_23_1232,searchDisc5,2021.2.3,60.07629004890177,
images/exp1b_trial_241_colour1_distractors9_l.png,l,1,1,9,1,,,,,0,126,126,126,,,,,,,,,,,,,,,,,,,,,,,,,,,,,,,,,,,,,,,,,,,425.09859072900144,None,2,0.25455276598222554,425.09859072900144,None,,,,,,,,,,,,,,,,None,None,None,,None,None,425.3976720900391,None,1,1,0.5553970779874362,425.3976720900391,None,425.9483612386219,None,None,None,None,,23,001,2023_Jan_23_1232,searchDisc5,2021.2.3,60.07629004890177,
images/exp1b_trial_289_colour1_distractors4_r.png,r,3,1,4,1,,,,,0,127,127,127,,,,,,,,,,,,,,,,,,,,,,,,,,,,,,,,,,,,,,,,,,,425.96544956200523,None,2,0.18883981101680547,425.96544956200523,None,,,,,,,,,,,,,,,,None,None,None,,None,None,426.20096139603993,None,3,1,0.5553818070329726,426.20096139603993,None,426.7483866916562,None,None,None,None,,23,001,2023_Jan_23_1232,searchDisc5,2021.2.3,60.07629004890177,
images/exp1b_trial_183_colour2_distractors19_l.png,l,1,2,19,1,,,,,0,128,128,128,,,,,,,,,,,,,,,,,,,,,,,,,,,,,,,,,,,,,,,,,,,426.7652425020351,None,2,0.24007539200829342,426.7652425020351,None,,,,,,,,,,,,,,,,None,None,None,,None,None,427.0487349409959,None,1,1,0.6858221300062723,427.0487349409959,None,427.7317042626499,None,None,None,None,,23,001,2023_Jan_23_1232,searchDisc5,2021.2.3,60.07629004890177,
images/exp1b_trial_188_colour3_distractors19_l.png,l,1,3,19,1,,,,,0,129,129,129,,,,,,,,,,,,,,,,,,,,,,,,,,,,,,,,,,,,,,,,,,,427.7479978070478,None,2,0.17061442596605048,427.7479978070478,None,,,,,,,,,,,,,,,,None,None,None,,None,None,427.9662707870011,None,1,1,1.1870962220127694,427.9662707870011,None,429.14844773463557,None,None,None,None,,23,001,2023_Jan_23_1232,searchDisc5,2021.2.3,60.07629004890177,
images/exp1b_trial_180_colour2_distractors1_l.png,l,1,2,1,1,,,,,0,130,130,130,,,,,,,,,,,,,,,,,,,,,,,,,,,,,,,,,,,,,,,,,,,429.165418765042,None,2,0.17318158701527864,429.165418765042,None,,,,,,,,,,,,,,,,None,None,None,,None,None,429.38487062603235,None,1,1,0.8059516060166061,429.38487062603235,None,430.181832166604,None,None,None,None,,23,001,2023_Jan_23_1232,searchDisc5,2021.2.3,60.07629004890177,
images/exp1b_trial_187_colour3_distractors9_l.png,l,1,3,9,1,,,,,0,131,131,131,,,,,,,,,,,,,,,,,,,,,,,,,,,,,,,,,,,,,,,,,,,430.1985389449983,None,2,0.16954832000192255,430.1985389449983,None,,,,,,,,,,,,,,,,None,None,None,,None,None,430.41549274802674,None,3,0,0.7066011209972203,430.41549274802674,None,431.1151464936382,None,None,None,None,,23,001,2023_Jan_23_1232,searchDisc5,2021.2.3,60.07629004890177,
images/exp1b_trial_22_colour2_distractors9_l.png,l,1,2,9,1,,,,,0,132,132,132,,,,,,,,,,,,,,,,,,,,,,,,,,,,,,,,,,,,,,,,,,,431.13162754900986,None,2,0.5739808449870907,431.13162754900986,None,,,,,,,,,,,,,,,,None,None,None,,None,None,431.74976041703485,None,1,1,0.7672160089714453,431.74976041703485,None,432.5152056276391,None,None,None,None,,23,001,2023_Jan_23_1232,searchDisc5,2021.2.3,60.07629004890177,
images/exp1b_trial_233_colour2_distractors31_r.png,r,3,2,31,1,,,,,0,133,133,133,,,,,,,,,,,,,,,,,,,,,,,,,,,,,,,,,,,,,,,,,,,432.5343639840139,None,2,0.3058146900148131,432.5343639840139,None,,,,,,,,,,,,,,,,None,None,None,,None,None,432.8849405730143,None,3,1,0.7366335919941776,432.8849405730143,None,433.61522654663423,None,None,None,None,,23,001,2023_Jan_23_1232,searchDisc5,2021.2.3,60.07629004890177,
images/exp1b_trial_256_colour1_distractors1_r.png,r,3,1,1,1,,,,,0,134,134,134,,,,,,,,,,,,,,,,,,,,,,,,,,,,,,,,,,,,,,,,,,,433.6345822340227,None,2,0.3052147179841995,433.6345822340227,None,,,,,,,,,,,,,,,,None,None,None,,None,None,433.98431285703555,None,3,1,0.5720176980248652,433.98431285703555,None,434.5486150566547,None,None,None,None,,23,001,2023_Jan_23_1232,searchDisc5,2021.2.3,60.07629004890177,
images/exp1b_trial_316_colour3_distractors19_l.png,l,1,3,19,1,,,,,0,135,135,135,,,,,,,,,,,,,,,,,,,,,,,,,,,,,,,,,,,,,,,,,,,434.56518314400455,None,2,0.32234775595134124,434.56518314400455,None,,,,,,,,,,,,,,,,None,None,None,,None,None,434.9319324340322,None,1,1,0.7349618379957974,434.9319324340322,None,435.66468113263255,None,None,None,None,,23,001,2023_Jan_23_1232,searchDisc5,2021.2.3,60.07629004890177,
images/exp1b_trial_267_colour3_distractors4_r.png,r,3,3,4,1,,,,,0,136,136,136,,,,,,,,,,,,,,,,,,,,,,,,,,,,,,,,,,,,,,,,,,,435.6826023510075,None,2,0.3055709830368869,435.6826023510075,None,,,,,,,,,,,,,,,,None,None,None,,None,None,436.03197794704465,None,3,1,0.7387632590252906,436.03197794704465,None,436.76530815862935,None,None,None,None,,23,001,2023_Jan_23_1232,searchDisc5,2021.2.3,60.07629004890177,
images/exp1b_trial_154_colour3_distractors4_l.png,l,1,3,4,1,,,,,0,137,137,137,,,,,,,,,,,,,,,,,,,,,,,,,,,,,,,,,,,,,,,,,,,436.78225385502446,None,2,0.30772671999875456,436.78225385502446,None,,,,,,,,,,,,,,,,None,None,None,,None,None,437.1324698260287,None,1,1,0.9028836049837992,437.1324698260287,None,438.0320875606092,None,None,None,None,,23,001,2023_Jan_23_1232,searchDisc5,2021.2.3,60.07629004890177,
images/exp1b_trial_63_colour0_distractors0_l.png,l,1,0,0,1,,,,,0,138,138,138,,,,,,,,,,,,,,,,,,,,,,,,,,,,,,,,,,,,,,,,,,,438.0491798900184,None,2,0.38776651700027287,438.0491798900184,None,,,,,,,,,,,,,,,,None,None,None,,None,None,438.48273855802836,None,1,1,0.6064503060188144,438.48273855802836,None,439.0820095726347,None,None,None,None,,23,001,2023_Jan_23_1232,searchDisc5,2021.2.3,60.07629004890177,
images/exp1b_trial_216_colour2_distractors31_l.png,l,1,2,31,1,,,,,0,139,139,139,,,,,,,,,,,,,,,,,,,,,,,,,,,,,,,,,,,,,,,,,,,439.0992542980239,None,2,0.4709875480039045,439.0992542980239,None,,,,,,,,,,,,,,,,None,None,None,,None,None,439.6154361180379,None,1,1,0.8904183519771323,439.6154361180379,None,440.4998648586159,None,None,None,None,,23,001,2023_Jan_23_1232,searchDisc5,2021.2.3,60.07629004890177,
images/exp1b_trial_105_colour2_distractors31_r.png,r,3,2,31,1,,,,,0,140,140,140,,,,,,,,,,,,,,,,,,,,,,,,,,,,,,,,,,,,,,,,,,,440.5174364889972,None,2,0.13609381602145731,440.5174364889972,None,,,,,,,,,,,,,,,,None,None,None,,None,None,440.7014890120481,None,3,1,0.7865685269935057,440.7014890120481,None,441.4821167856397,None,None,None,None,,23,001,2023_Jan_23_1232,searchDisc5,2021.2.3,60.07629004890177,
images/exp1b_trial_61_colour3_distractors31_l.png,l,1,3,31,1,,,,,0,141,141,141,,,,,,,,,,,,,,,,,,,,,,,,,,,,,,,,,,,,,,,,,,,441.49900213902583,None,2,0.22122779599158093,441.49900213902583,None,,,,,,,,,,,,,,,,None,None,None,,None,None,441.7678232740145,None,1,1,0.970138319011312,441.7678232740145,None,442.73206819161425,None,None,None,None,,23,001,2023_Jan_23_1232,searchDisc5,2021.2.3,60.07629004890177,
images/exp1b_trial_93_colour3_distractors31_l.png,l,1,3,31,1,,,,,0,142,142,142,,,,,,,,,,,,,,,,,,,,,,,,,,,,,,,,,,,,,,,,,,,442.7490671710111,None,2,0.15677121496992186,442.7490671710111,None,,,,,,,,,,,,,,,,None,None,None,,None,None,442.9519964750507,None,1,1,0.584358983032871,442.9519964750507,None,443.53208721363336,None,None,None,None,,23,001,2023_Jan_23_1232,searchDisc5,2021.2.3,60.07629004890177,
images/exp1b_trial_177_colour1_distractors9_l.png,l,1,1,9,1,,,,,0,143,143,143,,,,,,,,,,,,,,,,,,,,,,,,,,,,,,,,,,,,,,,,,,,443.54861586203333,None,2,0.15661618602462113,443.54861586203333,None,,,,,,,,,,,,,,,,None,None,None,,None,None,443.74955735204276,None,1,1,0.6367130000144243,443.74955735204276,None,444.3821576776507,None,None,None,None,,23,001,2023_Jan_23_1232,searchDisc5,2021.2.3,60.07629004890177,
images/exp1b_trial_7_colour2_distractors9_r.png,r,3,2,9,1,,,,,0,144,144,144,,,,,,,,,,,,,,,,,,,,,,,,,,,,,,,,,,,,,,,,,,,444.4014937769971,None,2,0.15632955799810588,444.4014937769971,None,,,,,,,,,,,,,,,,None,None,None,,None,None,444.60116738500074,None,3,1,0.5201780780334957,444.60116738500074,None,445.1153704045981,None,None,None,None,,23,001,2023_Jan_23_1232,searchDisc5,2021.2.3,60.07629004890177,
images/exp1b_trial_107_colour3_distractors4_r.png,r,3,3,4,1,,,,,0,145,145,145,,,,,,,,,,,,,,,,,,,,,,,,,,,,,,,,,,,,,,,,,,,445.1324142780504,None,2,0.22152923000976443,445.1324142780504,None,,,,,,,,,,,,,,,,None,None,None,,None,None,445.40118021302624,None,3,1,1.1390120169962756,445.40118021302624,None,446.53225629565424,None,None,None,None,,23,001,2023_Jan_23_1232,searchDisc5,2021.2.3,60.07629004890177,
images/exp1b_trial_286_colour0_distractors0_r.png,r,3,0,0,1,,,,,0,146,146,146,,,,,,,,,,,,,,,,,,,,,,,,,,,,,,,,,,,,,,,,,,,446.5492229810334,None,2,0.24015981098636985,446.5492229810334,None,,,,,,,,,,,,,,,,None,None,None,,None,None,446.83247061801376,None,3,1,0.47149611404165626,446.83247061801376,None,447.29905744960416,None,None,None,None,,23,001,2023_Jan_23_1232,searchDisc5,2021.2.3,60.07629004890177,
images/exp1b_trial_106_colour3_distractors1_r.png,r,3,3,1,1,,,,,0,147,147,147,,,,,,,,,,,,,,,,,,,,,,,,,,,,,,,,,,,,,,,,,,,447.3154760830221,None,2,0.3553300620405935,447.3154760830221,None,,,,,,,,,,,,,,,,None,None,None,,None,None,447.71589226601645,None,3,1,0.6717164790024981,447.71589226601645,None,448.38225730163396,None,None,None,None,,23,001,2023_Jan_23_1232,searchDisc5,2021.2.3,60.07629004890177,
images/exp1b_trial_35_colour1_distractors19_r.png,r,3,1,19,1,,,,,0,148,148,148,,,,,,,,,,,,,,,,,,,,,,,,,,,,,,,,,,,,,,,,,,,448.39874160202453,None,2,0.30546786304330453,448.39874160202453,None,,,,,,,,,,,,,,,,None,None,None,,None,None,448.749398873013,None,3,1,0.7526768009993248,448.749398873013,None,449.4990967866441,None,None,None,None,,23,001,2023_Jan_23_1232,searchDisc5,2021.2.3,60.07629004890177,
images/exp1b_trial_92_colour3_distractors19_l.png,l,1,3,19,1,,,,,0,149,149,149,,,,,,,,,,,,,,,,,,,,,,,,,,,,,,,,,,,,,,,,,,,449.51636898500146,None,2,0.239655229030177,449.51636898500146,None,,,,,,,,,,,,,,,,None,None,None,,None,None,449.80136876000324,None,1,1,1.3517293200129643,449.80136876000324,None,451.1491274526168,None,None,None,None,,23,001,2023_Jan_23_1232,searchDisc5,2021.2.3,60.07629004890177,
images/exp1b_trial_309_colour2_distractors4_l.png,l,1,2,4,1,,,,,0,150,150,150,,,,,,,,,,,,,,,,,,,,,,,,,,,,,,,,,,,,,,,,,,,451.16543943301076,None,2,0.22330349998082966,451.16543943301076,None,,,,,,,,,,,,,,,,None,None,None,,None,None,451.43459771800553,None,1,1,0.8038049039896578,451.43459771800553,None,452.23215952665197,None,None,None,None,,23,001,2023_Jan_23_1232,searchDisc5,2021.2.3,60.07629004890177,
images/exp1b_trial_272_colour1_distractors4_l.png,l,1,1,4,1,,,,,0,151,151,151,,,,,,,,,,,,,,,,,,,,,,,,,,,,,,,,,,,,,,,,,,,452.2491257110378,None,2,0.1892856129561551,452.2491257110378,None,,,,,,,,,,,,,,,,None,None,None,,None,None,452.4851895030006,None,1,1,0.8072103210142814,452.4851895030006,None,453.2825117776345,None,None,None,None,,23,001,2023_Jan_23_1232,searchDisc5,2021.2.3,60.07629004890177,
images/exp1b_trial_123_colour3_distractors9_l.png,l,1,3,9,1,,,,,0,152,152,152,,,,,,,,,,,,,,,,,,,,,,,,,,,,,,,,,,,,,,,,,,,453.2996505370247,None,2,0.2867894640075974,453.2996505370247,None,,,,,,,,,,,,,,,,None,None,None,,None,None,453.63332056603394,None,1,1,0.920551044982858,453.63332056603394,None,454.54915691660136,None,None,None,None,,23,001,2023_Jan_23_1232,searchDisc5,2021.2.3,60.07629004890177,
images/exp1b_trial_193_colour1_distractors4_r.png,r,3,1,4,1,,,,,0,153,153,153,,,,,,,,,,,,,,,,,,,,,,,,,,,,,,,,,,,,,,,,,,,454.56559836800443,None,2,0.188435334013775,454.56559836800443,None,,,,,,,,,,,,,,,,None,None,None,,None,None,454.8017908119946,None,3,1,0.6054546129889786,454.8017908119946,None,455.39913398561185,None,None,None,None,,23,001,2023_Jan_23_1232,searchDisc5,2021.2.3,60.07629004890177,
images/exp1b_trial_84_colour2_distractors1_l.png,l,1,2,1,1,,,,,0,154,154,154,,,,,,,,,,,,,,,,,,,,,,,,,,,,,,,,,,,,,,,,,,,455.4154916690313,None,2,0.23776084301061928,455.4154916690313,None,,,,,,,,,,,,,,,,None,None,None,,None,None,455.70128650101833,None,1,1,0.48761856398778036,455.70128650101833,None,456.1825303746562,None,None,None,None,,23,001,2023_Jan_23_1232,searchDisc5,2021.2.3,60.07629004890177,
images/exp1b_trial_299_colour3_distractors4_r.png,r,3,3,4,1,,,,,0,155,155,155,,,,,,,,,,,,,,,,,,,,,,,,,,,,,,,,,,,,,,,,,,,456.1997811580077,None,2,0.2536387049476616,456.1997811580077,None,,,,,,,,,,,,,,,,None,None,None,,None,None,456.500226559001,None,3,1,0.6227752009872347,456.500226559001,None,457.11695981064696,None,None,None,None,,23,001,2023_Jan_23_1232,searchDisc5,2021.2.3,60.07629004890177,
images/exp1b_trial_186_colour3_distractors4_l.png,l,1,3,4,1,,,,,0,156,156,156,,,,,,,,,,,,,,,,,,,,,,,,,,,,,,,,,,,,,,,,,,,457.1322693450493,None,2,0.21878243202809244,457.1322693450493,None,,,,,,,,,,,,,,,,None,None,None,,None,None,457.40142373001436,None,1,1,1.024396913999226,457.40142373001436,None,458.4172375556489,None,None,None,None,,23,001,2023_Jan_23_1232,searchDisc5,2021.2.3,60.07629004890177,
images/exp1b_trial_227_colour1_distractors19_r.png,r,3,1,19,1,,,,,0,157,157,157,,,,,,,,,,,,,,,,,,,,,,,,,,,,,,,,,,,,,,,,,,,458.4343415800249,None,2,0.22105018101865426,458.4343415800249,None,,,,,,,,,,,,,,,,None,None,None,,None,None,458.70002038701205,None,3,1,0.5517834560014307,458.70002038701205,None,459.2487335346348,None,None,None,None,,23,001,2023_Jan_23_1232,searchDisc5,2021.2.3,60.07629004890177,
images/exp1b_trial_166_colour2_distractors4_r.png,r,3,2,4,1,,,,,0,158,158,158,,,,,,,,,,,,,,,,,,,,,,,,,,,,,,,,,,,,,,,,,,,459.2664514100179,None,2,0.3727310090325773,459.2664514100179,None,,,,,,,,,,,,,,,,None,None,None,,None,None,459.68422249902505,None,3,1,0.9053309840383008,459.68422249902505,None,460.58265027762974,None,None,None,None,,23,001,2023_Jan_23_1232,searchDisc5,2021.2.3,60.07629004890177,
images/exp1b_trial_190_colour0_distractors0_r.png,r,3,0,0,1,,,,,0,159,159,159,,,,,,,,,,,,,,,,,,,,,,,,,,,,,,,,,,,,,,,,,,,460.598316749034,None,2,0.257095668988768,460.598316749034,None,,,,,,,,,,,,,,,,None,None,None,,None,None,460.9014380330336,None,3,1,0.5544346109963953,460.9014380330336,None,461.4493829165993,None,None,None,None,,23,001,2023_Jan_23_1232,searchDisc5,2021.2.3,60.07629004890177,
images/exp1b_trial_43_colour3_distractors4_r.png,r,3,3,4,1,,,,,0,160,160,160,,,,,,,,,,,,,,,,,,,,,,,,,,,,,,,,,,,,,,,,,,,461.4664095210028,None,2,0.20732013805536553,461.4664095210028,None,,,,,,,,,,,,,,,,None,None,None,,None,None,461.7183190220385,None,3,1,0.8373900749720633,461.7183190220385,None,462.5506502166216,None,None,None,None,,23,001,2023_Jan_23_1232,searchDisc5,2021.2.3,60.07629004890177,
images/exp1b_trial_178_colour1_distractors19_l.png,l,1,1,19,1,,,,,0,161,161,161,,,,,,,,,,,,,,,,,,,,,,,,,,,,,,,,,,,,,,,,,,,462.566721625044,None,2,0.18763427605153993,462.566721625044,None,,,,,,,,,,,,,,,,None,None,None,,None,None,462.8019158880343,None,1,1,0.6862480010022409,462.8019158880343,None,463.48294999262436,None,None,None,None,,23,001,2023_Jan_23_1232,searchDisc5,2021.2.3,60.07629004890177,
images/exp1b_trial_73_colour2_distractors31_r.png,r,3,2,31,1,,,,,0,162,162,162,,,,,,,,,,,,,,,,,,,,,,,,,,,,,,,,,,,,,,,,,,,463.50004865502706,None,2,0.20550867199199274,463.50004865502706,None,,,,,,,,,,,,,,,,None,None,None,,None,None,463.7503106610384,None,3,1,0.6530836169840768,463.7503106610384,None,464.3994895376207,None,None,None,None,,23,001,2023_Jan_23_1232,searchDisc5,2021.2.3,60.07629004890177,
images/exp1b_trial_198_colour2_distractors4_r.png,r,3,2,4,1,,,,,0,163,163,163,,,,,,,,,,,,,,,,,,,,,,,,,,,,,,,,,,,,,,,,,,,464.41594449599506,None,2,0.1878535460564308,464.41594449599506,None,,,,,,,,,,,,,,,,None,None,None,,None,None,464.65236005804036,None,3,1,0.6729276440455578,464.65236005804036,None,465.31612186260173,None,None,None,None,,23,001,2023_Jan_23_1232,searchDisc5,2021.2.3,60.07629004890177,
images/exp1b_trial_223_colour0_distractors0_l.png,l,1,0,0,1,,,,,0,164,164,164,,,,,,,,,,,,,,,,,,,,,,,,,,,,,,,,,,,,,,,,,,,465.3318945670035,None,2,0.18964112299727276,465.3318945670035,None,,,,,,,,,,,,,,,,None,None,None,,None,None,465.56868101103464,None,1,1,0.6379016250139102,465.56868101103464,None,466.19945262865514,None,None,None,None,,23,001,2023_Jan_23_1232,searchDisc5,2021.2.3,60.07629004890177,
images/exp1b_trial_181_colour2_distractors4_l.png,l,1,2,4,1,,,,,0,165,165,165,,,,,,,,,,,,,,,,,,,,,,,,,,,,,,,,,,,,,,,,,,,466.2166587440297,None,2,0.2066465530078858,466.2166587440297,None,,,,,,,,,,,,,,,,None,None,None,,None,None,466.4678137770388,None,1,1,0.7045560679980554,466.4678137770388,None,467.16701372163953,None,None,None,None,,23,001,2023_Jan_23_1232,searchDisc5,2021.2.3,60.07629004890177,
images/exp1b_trial_232_colour2_distractors19_r.png,r,3,2,19,1,,,,,0,166,166,166,,,,,,,,,,,,,,,,,,,,,,,,,,,,,,,,,,,,,,,,,,,467.18467553000664,None,2,0.221025841019582,467.18467553000664,None,,,,,,,,,,,,,,,,None,None,None,,None,None,467.45181943604257,None,3,1,0.6712001960258931,467.45181943604257,None,468.11702274861165,None,None,None,None,,23,001,2023_Jan_23_1232,searchDisc5,2021.2.3,60.07629004890177,
images/exp1b_trial_237_colour3_distractors19_r.png,r,3,3,19,1,,,,,0,167,167,167,,,,,,,,,,,,,,,,,,,,,,,,,,,,,,,,,,,,,,,,,,,468.1328958380036,None,2,0.22125362901715562,468.1328958380036,None,,,,,,,,,,,,,,,,None,None,None,,None,None,468.400278457033,None,3,1,0.6040286449715495,468.400278457033,None,469.0005696106062,None,None,None,None,,23,001,2023_Jan_23_1232,searchDisc5,2021.2.3,60.07629004890177,
images/exp1b_trial_24_colour2_distractors31_l.png,l,1,2,31,1,,,,,0,168,168,168,,,,,,,,,,,,,,,,,,,,,,,,,,,,,,,,,,,,,,,,,,,469.0166410719976,None,2,0.38691299594938755,469.0166410719976,None,,,,,,,,,,,,,,,,None,None,None,,None,None,469.4496247480274,None,1,1,0.6730112770455889,469.4496247480274,None,470.11621679561796,None,None,None,None,,23,001,2023_Jan_23_1232,searchDisc5,2021.2.3,60.07629004890177,
images/exp1b_trial_252_colour3_distractors19_l.png,l,1,3,19,1,,,,,0,169,169,169,,,,,,,,,,,,,,,,,,,,,,,,,,,,,,,,,,,,,,,,,,,470.13326733204303,None,2,0.20501158601837233,470.13326733204303,None,,,,,,,,,,,,,,,,None,None,None,,None,None,470.3856350670103,None,3,0,1.06786871899385,470.3856350670103,None,471.4495551256521,None,None,None,None,,23,001,2023_Jan_23_1232,searchDisc5,2021.2.3,60.07629004890177,
images/exp1b_trial_145_colour1_distractors9_l.png,l,1,1,9,1,,,,,0,170,170,170,,,,,,,,,,,,,,,,,,,,,,,,,,,,,,,,,,,,,,,,,,,471.466468217026,None,2,0.6234038749826141,471.466468217026,None,,,,,,,,,,,,,,,,None,None,None,,None,None,472.1332534640096,None,1,1,1.1047973720123991,472.1332534640096,None,473.23316732664244,None,None,None,None,,23,001,2023_Jan_23_1232,searchDisc5,2021.2.3,60.07629004890177,
images/exp1b_trial_108_colour3_distractors9_r.png,r,3,3,9,1,,,,,0,171,171,171,,,,,,,,,,,,,,,,,,,,,,,,,,,,,,,,,,,,,,,,,,,473.24922200100264,None,2,0.16867149504832923,473.24922200100264,None,,,,,,,,,,,,,,,,None,None,None,,None,None,473.4691803000169,None,3,1,0.7720990820089355,473.4691803000169,None,474.2331085696176,None,None,None,None,,23,001,2023_Jan_23_1232,searchDisc5,2021.2.3,60.07629004890177,
images/exp1b_trial_83_colour1_distractors31_l.png,l,1,1,31,1,,,,,0,172,172,172,,,,,,,,,,,,,,,,,,,,,,,,,,,,,,,,,,,,,,,,,,,474.24876690102974,None,2,0.18983350798953325,474.24876690102974,None,,,,,,,,,,,,,,,,None,None,None,,None,None,474.4850001340383,None,1,1,0.9177657479885966,474.4850001340383,None,475.39982317560936,None,None,None,None,,23,001,2023_Jan_23_1232,searchDisc5,2021.2.3,60.07629004890177,
images/exp1b_trial_300_colour3_distractors9_r.png,r,3,3,9,1,,,,,0,173,173,173,,,,,,,,,,,,,,,,,,,,,,,,,,,,,,,,,,,,,,,,,,,475.41628313204274,None,2,0.15449943899875507,475.41628313204274,None,,,,,,,,,,,,,,,,None,None,None,,None,None,475.61729125201236,None,3,1,0.7905093150329776,475.61729125201236,None,476.3998333276075,None,None,None,None,,23,001,2023_Jan_23_1232,searchDisc5,2021.2.3,60.07629004890177,
images/exp1b_trial_230_colour2_distractors4_r.png,r,3,2,4,1,,,,,0,174,174,174,,,,,,,,,,,,,,,,,,,,,,,,,,,,,,,,,,,,,,,,,,,476.4167642670218,None,2,0.20541915897047147,476.4167642670218,None,,,,,,,,,,,,,,,,None,None,None,,None,None,476.66932667104993,None,3,1,0.6208181550027803,476.66932667104993,None,477.28409250963597,None,None,None,None,,23,001,2023_Jan_23_1232,searchDisc5,2021.2.3,60.07629004890177,
images/exp1b_trial_132_colour1_distractors31_r.png,r,3,1,31,1,,,,,0,175,175,175,,,,,,,,,,,,,,,,,,,,,,,,,,,,,,,,,,,,,,,,,,,477.29951534001157,None,2,0.27338614501059055,477.29951534001157,None,,,,,,,,,,,,,,,,None,None,None,,None,None,477.61757571803173,None,3,1,0.8992286939756013,477.61757571803173,None,478.51592524662266,None,None,None,None,,23,001,2023_Jan_23_1232,searchDisc5,2021.2.3,60.07629004890177,
images/exp1b_trial_311_colour2_distractors19_l.png,l,1,2,19,1,,,,,0,176,176,176,,,,,,,,,,,,,,,,,,,,,,,,,,,,,,,,,,,,,,,,,,,478.5326911950251,None,2,0.30518149700947106,478.5326911950251,None,,,,,,,,,,,,,,,,None,None,None,,None,None,478.8832175360294,None,1,1,0.738275034003891,478.8832175360294,None,479.61658029861866,None,None,None,None,,23,001,2023_Jan_23_1232,searchDisc5,2021.2.3,60.07629004890177,
images/exp1b_trial_217_colour3_distractors1_l.png,l,1,3,1,1,,,,,0,177,177,177,,,,,,,,,,,,,,,,,,,,,,,,,,,,,,,,,,,,,,,,,,,479.6337634770316,None,2,0.20435498596634716,479.6337634770316,None,,,,,,,,,,,,,,,,None,None,None,,None,None,479.8848801330314,None,1,1,0.806645018979907,479.8848801330314,None,480.6831982816046,None,None,None,None,,23,001,2023_Jan_23_1232,searchDisc5,2021.2.3,60.07629004890177,
images/exp1b_trial_277_colour2_distractors4_l.png,l,1,2,4,1,,,,,0,178,178,178,,,,,,,,,,,,,,,,,,,,,,,,,,,,,,,,,,,,,,,,,,,480.6996401399956,None,2,0.15793798601953313,480.6996401399956,None,,,,,,,,,,,,,,,,None,None,None,,None,None,480.90195853903424,None,1,1,0.7030508340103552,480.90195853903424,None,481.59995427062387,None,None,None,None,,23,001,2023_Jan_23_1232,searchDisc5,2021.2.3,60.07629004890177,
images/exp1b_trial_292_colour1_distractors31_r.png,r,3,1,31,1,,,,,0,179,179,179,,,,,,,,,,,,,,,,,,,,,,,,,,,,,,,,,,,,,,,,,,,481.6170367820305,None,2,0.15452202002052218,481.6170367820305,None,,,,,,,,,,,,,,,,None,None,None,,None,None,481.8174915360287,None,3,1,0.8365006999811158,481.8174915360287,None,482.6500359086029,None,None,None,None,,23,001,2023_Jan_23_1232,searchDisc5,2021.2.3,60.07629004890177,
images/exp1b_trial_75_colour3_distractors4_r.png,r,3,3,4,1,,,,,0,180,180,180,,,,,,,,,,,,,,,,,,,,,,,,,,,,,,,,,,,,,,,,,,,482.66702617600095,None,2,0.28877065499546006,482.66702617600095,None,,,,,,,,,,,,,,,,None,None,None,,None,None,483.00074642599793,None,3,1,0.8070848970091902,483.00074642599793,None,483.8000477016147,None,None,None,None,,23,001,2023_Jan_23_1232,searchDisc5,2021.2.3,60.07629004890177,
images/exp1b_trial_172_colour3_distractors9_r.png,r,3,3,9,1,,,,,0,181,181,181,,,,,,,,,,,,,,,,,,,,,,,,,,,,,,,,,,,,,,,,,,,483.8168838270358,None,2,0.23832120595034212,483.8168838270358,None,,,,,,,,,,,,,,,,None,None,None,,None,None,484.0999856070266,None,3,1,0.7537340699927881,484.0999856070266,None,484.8510832736327,None,None,None,None,,23,001,2023_Jan_23_1232,searchDisc5,2021.2.3,60.07629004890177,
images/exp1b_trial_207_colour1_distractors1_l.png,l,1,1,1,1,,,,,0,182,182,182,,,,,,,,,,,,,,,,,,,,,,,,,,,,,,,,,,,,,,,,,,,484.86675526504405,None,2,0.22236529900692403,484.86675526504405,None,,,,,,,,,,,,,,,,None,None,None,,None,None,485.13364636100596,None,3,0,0.9379388400120661,485.13364636100596,None,486.06666757362547,None,None,None,None,,23,001,2023_Jan_23_1232,searchDisc5,2021.2.3,60.07629004890177,
images/exp1b_trial_62_colour0_distractors0_r.png,r,3,0,0,1,,,,,0,183,183,183,,,,,,,,,,,,,,,,,,,,,,,,,,,,,,,,,,,,,,,,,,,486.08367960201576,None,2,0.5879077130230144,486.08367960201576,None,,,,,,,,,,,,,,,,None,None,None,,None,None,486.7186325220391,None,3,1,0.5731771409627981,486.7186325220391,None,487.283225899603,None,None,None,None,,23,001,2023_Jan_23_1232,searchDisc5,2021.2.3,60.07629004890177,
images/exp1b_trial_47_colour1_distractors1_l.png,l,1,1,1,1,,,,,0,184,184,184,,,,,,,,,,,,,,,,,,,,,,,,,,,,,,,,,,,,,,,,,,,487.2995319260517,None,2,8.572402443969622,487.2995319260517,None,,,,,,,,,,,,,,,,None,None,None,,None,None,495.91981997003313,None,1,1,0.5719789350405335,495.91981997003313,None,496.48364526264487,None,None,None,None,,23,001,2023_Jan_23_1232,searchDisc5,2021.2.3,60.07629004890177,
images/exp1b_trial_208_colour1_distractors4_l.png,l,1,1,4,1,,,,,0,185,185,185,,,,,,,,,,,,,,,,,,,,,,,,,,,,,,,,,,,,,,,,,,,496.5001911520376,None,2,0.22421962895896286,496.5001911520376,None,,,,,,,,,,,,,,,,None,None,None,,None,None,496.7698563140002,None,1,1,0.8364266690332443,496.7698563140002,None,497.60038621262066,None,None,None,None,,23,001,2023_Jan_23_1232,searchDisc5,2021.2.3,60.07629004890177,
images/exp1b_trial_124_colour3_distractors19_l.png,l,1,3,19,1,,,,,0,186,186,186,,,,,,,,,,,,,,,,,,,,,,,,,,,,,,,,,,,,,,,,,,,497.6165992030292,None,2,0.1883194370311685,497.6165992030292,None,,,,,,,,,,,,,,,,None,None,None,,None,None,497.8532830410404,None,1,1,0.9530060280230828,497.8532830410404,None,498.8000888556533,None,None,None,None,,23,001,2023_Jan_23_1232,searchDisc5,2021.2.3,60.07629004890177,
images/exp1b_trial_167_colour2_distractors9_r.png,r,3,2,9,1,,,,,0,187,187,187,,,,,,,,,,,,,,,,,,,,,,,,,,,,,,,,,,,,,,,,,,,498.81796995800687,None,2,0.17251465999288484,498.81796995800687,None,,,,,,,,,,,,,,,,None,None,None,,None,None,499.0337669120054,None,3,1,0.7710878910147585,499.0337669120054,None,499.8004482746299,None,None,None,None,,23,001,2023_Jan_23_1232,searchDisc5,2021.2.3,60.07629004890177,
images/exp1b_trial_21_colour2_distractors4_l.png,l,1,2,4,1,,,,,0,188,188,188,,,,,,,,,,,,,,,,,,,,,,,,,,,,,,,,,,,,,,,,,,,499.81739834102336,None,2,0.28803439799230546,499.81739834102336,None,,,,,,,,,,,,,,,,None,None,None,,None,None,500.1513863390428,None,1,1,0.7061690510017797,500.1513863390428,None,500.8503327486513,None,None,None,None,,23,001,2023_Jan_23_1232,searchDisc5,2021.2.3,60.07629004890177,
images/exp1b_trial_25_colour3_distractors1_l.png,l,1,3,1,1,,,,,0,189,189,189,,,,,,,,,,,,,,,,,,,,,,,,,,,,,,,,,,,,,,,,,,,500.86903401999734,None,2,0.173489945998881,500.86903401999734,None,,,,,,,,,,,,,,,,None,None,None,,None,None,501.085764293035,None,1,1,0.6869325729785487,501.085764293035,None,501.76621637864156,None,None,None,None,,23,001,2023_Jan_23_1232,searchDisc5,2021.2.3,60.07629004890177,
images/exp1b_trial_128_colour1_distractors1_r.png,r,3,1,1,1,,,,,0,190,190,190,,,,,,,,,,,,,,,,,,,,,,,,,,,,,,,,,,,,,,,,,,,501.78323486901354,None,2,0.13801246602088213,501.78323486901354,None,,,,,,,,,,,,,,,,None,None,None,,None,None,501.9693205759977,None,3,1,0.5733869629912078,501.9693205759977,None,502.53386474561995,None,None,None,None,,23,001,2023_Jan_23_1232,searchDisc5,2021.2.3,60.07629004890177,
images/exp1b_trial_94_colour0_distractors0_r.png,r,3,0,0,1,,,,,0,191,191,191,,,,,,,,,,,,,,,,,,,,,,,,,,,,,,,,,,,,,,,,,,,502.5507495390484,None,2,0.28892652003560215,502.5507495390484,None,,,,,,,,,,,,,,,,None,None,None,,None,None,502.88337838399457,None,3,1,0.5406171670183539,502.88337838399457,None,503.4183208526054,None,None,None,None,,23,001,2023_Jan_23_1232,searchDisc5,2021.2.3,60.07629004890177,
images/exp1b_trial_284_colour3_distractors19_l.png,l,1,3,19,1,,,,,0,192,192,192,,,,,,,,,,,,,,,,,,,,,,,,,,,,,,,,,,,,,,,,,,,503.43475583702093,None,2,0.2855260770302266,503.43475583702093,None,,,,,,,,,,,,,,,,None,None,None,,None,None,503.7675607550191,None,1,1,0.5878378750057891,503.7675607550191,None,504.35055295160856,None,None,None,None,,23,001,2023_Jan_23_1232,searchDisc5,2021.2.3,60.07629004890177,
images/exp1b_trial_257_colour1_distractors4_r.png,r,3,1,4,1,,,,,0,193,193,193,,,,,,,,,,,,,,,,,,,,,,,,,,,,,,,,,,,,,,,,,,,504.36761345202103,None,2,0.2577672080369666,504.36761345202103,None,,,,,,,,,,,,,,,,None,None,None,,None,None,504.67043655901216,None,3,1,0.6549356940086,504.67043655901216,None,505.3172078856558,None,None,None,None,,23,001,2023_Jan_23_1232,searchDisc5,2021.2.3,60.07629004890177,
images/exp1b_trial_224_colour1_distractors1_r.png,r,3,1,1,1,,,,,0,194,194,194,,,,,,,,,,,,,,,,,,,,,,,,,,,,,,,,,,,,,,,,,,,505.33595005300594,None,2,0.25269592902623117,505.33595005300594,None,,,,,,,,,,,,,,,,None,None,None,,None,None,505.6341364510008,None,3,1,0.6067172670154832,505.6341364510008,None,506.23396339259926,None,None,None,None,,23,001,2023_Jan_23_1232,searchDisc5,2021.2.3,60.07629004890177,
images/exp1b_trial_201_colour2_distractors31_r.png,r,3,2,31,1,,,,,0,195,195,195,,,,,,,,,,,,,,,,,,,,,,,,,,,,,,,,,,,,,,,,,,,506.25113904103637,None,2,0.22183549602050334,506.25113904103637,None,,,,,,,,,,,,,,,,None,None,None,,None,None,506.5174068080378,None,3,1,0.8364576359745115,506.5174068080378,None,507.35025914261934,None,None,None,None,,23,001,2023_Jan_23_1232,searchDisc5,2021.2.3,60.07629004890177,
images/exp1b_trial_191_colour0_distractors0_l.png,l,1,0,0,1,,,,,0,196,196,196,,,,,,,,,,,,,,,,,,,,,,,,,,,,,,,,,,,,,,,,,,,507.36710896901786,None,2,0.23749355401378125,507.36710896901786,None,,,,,,,,,,,,,,,,None,None,None,,None,None,507.65050305001205,None,1,1,0.5253443130059168,507.65050305001205,None,508.16836923463853,None,None,None,None,,23,001,2023_Jan_23_1232,searchDisc5,2021.2.3,60.07629004890177,
images/exp1b_trial_45_colour3_distractors19_r.png,r,3,3,19,1,,,,,0,197,197,197,,,,,,,,,,,,,,,,,,,,,,,,,,,,,,,,,,,,,,,,,,,508.18422574404394,None,2,0.3202005749917589,508.18422574404394,None,,,,,,,,,,,,,,,,None,None,None,,None,None,508.55160158203216,None,3,1,1.270633573003579,508.55160158203216,None,509.8174298956117,None,None,None,None,,23,001,2023_Jan_23_1232,searchDisc5,2021.2.3,60.07629004890177,
images/exp1b_trial_231_colour2_distractors9_r.png,r,3,2,9,1,,,,,0,198,198,198,,,,,,,,,,,,,,,,,,,,,,,,,,,,,,,,,,,,,,,,,,,509.83378238300793,None,2,0.28783587797079235,509.83378238300793,None,,,,,,,,,,,,,,,,None,None,None,,None,None,510.1677664589952,None,3,1,0.5235551989753731,510.1677664589952,None,510.68515463864316,None,None,None,None,,23,001,2023_Jan_23_1232,searchDisc5,2021.2.3,60.07629004890177,
images/exp1b_trial_89_colour3_distractors1_l.png,l,1,3,1,1,,,,,0,199,199,199,,,,,,,,,,,,,,,,,,,,,,,,,,,,,,,,,,,,,,,,,,,510.7004662430263,None,2,0.2367422460229136,510.7004662430263,None,,,,,,,,,,,,,,,,None,None,None,,None,None,510.98513194400584,None,1,1,1.1907029279973358,510.98513194400584,None,512.167990775645,None,None,None,None,,23,001,2023_Jan_23_1232,searchDisc5,2021.2.3,60.07629004890177,
images/exp1b_trial_291_colour1_distractors19_r.png,r,3,1,19,1,,,,,0,200,200,200,,,,,,,,,,,,,,,,,,,,,,,,,,,,,,,,,,,,,,,,,,,512.1862357970094,None,2,0.42156067298492417,512.1862357970094,None,,,,,,,,,,,,,,,,None,None,None,,None,None,512.6533393540303,None,3,1,0.6865989289944991,512.6533393540303,None,513.3352193176222,None,None,None,None,,23,001,2023_Jan_23_1232,searchDisc5,2021.2.3,60.07629004890177,
images/exp1b_trial_162_colour1_distractors9_r.png,r,3,1,9,1,,,,,0,201,201,201,,,,,,,,,,,,,,,,,,,,,,,,,,,,,,,,,,,,,,,,,,,513.3508068789961,None,2,0.2893419680185616,513.3508068789961,None,,,,,,,,,,,,,,,,None,None,None,,None,None,513.6848969760467,None,3,1,0.7363910200074315,513.6848969760467,None,514.4175033576146,None,None,None,None,,23,001,2023_Jan_23_1232,searchDisc5,2021.2.3,60.07629004890177,
images/exp1b_trial_281_colour3_distractors1_l.png,l,1,3,1,1,,,,,0,202,202,202,,,,,,,,,,,,,,,,,,,,,,,,,,,,,,,,,,,,,,,,,,,514.4339941330254,None,2,0.22217377997003496,514.4339941330254,None,,,,,,,,,,,,,,,,None,None,None,,None,None,514.7028917480493,None,3,0,0.9722358739818446,514.7028917480493,None,515.6674339236167,None,None,None,None,,23,001,2023_Jan_23_1232,searchDisc5,2021.2.3,60.07629004890177,
images/exp1b_trial_176_colour1_distractors4_l.png,l,1,1,4,1,,,,,0,203,203,203,,,,,,,,,,,,,,,,,,,,,,,,,,,,,,,,,,,,,,,,,,,515.6840243500192,None,2,0.5567022829782218,515.6840243500192,None,,,,,,,,,,,,,,,,None,None,None,,None,None,516.2866493260371,None,1,1,1.0054959050030448,516.2866493260371,None,517.2853868246136,None,None,None,None,,23,001,2023_Jan_23_1232,searchDisc5,2021.2.3,60.07629004890177,
images/exp1b_trial_130_colour1_distractors9_r.png,r,3,1,9,1,,,,,0,204,204,204,,,,,,,,,,,,,,,,,,,,,,,,,,,,,,,,,,,,,,,,,,,517.3000333080417,None,2,0.22136238298844546,517.3000333080417,None,,,,,,,,,,,,,,,,None,None,None,,None,None,517.568750934035,None,3,1,0.6197127240011469,517.568750934035,None,518.1842323126446,None,None,None,None,,23,001,2023_Jan_23_1232,searchDisc5,2021.2.3,60.07629004890177,
images/exp1b_trial_99_colour1_distractors19_r.png,r,3,1,19,1,,,,,0,205,205,205,,,,,,,,,,,,,,,,,,,,,,,,,,,,,,,,,,,,,,,,,,,518.200647728052,None,2,0.2380293839960359,518.200647728052,None,,,,,,,,,,,,,,,,None,None,None,,None,None,518.4869716850226,None,3,1,0.7876411390025169,518.4869716850226,None,519.2676649916509,None,None,None,None,,23,001,2023_Jan_23_1232,searchDisc5,2021.2.3,60.07629004890177,
images/exp1b_trial_100_colour1_distractors31_r.png,r,3,1,31,1,,,,,0,206,206,206,,,,,,,,,,,,,,,,,,,,,,,,,,,,,,,,,,,,,,,,,,,519.28706048202,None,2,0.20445599203230813,519.28706048202,None,,,,,,,,,,,,,,,,None,None,None,,None,None,519.5371212770115,None,3,1,0.6855336689623073,519.5371212770115,None,520.2176531106059,None,None,None,None,,23,001,2023_Jan_23_1232,searchDisc5,2021.2.3,60.07629004890177,
images/exp1b_trial_199_colour2_distractors9_r.png,r,3,2,9,1,,,,,0,207,207,207,,,,,,,,,,,,,,,,,,,,,,,,,,,,,,,,,,,,,,,,,,,520.2347840730217,None,2,0.2046463550068438,520.2347840730217,None,,,,,,,,,,,,,,,,None,None,None,,None,None,520.4863885380328,None,3,1,0.7065135379671119,520.4863885380328,None,521.1851674806501,None,None,None,None,,23,001,2023_Jan_23_1232,searchDisc5,2021.2.3,60.07629004890177,
images/exp1b_trial_152_colour2_distractors31_l.png,l,1,2,31,1,,,,,0,208,208,208,,,,,,,,,,,,,,,,,,,,,,,,,,,,,,,,,,,,,,,,,,,521.2005183250294,None,2,0.22244514501653612,521.2005183250294,None,,,,,,,,,,,,,,,,None,None,None,,None,None,521.4697789600468,None,1,1,0.6515692039974965,521.4697789600468,None,522.1170740356145,None,None,None,None,,23,001,2023_Jan_23_1232,searchDisc5,2021.2.3,60.07629004890177,
images/exp1b_trial_115_colour1_distractors31_l.png,l,1,1,31,1,,,,,0,209,209,209,,,,,,,,,,,,,,,,,,,,,,,,,,,,,,,,,,,,,,,,,,,522.1350387700368,None,2,0.19139986101072282,522.1350387700368,None,,,,,,,,,,,,,,,,None,None,None,,None,None,522.3700292130234,None,1,1,0.5994912720052525,522.3700292130234,None,522.9676014976401,None,None,None,None,,23,001,2023_Jan_23_1232,searchDisc5,2021.2.3,60.07629004890177,
images/exp1b_trial_212_colour2_distractors1_l.png,l,1,2,1,1,,,,,0,210,210,210,,,,,,,,,,,,,,,,,,,,,,,,,,,,,,,,,,,,,,,,,,,522.9863722310401,None,2,0.2045782379573211,522.9863722310401,None,,,,,,,,,,,,,,,,None,None,None,,None,None,523.2345579770044,None,1,1,0.5733488060068339,523.2345579770044,None,523.8011100556294,None,None,None,None,,23,001,2023_Jan_23_1232,searchDisc5,2021.2.3,60.07629004890177,
images/exp1b_trial_20_colour2_distractors1_l.png,l,1,2,1,1,,,,,0,211,211,211,,,,,,,,,,,,,,,,,,,,,,,,,,,,,,,,,,,,,,,,,,,523.8175934519968,None,2,0.15558595000766218,523.8175934519968,None,,,,,,,,,,,,,,,,None,None,None,,None,None,524.0197819159948,None,1,1,0.6557712979847565,524.0197819159948,None,524.6678448916471,None,None,None,None,,23,001,2023_Jan_23_1232,searchDisc5,2021.2.3,60.07629004890177,
images/exp1b_trial_243_colour1_distractors31_l.png,l,1,1,31,1,,,,,0,212,212,212,,,,,,,,,,,,,,,,,,,,,,,,,,,,,,,,,,,,,,,,,,,524.6848577790079,None,2,0.106613487994764,524.6848577790079,None,,,,,,,,,,,,,,,,None,None,None,,None,None,524.834554532019,None,1,1,0.8346835279953666,524.834554532019,None,525.6678333786374,None,None,None,None,,23,001,2023_Jan_23_1232,searchDisc5,2021.2.3,60.07629004890177,
images/exp1b_trial_240_colour1_distractors4_l.png,l,1,1,4,1,,,,,0,213,213,213,,,,,,,,,,,,,,,,,,,,,,,,,,,,,,,,,,,,,,,,,,,525.6848537170445,None,2,0.15467300702584907,525.6848537170445,None,,,,,,,,,,,,,,,,None,None,None,,None,None,525.8872449700139,None,1,1,0.7061522139701992,525.8872449700139,None,526.5845127166074,None,None,None,None,,23,001,2023_Jan_23_1232,searchDisc5,2021.2.3,60.07629004890177,
images/exp1b_trial_82_colour1_distractors19_l.png,l,1,1,19,1,,,,,0,214,214,214,,,,,,,,,,,,,,,,,,,,,,,,,,,,,,,,,,,,,,,,,,,526.6014476540149,None,2,0.1879513009916991,526.6014476540149,None,,,,,,,,,,,,,,,,None,None,None,,None,None,526.8371464090305,None,1,1,0.6376892479602247,526.8371464090305,None,527.4678771716251,None,None,None,None,,23,001,2023_Jan_23_1232,searchDisc5,2021.2.3,60.07629004890177,
images/exp1b_trial_249_colour3_distractors1_l.png,l,1,3,1,1,,,,,0,215,215,215,,,,,,,,,,,,,,,,,,,,,,,,,,,,,,,,,,,,,,,,,,,527.4843091700459,None,2,0.12374916399130598,527.4843091700459,None,,,,,,,,,,,,,,,,None,None,None,,None,None,527.6522404180141,None,1,1,0.8538503849995323,527.6522404180141,None,528.5013077506271,None,None,None,None,,23,001,2023_Jan_23_1232,searchDisc5,2021.2.3,60.07629004890177,
images/exp1b_trial_179_colour1_distractors31_l.png,l,1,1,31,1,,,,,0,216,216,216,,,,,,,,,,,,,,,,,,,,,,,,,,,,,,,,,,,,,,,,,,,528.5200382120092,None,2,0.1051611439906992,528.5200382120092,None,,,,,,,,,,,,,,,,None,None,None,,None,None,528.6699855590123,None,1,1,0.6890175919979811,528.6699855590123,None,529.3522470216092,None,None,None,None,,23,001,2023_Jan_23_1232,searchDisc5,2021.2.3,60.07629004890177,
images/exp1b_trial_56_colour2_distractors31_l.png,l,1,2,31,1,,,,,0,217,217,217,,,,,,,,,,,,,,,,,,,,,,,,,,,,,,,,,,,,,,,,,,,529.3696407370153,None,2,0.10328122798819095,529.3696407370153,None,,,,,,,,,,,,,,,,None,None,None,,None,None,529.5178888710216,None,1,1,0.9905961300246418,529.5178888710216,None,530.5012768386339,None,None,None,None,,23,001,2023_Jan_23_1232,searchDisc5,2021.2.3,60.07629004890177,
images/exp1b_trial_305_colour1_distractors9_l.png,l,1,1,9,1,,,,,0,218,218,218,,,,,,,,,,,,,,,,,,,,,,,,,,,,,,,,,,,,,,,,,,,530.517495520995,None,2,0.16929723200155422,530.517495520995,None,,,,,,,,,,,,,,,,None,None,None,,None,None,530.7355027390295,None,1,1,0.6730663329944946,530.7355027390295,None,531.4023566976364,None,None,None,None,,23,001,2023_Jan_23_1232,searchDisc5,2021.2.3,60.07629004890177,
images/exp1b_trial_209_colour1_distractors9_l.png,l,1,1,9,1,,,,,0,219,219,219,,,,,,,,,,,,,,,,,,,,,,,,,,,,,,,,,,,,,,,,,,,531.4193336089957,None,2,0.13848707597935572,531.4193336089957,None,,,,,,,,,,,,,,,,None,None,None,,None,None,531.6034095670329,None,1,1,0.5369798229658045,531.6034095670329,None,532.134766177606,None,None,None,None,,23,001,2023_Jan_23_1232,searchDisc5,2021.2.3,60.07629004890177,
images/exp1b_trial_238_colour3_distractors31_r.png,r,3,3,31,1,,,,,0,220,220,220,,,,,,,,,,,,,,,,,,,,,,,,,,,,,,,,,,,,,,,,,,,532.1518905740231,None,2,0.1064279759884812,532.1518905740231,None,,,,,,,,,,,,,,,,None,None,None,,None,None,532.3037967230193,None,3,1,1.1515311670373194,532.3037967230193,None,533.4514234176429,None,None,None,None,,23,001,2023_Jan_23_1232,searchDisc5,2021.2.3,60.07629004890177,
images/exp1b_trial_86_colour2_distractors9_l.png,l,1,2,9,1,,,,,0,221,221,221,,,,,,,,,,,,,,,,,,,,,,,,,,,,,,,,,,,,,,,,,,,533.4698611480417,None,2,0.4232606169534847,533.4698611480417,None,,,,,,,,,,,,,,,,None,None,None,,None,None,533.9352174550295,None,1,1,0.8212847039685585,533.9352174550295,None,534.7524011966132,None,None,None,None,,23,001,2023_Jan_23_1232,searchDisc5,2021.2.3,60.07629004890177,
images/exp1b_trial_76_colour3_distractors9_r.png,r,3,3,9,1,,,,,0,222,222,222,,,,,,,,,,,,,,,,,,,,,,,,,,,,,,,,,,,,,,,,,,,534.7681053840206,None,2,0.4063100360217504,534.7681053840206,None,,,,,,,,,,,,,,,,None,None,None,,None,None,535.2212125380174,None,3,1,0.9181856359937228,535.2212125380174,None,536.1342371526232,None,None,None,None,,23,001,2023_Jan_23_1232,searchDisc5,2021.2.3,60.07629004890177,
images/exp1b_trial_245_colour2_distractors4_l.png,l,1,2,4,1,,,,,0,223,223,223,,,,,,,,,,,,,,,,,,,,,,,,,,,,,,,,,,,,,,,,,,,536.1514237230294,None,2,0.2559383200132288,536.1514237230294,None,,,,,,,,,,,,,,,,None,None,None,,None,None,536.4525283970288,None,1,1,0.587914391013328,536.4525283970288,None,537.0342633086082,None,None,None,None,,23,001,2023_Jan_23_1232,searchDisc5,2021.2.3,60.07629004890177,
images/exp1b_trial_101_colour2_distractors1_r.png,r,3,2,1,1,,,,,0,224,224,224,,,,,,,,,,,,,,,,,,,,,,,,,,,,,,,,,,,,,,,,,,,537.0522149550379,None,2,0.25614898098865524,537.0522149550379,None,,,,,,,,,,,,,,,,None,None,None,,None,None,537.3525170110515,None,3,1,0.672585463966243,537.3525170110515,None,538.0183104386495,None,None,None,None,,23,001,2023_Jan_23_1232,searchDisc5,2021.2.3,60.07629004890177,
