ImageFile,targ_side,correctAnswer,colour,distNo,targetType,trials_2.thisRepN,trials_2.thisTrialN,trials_2.thisN,trials_2.thisIndex,trials.thisRepN,trials.thisTrialN,trials.thisN,trials.thisIndex,text_6.started,text_6.stopped,buttonBox.keys,buttonBox.rt,buttonBox.started,buttonBox.stopped,text_7.started,text_7.stopped,buttonBox_3.keys,buttonBox_3.rt,buttonBox_3.started,buttonBox_3.stopped,text_8.started,text_8.stopped,buttonBox_4.keys,buttonBox_4.rt,buttonBox_4.started,buttonBox_4.stopped,text_9.started,text_9.stopped,buttonBox_5.keys,buttonBox_5.rt,buttonBox_5.started,buttonBox_5.stopped,text_2.started,text_2.stopped,buttonBox_6.keys,buttonBox_6.rt,buttonBox_6.started,buttonBox_6.stopped,text_5.started,text_5.stopped,buttonBox_7.keys,buttonBox_7.rt,image_2.started,image_2.stopped,image_3.started,image_3.stopped,buttonBox_8.keys,buttonBox_8.rt,buttonBox_8.started,buttonBox_8.stopped,polygon.started,polygon.stopped,buttonBox_9.keys,buttonBox_9.rt,buttonBox_9.started,buttonBox_9.stopped,image.started,image.stopped,buttonBox_10.keys,buttonBox_10.corr,buttonBox_10.rt,buttonBox_10.started,buttonBox_10.stopped,text_4.started,text_4.stopped,text.started,text.stopped,buttonBox_11.keys,buttonBox_11.rt,buttonBox_11.started,buttonBox_11.stopped,targetTypeInstruction.started,targetTypeInstruction.stopped,buttonBox_2.keys,buttonBox_2.rt,buttonBox_2.started,buttonBox_2.stopped,dispStimuli.started,dispStimuli.stopped,buttonBox_12.keys,buttonBox_12.corr,buttonBox_12.rt,buttonBox_12.started,buttonBox_12.stopped,breakMessage.started,breakMessage.stopped,buttonBox_13.keys,buttonBox_13.started,buttonBox_13.stopped,buttonBox_13.rt,participant,session,date,expName,psychopyVersion,frameRate,
,,,,,,,,,,,,,,71.00472013803665,None,2,12.63067535700975,71.00472013803665,None,,,,,,,,,,,,,,,,,,,,,,,,,,,,,,,,,,,,,,,,,,,,,,,,,,,,,,,,,,,,,,,,,,,,,,,,,,,,,25,001,2023_Jan_23_1439,searchDisc5,2021.2.3,60.06044604829104,
,,,,,,,,,,,,,,,,,,,,83.63589873001911,None,2,22.196399835986085,83.63589873001911,None,,,,,,,,,,,,,,,,,,,,,,,,,,,,,,,,,,,,,,,,,,,,,,,,,,,,,,,,,,,,,,,,,,,,,,,25,001,2023_Jan_23_1439,searchDisc5,2021.2.3,60.06044604829104,
,,,,,,,,,,,,,,,,,,,,,,,,,,105.836548951047,None,2,3.0148151030298322,105.836548951047,None,,,,,,,,,,,,,,,,,,,,,,,,,,,,,,,,,,,,,,,,,,,,,,,,,,,,,,,,,,,,,,,,,25,001,2023_Jan_23_1439,searchDisc5,2021.2.3,60.06044604829104,
,,,,,,,,,,,,,,,,,,,,,,,,,,,,,,,,108.8533312130021,None,2,5.931566304992884,108.8533312130021,None,,,,,,,,,,,,,,,,,,,,,,,,,,,,,,,,,,,,,,,,,,,,,,,,,,,,,,,,,,,25,001,2023_Jan_23_1439,searchDisc5,2021.2.3,60.06044604829104,
,,,,,,,,,,,,,,,,,,,,,,,,,,,,,,,,,,,,,,114.78667605301598,None,2,18.91523997799959,115.77209840802243,None,,,,,,,,,,,,,,,,,,,,,,,,,,,,,,,,,,,,,,,,,,,,,,,,,,,,,25,001,2023_Jan_23_1439,searchDisc5,2021.2.3,60.06044604829104,
,,,,,,,,,,,,,,,,,,,,,,,,,,,,,,,,,,,,,,,,,,,,134.6873921410297,None,2,6.314839580038097,,,,,,,,,,,,,,,,,,,,,,,,,,,,,,,,,,,,,,,,,,,,,,,,,25,001,2023_Jan_23_1439,searchDisc5,2021.2.3,60.06044604829104,
,,,,,,,,,,,,,,,,,,,,,,,,,,,,,,,,,,,,,,,,,,,,,,,,144.00419530301588,None,144.00419530301588,None,2,11.714643245970365,144.00419530301588,None,,,,,,,,,,,,,,,,,,,,,,,,,,,,,,,,,,,,,,,,,25,001,2023_Jan_23_1439,searchDisc5,2021.2.3,60.06044604829104,
Practice arrays/exp1a_trial_1_colour1_distractors4_r.png,r,3,,,,0,0,0,1,,,,,,,,,,,,,,,,,,,,,,,,,,,,,,,,,,,,,,,,,,,,,,,155.73757465201197,None,2,1.8360333800083026,155.73757465201197,None,157.64022254000884,None,1,0,4.755776127974968,157.64022254000884,None,162.38840268104104,None,,,,,,,,,,,,,,,,,,,,,,,,,,25,001,2023_Jan_23_1439,searchDisc5,2021.2.3,60.06044604829104,
Practice arrays/exp1a_trial_10_colour3_distractors1_r.png,r,3,,,,0,1,1,4,,,,,,,,,,,,,,,,,,,,,,,,,,,,,,,,,,,,,,,,,,,,,,,164.39004392700735,None,2,1.5463966339593753,164.39004392700735,None,165.98852046002867,None,1,0,3.2560528310132213,165.98852046002867,None,169.23835496703396,None,,,,,,,,,,,,,,,,,,,,,,,,,,25,001,2023_Jan_23_1439,searchDisc5,2021.2.3,60.06044604829104,
Practice arrays/exp1a_trial_25_colour3_distractors1_l.png,l,1,,,,0,2,2,11,,,,,,,,,,,,,,,,,,,,,,,,,,,,,,,,,,,,,,,,,,,,,,,171.24056358303642,None,2,1.582896986976266,171.24056358303642,None,172.87415983102983,None,1,1,2.96869259304367,172.87415983102983,None,175.83858814602718,None,,,,,,,,,,,,,,,,,,,,,,,,,,25,001,2023_Jan_23_1439,searchDisc5,2021.2.3,60.06044604829104,
Practice arrays/exp1a_trial_18_colour1_distractors19_l.png,l,1,,,,0,3,3,8,,,,,,,,,,,,,,,,,,,,,,,,,,,,,,,,,,,,,,,,,,,,,,,177.8401563350344,None,2,0.5325187579728663,177.8401563350344,None,178.4213460140163,None,1,1,2.049859350954648,178.4213460140163,None,180.4718423660379,None,,,,,,,,,,,,,,,,,,,,,,,,,,25,001,2023_Jan_23_1439,searchDisc5,2021.2.3,60.06044604829104,
Practice arrays/exp1a_trial_12_colour3_distractors9_r.png,r,3,,,,0,4,4,5,,,,,,,,,,,,,,,,,,,,,,,,,,,,,,,,,,,,,,,,,,,,,,,182.47410783701343,None,2,0.24722215096699074,182.47410783701343,None,182.77234821103048,None,3,1,1.2709176639909856,182.77234821103048,None,184.0383717980003,None,,,,,,,,,,,,,,,,,,,,,,,,,,25,001,2023_Jan_23_1439,searchDisc5,2021.2.3,60.06044604829104,
Practice arrays/exp1a_trial_31_colour0_distractors0_l.png,l,1,,,,0,5,5,15,,,,,,,,,,,,,,,,,,,,,,,,,,,,,,,,,,,,,,,,,,,,,,,186.04055402701488,None,2,0.7971818289952353,186.04055402701488,None,186.88905240502208,None,1,1,1.2882232789997943,186.88905240502208,None,188.17220527201425,None,,,,,,,,,,,,,,,,,,,,,,,,,,25,001,2023_Jan_23_1439,searchDisc5,2021.2.3,60.06044604829104,
Practice arrays/exp1a_trial_16_colour1_distractors4_l.png,l,1,,,,0,6,6,13,,,,,,,,,,,,,,,,,,,,,,,,,,,,,,,,,,,,,,,,,,,,,,,190.17436834605178,None,2,0.8466258100233972,190.17436834605178,None,191.0745572950109,None,1,1,1.119885937019717,191.0745572950109,None,192.18916434404673,None,,,,,,,,,,,,,,,,,,,,,,,,,,25,001,2023_Jan_23_1439,searchDisc5,2021.2.3,60.06044604829104,
Practice arrays/exp1a_trial_0_colour1_distractors1_r.png,r,3,,,,0,7,7,0,,,,,,,,,,,,,,,,,,,,,,,,,,,,,,,,,,,,,,,,,,,,,,,194.1907257680432,None,2,1.2990284700063057,194.1907257680432,None,195.54135291004786,None,3,1,1.537192440009676,195.54135291004786,None,197.07243839401053,None,,,,,,,,,,,,,,,,,,,,,,,,,,25,001,2023_Jan_23_1439,searchDisc5,2021.2.3,60.06044604829104,
Practice arrays/exp1a_trial_27_colour3_distractors9_l.png,l,1,,,,0,8,8,12,,,,,,,,,,,,,,,,,,,,,,,,,,,,,,,,,,,,,,,,,,,,,,,199.07418849301757,None,2,0.5805838680244051,199.07418849301757,None,199.70613830100046,None,1,1,1.0185819680336863,199.70613830100046,None,200.72246469004313,None,,,,,,,,,,,,,,,,,,,,,,,,,,25,001,2023_Jan_23_1439,searchDisc5,2021.2.3,60.06044604829104,
Practice arrays/exp1a_trial_14_colour3_distractors31_r.png,r,3,,,,0,9,9,6,,,,,,,,,,,,,,,,,,,,,,,,,,,,,,,,,,,,,,,,,,,,,,,202.7243489420507,None,2,0.08141426200745627,202.7243489420507,None,202.8580503980047,None,3,1,1.3827592090237886,202.8580503980047,None,204.23921234405134,None,,,,,,,,,,,,,,,,,,,,,,,,,,25,001,2023_Jan_23_1439,searchDisc5,2021.2.3,60.06044604829104,
Practice arrays/exp1a_trial_21_colour2_distractors4_l.png,l,1,,,,0,10,10,9,,,,,,,,,,,,,,,,,,,,,,,,,,,,,,,,,,,,,,,,,,,,,,,206.24146020703483,None,2,0.563878454035148,206.24146020703483,None,206.85565525502898,None,1,1,0.9035168269765563,206.85565525502898,None,207.7560485030408,None,,,,,,,,,,,,,,,,,,,,,,,,,,25,001,2023_Jan_23_1439,searchDisc5,2021.2.3,60.06044604829104,
Practice arrays/exp1a_trial_23_colour2_distractors19_l.png,l,1,,,,0,11,11,10,,,,,,,,,,,,,,,,,,,,,,,,,,,,,,,,,,,,,,,,,,,,,,,209.75785113405436,None,2,0.13439893600298092,209.75785113405436,None,209.94184619700536,None,1,1,1.014231793989893,209.94184619700536,None,210.95613794605015,None,,,,,,,,,,,,,,,,,,,,,,,,,,25,001,2023_Jan_23_1439,searchDisc5,2021.2.3,60.06044604829104,
Practice arrays/exp1a_trial_17_colour1_distractors9_l.png,l,1,,,,0,12,12,7,,,,,,,,,,,,,,,,,,,,,,,,,,,,,,,,,,,,,,,,,,,,,,,212.95818920305464,None,2,0.4643111570039764,212.95818920305464,None,213.47452089900617,None,1,1,0.870417482976336,213.47452089900617,None,214.33945277001476,None,,,,,,,,,,,,,,,,,,,,,,,,,,25,001,2023_Jan_23_1439,searchDisc5,2021.2.3,60.06044604829104,
Practice arrays/exp1a_trial_7_colour2_distractors9_r.png,r,3,,,,0,13,13,2,,,,,,,,,,,,,,,,,,,,,,,,,,,,,,,,,,,,,,,,,,,,,,,216.34131887601689,None,2,0.4302431919495575,216.34131887601689,None,216.8230986170238,None,3,1,1.087307374982629,216.8230986170238,None,217.90628080203896,None,,,,,,,,,,,,,,,,,,,,,,,,,,25,001,2023_Jan_23_1439,searchDisc5,2021.2.3,60.06044604829104,
Practice arrays/exp1a_trial_8_colour2_distractors19_r.png,r,3,,,,0,14,14,3,,,,,,,,,,,,,,,,,,,,,,,,,,,,,,,,,,,,,,,,,,,,,,,219.9084246440325,None,2,0.4808124099508859,219.9084246440325,None,220.4419269580394,None,3,1,0.9849507560138591,220.4419269580394,None,221.42307440604782,None,,,,,,,,,,,,,,,,,,,,,,,,,,25,001,2023_Jan_23_1439,searchDisc5,2021.2.3,60.06044604829104,
Practice arrays/exp1a_trial_30_colour0_distractors0_r.png,r,3,,,,0,15,15,14,,,,,,,,,,,,,,,,,,,,,,,,,,,,,,,,,,,,,,,,,,,,,,,223.42522764805472,None,2,0.4473776640370488,223.42522764805472,None,223.92349095700774,None,3,1,0.8227870120317675,223.92349095700774,None,224.73995960201137,None,,,,,,,,,,,,,,,,,,,,,,,,,,25,001,2023_Jan_23_1439,searchDisc5,2021.2.3,60.06044604829104,
,,,,,,,,,,,,,,,,,,,,,,,,,,,,,,,,,,,,,,,,,,,,,,,,,,,,,,,,,,,,,,,,,,,,,,,226.82526676001726,None,2,4.36523286398733,227.80848504503956,None,,,,,,,,,,,,,,,,,,,,25,001,2023_Jan_23_1439,searchDisc5,2021.2.3,60.06044604829104,
images/exp1b_trial_180_colour2_distractors1_l.png,l,1,2,1,1,,,,,0,0,0,0,,,,,,,,,,,,,,,,,,,,,,,,,,,,,,,,,,,,,,,,,,,236.80851778405486,None,2,1.4101775159942918,236.80851778405486,None,,,,,,,,,,,,,,,,232.77571739500854,None,2,2.066711869032588,234.74203961499734,None,238.27955682802713,None,1,1,2.2168132869992405,238.27955682802713,None,240.50717307463054,None,None,None,None,,25,001,2023_Jan_23_1439,searchDisc5,2021.2.3,60.06044604829104,
images/exp1b_trial_140_colour3_distractors9_r.png,r,3,3,9,1,,,,,0,1,1,1,,,,,,,,,,,,,,,,,,,,,,,,,,,,,,,,,,,,,,,,,,,240.52370941999834,None,2,1.1394798010005616,240.52370941999834,None,,,,,,,,,,,,,,,,None,None,None,,None,None,241.70858563901857,None,3,1,1.5015019169659354,241.70858563901857,None,243.20722276230808,None,None,None,None,,25,001,2023_Jan_23_1439,searchDisc5,2021.2.3,60.06044604829104,
images/exp1b_trial_57_colour3_distractors1_l.png,l,1,3,1,1,,,,,0,2,2,2,,,,,,,,,,,,,,,,,,,,,,,,,,,,,,,,,,,,,,,,,,,243.22316676203627,None,2,0.8528186440235004,243.22316676203627,None,,,,,,,,,,,,,,,,None,None,None,,None,None,244.12362407904584,None,1,1,1.0719298309995793,244.12362407904584,None,245.1906561553129,None,None,None,None,,25,001,2023_Jan_23_1439,searchDisc5,2021.2.3,60.06044604829104,
images/exp1b_trial_313_colour3_distractors1_l.png,l,1,3,1,1,,,,,0,3,3,3,,,,,,,,,,,,,,,,,,,,,,,,,,,,,,,,,,,,,,,,,,,245.2091988430475,None,2,0.5559930179733783,245.2091988430475,None,,,,,,,,,,,,,,,,None,None,None,,None,None,245.80879556504078,None,1,1,0.7871711439802311,245.80879556504078,None,246.59069591233273,None,None,None,None,,25,001,2023_Jan_23_1439,searchDisc5,2021.2.3,60.06044604829104,
images/exp1b_trial_220_colour3_distractors19_l.png,l,1,3,19,1,,,,,0,4,4,4,,,,,,,,,,,,,,,,,,,,,,,,,,,,,,,,,,,,,,,,,,,246.60701006802265,None,2,0.5200192999909632,246.60701006802265,None,,,,,,,,,,,,,,,,None,None,None,,None,None,247.17322341102408,None,1,1,1.0364579380257055,247.17322341102408,None,248.20755142231937,None,None,None,None,,25,001,2023_Jan_23_1439,searchDisc5,2021.2.3,60.06044604829104,
images/exp1b_trial_148_colour2_distractors1_l.png,l,1,2,1,1,,,,,0,5,5,5,,,,,,,,,,,,,,,,,,,,,,,,,,,,,,,,,,,,,,,,,,,248.22382202302106,None,2,0.420132951985579,248.22382202302106,None,,,,,,,,,,,,,,,,None,None,None,,None,None,248.6927659159992,None,1,1,0.7223629519576207,248.6927659159992,None,249.4072789403377,None,None,None,None,,25,001,2023_Jan_23_1439,searchDisc5,2021.2.3,60.06044604829104,
images/exp1b_trial_191_colour0_distractors0_l.png,l,1,0,0,1,,,,,0,6,6,6,,,,,,,,,,,,,,,,,,,,,,,,,,,,,,,,,,,,,,,,,,,249.42371865501627,None,2,0.3714585700072348,249.42371865501627,None,,,,,,,,,,,,,,,,None,None,None,,None,None,249.84070963901468,None,1,1,0.6724319829954766,249.84070963901468,None,250.50718412934802,None,None,None,None,,25,001,2023_Jan_23_1439,searchDisc5,2021.2.3,60.06044604829104,
images/exp1b_trial_171_colour3_distractors4_r.png,r,3,3,4,1,,,,,0,7,7,7,,,,,,,,,,,,,,,,,,,,,,,,,,,,,,,,,,,,,,,,,,,250.52380549302325,None,2,0.3372902949922718,250.52380549302325,None,,,,,,,,,,,,,,,,None,None,None,,None,None,250.90726781904232,None,3,1,0.9541950389975682,250.90726781904232,None,251.85656119734048,None,None,None,None,,25,001,2023_Jan_23_1439,searchDisc5,2021.2.3,60.06044604829104,
images/exp1b_trial_116_colour2_distractors1_l.png,l,1,2,1,1,,,,,0,8,8,8,,,,,,,,,,,,,,,,,,,,,,,,,,,,,,,,,,,,,,,,,,,251.87381371302763,None,2,0.4242863440304063,251.87381371302763,None,,,,,,,,,,,,,,,,None,None,None,,None,None,252.3421450330061,None,1,1,0.7369677509996109,252.3421450330061,None,253.07410870232852,None,None,None,None,,25,001,2023_Jan_23_1439,searchDisc5,2021.2.3,60.06044604829104,
images/exp1b_trial_250_colour3_distractors4_l.png,l,1,3,4,1,,,,,0,9,9,9,,,,,,,,,,,,,,,,,,,,,,,,,,,,,,,,,,,,,,,,,,,253.0905853190343,None,2,0.33751944301184267,253.0905853190343,None,,,,,,,,,,,,,,,,None,None,None,,None,None,253.47403849003604,None,1,1,0.8055867410148494,253.47403849003604,None,254.27403749231016,None,None,None,None,,25,001,2023_Jan_23_1439,searchDisc5,2021.2.3,60.06044604829104,
images/exp1b_trial_238_colour3_distractors31_r.png,r,3,3,31,1,,,,,0,10,10,10,,,,,,,,,,,,,,,,,,,,,,,,,,,,,,,,,,,,,,,,,,,254.29239168204367,None,2,0.2877264400012791,254.29239168204367,None,,,,,,,,,,,,,,,,None,None,None,,None,None,254.62419320404297,None,3,1,1.0183185740024783,254.62419320404297,None,255.64080835130298,None,None,None,None,,25,001,2023_Jan_23_1439,searchDisc5,2021.2.3,60.06044604829104,
images/exp1b_trial_60_colour3_distractors19_l.png,l,1,3,19,1,,,,,0,11,11,11,,,,,,,,,,,,,,,,,,,,,,,,,,,,,,,,,,,,,,,,,,,255.65666664903983,None,2,0.40677309001330286,255.65666664903983,None,,,,,,,,,,,,,,,,None,None,None,,None,None,256.10958277102327,None,1,1,0.7672576049808413,256.10958277102327,None,256.87414795535153,None,None,None,None,,25,001,2023_Jan_23_1439,searchDisc5,2021.2.3,60.06044604829104,
images/exp1b_trial_139_colour3_distractors4_r.png,r,3,3,4,1,,,,,0,12,12,12,,,,,,,,,,,,,,,,,,,,,,,,,,,,,,,,,,,,,,,,,,,256.89258601301117,None,2,0.32149982498958707,256.89258601301117,None,,,,,,,,,,,,,,,,None,None,None,,None,None,257.25734430900775,None,3,1,1.0889158329810016,257.25734430900775,None,258.3410758043407,None,None,None,None,,25,001,2023_Jan_23_1439,searchDisc5,2021.2.3,60.06044604829104,
images/exp1b_trial_67_colour1_distractors19_r.png,r,3,1,19,1,,,,,0,13,13,13,,,,,,,,,,,,,,,,,,,,,,,,,,,,,,,,,,,,,,,,,,,258.35730518505443,None,2,0.40436313301324844,258.35730518505443,None,,,,,,,,,,,,,,,,None,None,None,,None,None,258.80948945501586,None,3,1,1.1199991179746576,258.80948945501586,None,259.92437136134834,None,None,None,None,,25,001,2023_Jan_23_1439,searchDisc5,2021.2.3,60.06044604829104,
images/exp1b_trial_115_colour1_distractors31_l.png,l,1,1,31,1,,,,,0,14,14,14,,,,,,,,,,,,,,,,,,,,,,,,,,,,,,,,,,,,,,,,,,,259.9403240530519,None,2,0.35444642399670556,259.9403240530519,None,,,,,,,,,,,,,,,,None,None,None,,None,None,260.3405936930212,None,1,1,0.7350376360118389,260.3405936930212,None,261.0744209542987,None,None,None,None,,25,001,2023_Jan_23_1439,searchDisc5,2021.2.3,60.06044604829104,
images/exp1b_trial_16_colour1_distractors4_l.png,l,1,1,4,1,,,,,0,15,15,15,,,,,,,,,,,,,,,,,,,,,,,,,,,,,,,,,,,,,,,,,,,261.09071105200564,None,2,0.28780628502136096,261.09071105200564,None,,,,,,,,,,,,,,,,None,None,None,,None,None,261.424440161034,None,1,1,0.8386187830474228,261.424440161034,None,262.25771874930945,None,None,None,None,,25,001,2023_Jan_23_1439,searchDisc5,2021.2.3,60.06044604829104,
images/exp1b_trial_0_colour1_distractors1_r.png,r,3,1,1,1,,,,,0,16,16,16,,,,,,,,,,,,,,,,,,,,,,,,,,,,,,,,,,,,,,,,,,,262.2734738099971,None,2,0.2565231539774686,262.2734738099971,None,,,,,,,,,,,,,,,,None,None,None,,None,None,262.57367288303794,None,3,1,0.7223239140002988,262.57367288303794,None,263.2909936683369,None,None,None,None,,25,001,2023_Jan_23_1439,searchDisc5,2021.2.3,60.06044604829104,
images/exp1b_trial_13_colour3_distractors19_r.png,r,3,3,19,1,,,,,0,17,17,17,,,,,,,,,,,,,,,,,,,,,,,,,,,,,,,,,,,,,,,,,,,263.30732216499746,None,2,0.2861579159507528,263.30732216499746,None,,,,,,,,,,,,,,,,None,None,None,,None,None,263.6413176850183,None,3,1,1.7861019110423513,263.6413176850183,None,265.42435338234066,None,None,None,None,,25,001,2023_Jan_23_1439,searchDisc5,2021.2.3,60.06044604829104,
images/exp1b_trial_88_colour2_distractors31_l.png,l,1,2,31,1,,,,,0,18,18,18,,,,,,,,,,,,,,,,,,,,,,,,,,,,,,,,,,,,,,,,,,,265.4408904190059,None,2,0.33809266897151247,265.4408904190059,None,,,,,,,,,,,,,,,,None,None,None,,None,None,265.8241037830012,None,1,1,1.003284563019406,265.8241037830012,None,266.82418483131335,None,None,None,None,,25,001,2023_Jan_23_1439,searchDisc5,2021.2.3,60.06044604829104,
images/exp1b_trial_55_colour2_distractors19_l.png,l,1,2,19,1,,,,,0,19,19,19,,,,,,,,,,,,,,,,,,,,,,,,,,,,,,,,,,,,,,,,,,,266.84291891002795,None,2,0.28761785599635914,266.84291891002795,None,,,,,,,,,,,,,,,,None,None,None,,None,None,267.1740965360077,None,1,1,0.9538418889860623,267.1740965360077,None,268.1240026423126,None,None,None,None,,25,001,2023_Jan_23_1439,searchDisc5,2021.2.3,60.06044604829104,
images/exp1b_trial_315_colour3_distractors9_l.png,l,1,3,9,1,,,,,0,20,20,20,,,,,,,,,,,,,,,,,,,,,,,,,,,,,,,,,,,,,,,,,,,268.14092354103923,None,2,0.28794277197448537,268.14092354103923,None,,,,,,,,,,,,,,,,None,None,None,,None,None,268.4743738290272,None,1,1,0.9208923790138215,268.4743738290272,None,269.3910850933404,None,None,None,None,,25,001,2023_Jan_23_1439,searchDisc5,2021.2.3,60.06044604829104,
images/exp1b_trial_182_colour2_distractors9_l.png,l,1,2,9,1,,,,,0,21,21,21,,,,,,,,,,,,,,,,,,,,,,,,,,,,,,,,,,,,,,,,,,,269.4068715920439,None,2,0.271278495027218,269.4068715920439,None,,,,,,,,,,,,,,,,None,None,None,,None,None,269.724507408042,None,1,1,1.2049230479751714,269.724507408042,None,270.92453453633937,None,None,None,None,,25,001,2023_Jan_23_1439,searchDisc5,2021.2.3,60.06044604829104,
images/exp1b_trial_181_colour2_distractors4_l.png,l,1,2,4,1,,,,,0,22,22,22,,,,,,,,,,,,,,,,,,,,,,,,,,,,,,,,,,,,,,,,,,,270.94094948103884,None,2,0.23987082700477913,270.94094948103884,None,,,,,,,,,,,,,,,,None,None,None,,None,None,271.2240120760398,None,1,1,0.6533624360454269,271.2240120760398,None,271.87459103532603,None,None,None,None,,25,001,2023_Jan_23_1439,searchDisc5,2021.2.3,60.06044604829104,
images/exp1b_trial_21_colour2_distractors4_l.png,l,1,2,4,1,,,,,0,23,23,23,,,,,,,,,,,,,,,,,,,,,,,,,,,,,,,,,,,,,,,,,,,271.8906298240181,None,2,0.2714122170000337,271.8906298240181,None,,,,,,,,,,,,,,,,None,None,None,,None,None,272.20815921004396,None,1,1,0.8225399740040302,272.20815921004396,None,273.02484493734084,None,None,None,None,,25,001,2023_Jan_23_1439,searchDisc5,2021.2.3,60.06044604829104,
images/exp1b_trial_295_colour2_distractors9_r.png,r,3,2,9,1,,,,,0,24,24,24,,,,,,,,,,,,,,,,,,,,,,,,,,,,,,,,,,,,,,,,,,,273.04114061803557,None,2,0.2544360850006342,273.04114061803557,None,,,,,,,,,,,,,,,,None,None,None,,None,None,273.34125728701474,None,3,1,0.8544247039826587,273.34125728701474,None,274.19144495235525,None,None,None,None,,25,001,2023_Jan_23_1439,searchDisc5,2021.2.3,60.06044604829104,
images/exp1b_trial_149_colour2_distractors4_l.png,l,1,2,4,1,,,,,0,25,25,25,,,,,,,,,,,,,,,,,,,,,,,,,,,,,,,,,,,,,,,,,,,274.20929577201605,None,2,0.2878293919493444,274.20929577201605,None,,,,,,,,,,,,,,,,None,None,None,,None,None,274.54109733202495,None,1,1,0.7054231030051596,274.54109733202495,None,275.24123512530934,None,None,None,None,,25,001,2023_Jan_23_1439,searchDisc5,2021.2.3,60.06044604829104,
images/exp1b_trial_289_colour1_distractors4_r.png,r,3,1,4,1,,,,,0,26,26,26,,,,,,,,,,,,,,,,,,,,,,,,,,,,,,,,,,,,,,,,,,,275.25808939000126,None,2,0.2715602269745432,275.25808939000126,None,,,,,,,,,,,,,,,,None,None,None,,None,None,275.5743532240158,None,3,1,0.9717887520091608,275.5743532240158,None,276.54127419532745,None,None,None,None,,25,001,2023_Jan_23_1439,searchDisc5,2021.2.3,60.06044604829104,
images/exp1b_trial_234_colour3_distractors1_r.png,r,3,3,1,1,,,,,0,27,27,27,,,,,,,,,,,,,,,,,,,,,,,,,,,,,,,,,,,,,,,,,,,276.5578345230315,None,2,0.38793031201930717,276.5578345230315,None,,,,,,,,,,,,,,,,None,None,None,,None,None,276.9929140410386,None,3,1,1.305852905032225,276.9929140410386,None,278.2915686063003,None,None,None,None,,25,001,2023_Jan_23_1439,searchDisc5,2021.2.3,60.06044604829104,
images/exp1b_trial_69_colour2_distractors1_r.png,r,3,2,1,1,,,,,0,28,28,28,,,,,,,,,,,,,,,,,,,,,,,,,,,,,,,,,,,,,,,,,,,278.3078923820285,None,2,0.2878952259779908,278.3078923820285,None,,,,,,,,,,,,,,,,None,None,None,,None,None,278.641326238052,None,3,1,0.7230375510407612,278.641326238052,None,279.358051589306,None,None,None,None,,25,001,2023_Jan_23_1439,searchDisc5,2021.2.3,60.06044604829104,
images/exp1b_trial_243_colour1_distractors31_l.png,l,1,1,31,1,,,,,0,29,29,29,,,,,,,,,,,,,,,,,,,,,,,,,,,,,,,,,,,,,,,,,,,279.3744590000133,None,2,0.2879509400227107,279.3744590000133,None,,,,,,,,,,,,,,,,None,None,None,,None,None,279.7077254720498,None,1,1,1.1020220610080287,279.7077254720498,None,280.8082542043063,None,None,None,None,,25,001,2023_Jan_23_1439,searchDisc5,2021.2.3,60.06044604829104,
images/exp1b_trial_188_colour3_distractors19_l.png,l,1,3,19,1,,,,,0,30,30,30,,,,,,,,,,,,,,,,,,,,,,,,,,,,,,,,,,,,,,,,,,,280.8245627330034,None,2,0.239414896001108,280.8245627330034,None,,,,,,,,,,,,,,,,None,None,None,,None,None,281.1074123310391,None,1,1,1.0677079519955441,281.1074123310391,None,282.17489505934066,None,None,None,None,,25,001,2023_Jan_23_1439,searchDisc5,2021.2.3,60.06044604829104,
images/exp1b_trial_80_colour1_distractors4_l.png,l,1,1,4,1,,,,,0,31,31,31,,,,,,,,,,,,,,,,,,,,,,,,,,,,,,,,,,,,,,,,,,,282.1906555390451,None,2,0.2399839159916155,282.1906555390451,None,,,,,,,,,,,,,,,,None,None,None,,None,None,282.4769191100495,None,1,1,0.9863628000020981,282.4769191100495,None,283.45821044334446,None,None,None,None,,25,001,2023_Jan_23_1439,searchDisc5,2021.2.3,60.06044604829104,
images/exp1b_trial_288_colour1_distractors1_r.png,r,3,1,1,1,,,,,0,32,32,32,,,,,,,,,,,,,,,,,,,,,,,,,,,,,,,,,,,,,,,,,,,283.47463992401026,None,2,0.23911396495532244,283.47463992401026,None,,,,,,,,,,,,,,,,None,None,None,,None,None,283.7580056110164,None,3,1,0.938982228981331,283.7580056110164,None,284.69175113233507,None,None,None,None,,25,001,2023_Jan_23_1439,searchDisc5,2021.2.3,60.06044604829104,
images/exp1b_trial_121_colour3_distractors1_l.png,l,1,3,1,1,,,,,0,33,33,33,,,,,,,,,,,,,,,,,,,,,,,,,,,,,,,,,,,,,,,,,,,284.7081753149978,None,2,0.2357118979562074,284.7081753149978,None,,,,,,,,,,,,,,,,None,None,None,,None,None,284.9916208370123,None,1,1,0.8056403020163998,284.9916208370123,None,285.79159318530003,None,None,None,None,,25,001,2023_Jan_23_1439,searchDisc5,2021.2.3,60.06044604829104,
images/exp1b_trial_147_colour1_distractors31_l.png,l,1,1,31,1,,,,,0,34,34,34,,,,,,,,,,,,,,,,,,,,,,,,,,,,,,,,,,,,,,,,,,,285.8074663300067,None,2,0.20491522597149014,285.8074663300067,None,,,,,,,,,,,,,,,,None,None,None,,None,None,286.06048664305126,None,1,1,1.1042001410387456,286.06048664305126,None,287.1584427683498,None,None,None,None,,25,001,2023_Jan_23_1439,searchDisc5,2021.2.3,60.06044604829104,
images/exp1b_trial_257_colour1_distractors4_r.png,r,3,1,4,1,,,,,0,35,35,35,,,,,,,,,,,,,,,,,,,,,,,,,,,,,,,,,,,,,,,,,,,287.17687166202813,None,2,0.2046870579943061,287.17687166202813,None,,,,,,,,,,,,,,,,None,None,None,,None,None,287.4247183680418,None,3,1,0.9550411819946021,287.4247183680418,None,288.37506703831025,None,None,None,None,,25,001,2023_Jan_23_1439,searchDisc5,2021.2.3,60.06044604829104,
images/exp1b_trial_244_colour2_distractors1_l.png,l,1,2,1,1,,,,,0,36,36,36,,,,,,,,,,,,,,,,,,,,,,,,,,,,,,,,,,,,,,,,,,,288.3913117320044,None,2,0.3026982260053046,288.3913117320044,None,,,,,,,,,,,,,,,,None,None,None,,None,None,288.74152475903975,None,1,1,0.6910620679846033,288.74152475903975,None,289.4251116713509,None,None,None,None,,25,001,2023_Jan_23_1439,searchDisc5,2021.2.3,60.06044604829104,
images/exp1b_trial_200_colour2_distractors19_r.png,r,3,2,19,1,,,,,0,37,37,37,,,,,,,,,,,,,,,,,,,,,,,,,,,,,,,,,,,,,,,,,,,289.4410508800065,None,2,0.22154442500323057,289.4410508800065,None,,,,,,,,,,,,,,,,None,None,None,,None,None,289.71044315805193,None,3,1,0.8679043030133471,289.71044315805193,None,290.5750969883171,None,None,None,None,,25,001,2023_Jan_23_1439,searchDisc5,2021.2.3,60.06044604829104,
images/exp1b_trial_47_colour1_distractors1_l.png,l,1,1,1,1,,,,,0,38,38,38,,,,,,,,,,,,,,,,,,,,,,,,,,,,,,,,,,,,,,,,,,,290.5913931640098,None,2,0.3378086489974521,290.5913931640098,None,,,,,,,,,,,,,,,,None,None,None,,None,None,290.9745494980016,None,1,1,0.7568308820482343,290.9745494980016,None,291.7250941383187,None,None,None,None,,25,001,2023_Jan_23_1439,searchDisc5,2021.2.3,60.06044604829104,
images/exp1b_trial_298_colour3_distractors1_r.png,r,3,3,1,1,,,,,0,39,39,39,,,,,,,,,,,,,,,,,,,,,,,,,,,,,,,,,,,,,,,,,,,291.74151451705256,None,2,0.18689796898979694,291.74151451705256,None,,,,,,,,,,,,,,,,None,None,None,,None,None,291.9771576500498,None,3,1,0.5875959770055488,291.9771576500498,None,292.55797300030247,None,None,None,None,,25,001,2023_Jan_23_1439,searchDisc5,2021.2.3,60.06044604829104,
images/exp1b_trial_241_colour1_distractors9_l.png,l,1,1,9,1,,,,,0,40,40,40,,,,,,,,,,,,,,,,,,,,,,,,,,,,,,,,,,,,,,,,,,,292.5750644210493,None,2,0.23794063401874155,292.5750644210493,None,,,,,,,,,,,,,,,,None,None,None,,None,None,292.8582930220291,None,1,1,0.653518330946099,292.8582930220291,None,293.50798448334683,None,None,None,None,,25,001,2023_Jan_23_1439,searchDisc5,2021.2.3,60.06044604829104,
images/exp1b_trial_2_colour1_distractors9_r.png,r,3,1,9,1,,,,,0,41,41,41,,,,,,,,,,,,,,,,,,,,,,,,,,,,,,,,,,,,,,,,,,,293.52485292503843,None,2,0.2240825580083765,293.52485292503843,None,,,,,,,,,,,,,,,,None,None,None,,None,None,293.7935446250485,None,3,1,0.6522335250047036,293.7935446250485,None,294.4419913543039,None,None,None,None,,25,001,2023_Jan_23_1439,searchDisc5,2021.2.3,60.06044604829104,
images/exp1b_trial_215_colour2_distractors19_l.png,l,1,2,19,1,,,,,0,42,42,42,,,,,,,,,,,,,,,,,,,,,,,,,,,,,,,,,,,,,,,,,,,294.45799331599846,None,2,0.22313886095071211,294.45799331599846,None,,,,,,,,,,,,,,,,None,None,None,,None,None,294.72694110602606,None,1,1,0.6839101149816997,294.72694110602606,None,295.4078772253357,None,None,None,None,,25,001,2023_Jan_23_1439,searchDisc5,2021.2.3,60.06044604829104,
images/exp1b_trial_51_colour1_distractors31_l.png,l,1,1,31,1,,,,,0,43,43,43,,,,,,,,,,,,,,,,,,,,,,,,,,,,,,,,,,,,,,,,,,,295.4269196240348,None,2,0.1740857459953986,295.4269196240348,None,,,,,,,,,,,,,,,,None,None,None,,None,None,295.64347542001633,None,1,1,0.8325207699672319,295.64347542001633,None,296.4750964883366,None,None,None,None,,25,001,2023_Jan_23_1439,searchDisc5,2021.2.3,60.06044604829104,
images/exp1b_trial_103_colour2_distractors9_r.png,r,3,2,9,1,,,,,0,44,44,44,,,,,,,,,,,,,,,,,,,,,,,,,,,,,,,,,,,,,,,,,,,296.4915278260014,None,2,0.17146034899633378,296.4915278260014,None,,,,,,,,,,,,,,,,None,None,None,,None,None,296.7106888430426,None,3,1,0.7544608819880523,296.7106888430426,None,297.4586115363287,None,None,None,None,,25,001,2023_Jan_23_1439,searchDisc5,2021.2.3,60.06044604829104,
images/exp1b_trial_281_colour3_distractors1_l.png,l,1,3,1,1,,,,,0,45,45,45,,,,,,,,,,,,,,,,,,,,,,,,,,,,,,,,,,,,,,,,,,,297.4746690170141,None,2,0.254696553980466,297.4746690170141,None,,,,,,,,,,,,,,,,None,None,None,,None,None,297.7751723550027,None,1,1,0.5863172730314545,297.7751723550027,None,298.35862030935243,None,None,None,None,,25,001,2023_Jan_23_1439,searchDisc5,2021.2.3,60.06044604829104,
images/exp1b_trial_39_colour2_distractors9_r.png,r,3,2,9,1,,,,,0,46,46,46,,,,,,,,,,,,,,,,,,,,,,,,,,,,,,,,,,,,,,,,,,,298.3766682840069,None,2,0.2545434670173563,298.3766682840069,None,,,,,,,,,,,,,,,,None,None,None,,None,None,298.67537711100886,None,3,1,0.90526205196511,298.67537711100886,None,299.5753624723526,None,None,None,None,,25,001,2023_Jan_23_1439,searchDisc5,2021.2.3,60.06044604829104,
images/exp1b_trial_253_colour3_distractors31_l.png,l,1,3,31,1,,,,,0,47,47,47,,,,,,,,,,,,,,,,,,,,,,,,,,,,,,,,,,,,,,,,,,,299.59125637903344,None,2,0.22114670899463817,299.59125637903344,None,,,,,,,,,,,,,,,,None,None,None,,None,None,299.8587254230515,None,1,1,0.6533508939901367,299.8587254230515,None,300.50888153732524,None,None,None,None,,25,001,2023_Jan_23_1439,searchDisc5,2021.2.3,60.06044604829104,
images/exp1b_trial_135_colour2_distractors9_r.png,r,3,2,9,1,,,,,0,48,48,48,,,,,,,,,,,,,,,,,,,,,,,,,,,,,,,,,,,,,,,,,,,300.52490622602636,None,2,0.20431782101513818,300.52490622602636,None,,,,,,,,,,,,,,,,None,None,None,,None,None,300.77707937400555,None,3,1,0.6229132959851995,300.77707937400555,None,301.39218492633665,None,None,None,None,,25,001,2023_Jan_23_1439,searchDisc5,2021.2.3,60.06044604829104,
images/exp1b_trial_134_colour2_distractors4_r.png,r,3,2,4,1,,,,,0,49,49,49,,,,,,,,,,,,,,,,,,,,,,,,,,,,,,,,,,,,,,,,,,,301.40811436000513,None,2,0.21933123900089413,301.40811436000513,None,,,,,,,,,,,,,,,,None,None,None,,None,None,301.6769061520463,None,3,1,0.802426012000069,301.6769061520463,None,302.47538497830976,None,None,None,None,,25,001,2023_Jan_23_1439,searchDisc5,2021.2.3,60.06044604829104,
images/exp1b_trial_100_colour1_distractors31_r.png,r,3,1,31,1,,,,,0,50,50,50,,,,,,,,,,,,,,,,,,,,,,,,,,,,,,,,,,,,,,,,,,,302.49125094601186,None,2,0.20635778602445498,302.49125094601186,None,,,,,,,,,,,,,,,,None,None,None,,None,None,302.7439540050109,None,3,1,0.7502824690309353,302.7439540050109,None,303.4922349273344,None,None,None,None,,25,001,2023_Jan_23_1439,searchDisc5,2021.2.3,60.06044604829104,
images/exp1b_trial_22_colour2_distractors9_l.png,l,1,2,9,1,,,,,0,51,51,51,,,,,,,,,,,,,,,,,,,,,,,,,,,,,,,,,,,,,,,,,,,303.50782585702837,None,2,0.2379188310005702,303.50782585702837,None,,,,,,,,,,,,,,,,None,None,None,,None,None,303.79209389403695,None,1,1,0.6545894060400315,303.79209389403695,None,304.4421540243435,None,None,None,None,,25,001,2023_Jan_23_1439,searchDisc5,2021.2.3,60.06044604829104,
images/exp1b_trial_53_colour2_distractors4_l.png,l,1,2,4,1,,,,,0,52,52,52,,,,,,,,,,,,,,,,,,,,,,,,,,,,,,,,,,,,,,,,,,,304.45865311002126,None,2,0.17131843703100458,304.45865311002126,None,,,,,,,,,,,,,,,,None,None,None,,None,None,304.67771743802587,None,1,1,0.5891632720013149,304.67771743802587,None,305.25889760735447,None,None,None,None,,25,001,2023_Jan_23_1439,searchDisc5,2021.2.3,60.06044604829104,
images/exp1b_trial_187_colour3_distractors9_l.png,l,1,3,9,1,,,,,0,53,53,53,,,,,,,,,,,,,,,,,,,,,,,,,,,,,,,,,,,,,,,,,,,305.2753284560167,None,2,0.20661482599098235,305.2753284560167,None,,,,,,,,,,,,,,,,None,None,None,,None,None,305.5275038810214,None,1,1,0.919081614993047,305.5275038810214,None,306.4422097163275,None,None,None,None,,25,001,2023_Jan_23_1439,searchDisc5,2021.2.3,60.06044604829104,
images/exp1b_trial_216_colour2_distractors31_l.png,l,1,2,31,1,,,,,0,54,54,54,,,,,,,,,,,,,,,,,,,,,,,,,,,,,,,,,,,,,,,,,,,306.45835724601056,None,2,0.1898967920569703,306.45835724601056,None,,,,,,,,,,,,,,,,None,None,None,,None,None,306.69394548400305,None,1,1,0.9350855630473234,306.69394548400305,None,307.62580640633826,None,None,None,None,,25,001,2023_Jan_23_1439,searchDisc5,2021.2.3,60.06044604829104,
images/exp1b_trial_318_colour0_distractors0_r.png,r,3,0,0,1,,,,,0,55,55,55,,,,,,,,,,,,,,,,,,,,,,,,,,,,,,,,,,,,,,,,,,,307.64406579500064,None,2,0.30643204000080004,307.64406579500064,None,,,,,,,,,,,,,,,,None,None,None,,None,None,307.99209690705175,None,3,1,0.7210746450000443,307.99209690705175,None,308.7089309163508,None,None,None,None,,25,001,2023_Jan_23_1439,searchDisc5,2021.2.3,60.06044604829104,
images/exp1b_trial_85_colour2_distractors4_l.png,l,1,2,4,1,,,,,0,56,56,56,,,,,,,,,,,,,,,,,,,,,,,,,,,,,,,,,,,,,,,,,,,308.7253221030114,None,2,0.23999540897784755,308.7253221030114,None,,,,,,,,,,,,,,,,None,None,None,,None,None,309.01121457701083,None,1,1,0.5870290960301645,309.01121457701083,None,309.59225656234196,None,None,None,None,,25,001,2023_Jan_23_1439,searchDisc5,2021.2.3,60.06044604829104,
images/exp1b_trial_78_colour3_distractors31_r.png,r,3,3,31,1,,,,,0,57,57,57,,,,,,,,,,,,,,,,,,,,,,,,,,,,,,,,,,,,,,,,,,,309.6080801200005,None,2,0.23811768396990374,309.6080801200005,None,,,,,,,,,,,,,,,,None,None,None,,None,None,309.8922331400099,None,3,1,0.6524230969953351,309.8922331400099,None,310.5421892593382,None,None,None,None,,25,001,2023_Jan_23_1439,searchDisc5,2021.2.3,60.06044604829104,
images/exp1b_trial_271_colour1_distractors1_l.png,l,1,1,1,1,,,,,0,58,58,58,,,,,,,,,,,,,,,,,,,,,,,,,,,,,,,,,,,,,,,,,,,310.5587886029971,None,2,0.27164088102290407,310.5587886029971,None,,,,,,,,,,,,,,,,None,None,None,,None,None,310.87547861004714,None,1,1,1.0560628199600615,310.87547861004714,None,311.92579067733607,None,None,None,None,,25,001,2023_Jan_23_1439,searchDisc5,2021.2.3,60.06044604829104,
images/exp1b_trial_292_colour1_distractors31_r.png,r,3,1,31,1,,,,,0,59,59,59,,,,,,,,,,,,,,,,,,,,,,,,,,,,,,,,,,,,,,,,,,,311.94210592104355,None,2,0.22252828796627,311.94210592104355,None,,,,,,,,,,,,,,,,None,None,None,,None,None,312.2113562140148,None,3,1,1.1333474459825084,312.2113562140148,None,313.3422869083239,None,None,None,None,,25,001,2023_Jan_23_1439,searchDisc5,2021.2.3,60.06044604829104,
images/exp1b_trial_1_colour1_distractors4_r.png,r,3,1,4,1,,,,,0,60,60,60,,,,,,,,,,,,,,,,,,,,,,,,,,,,,,,,,,,,,,,,,,,313.35895032901317,None,2,0.22121460898779333,313.35895032901317,None,,,,,,,,,,,,,,,,None,None,None,,None,None,313.6273027569987,None,3,1,1.140745370008517,313.6273027569987,None,314.75923348930667,None,None,None,None,,25,001,2023_Jan_23_1439,searchDisc5,2021.2.3,60.06044604829104,
images/exp1b_trial_265_colour2_distractors31_r.png,r,3,2,31,1,,,,,0,61,61,61,,,,,,,,,,,,,,,,,,,,,,,,,,,,,,,,,,,,,,,,,,,314.7755165830022,None,2,0.26906447199871764,314.7755165830022,None,,,,,,,,,,,,,,,,None,None,None,,None,None,315.0918647450162,None,3,1,0.9040402360260487,315.0918647450162,None,315.9927321483498,None,None,None,None,,25,001,2023_Jan_23_1439,searchDisc5,2021.2.3,60.06044604829104,
images/exp1b_trial_28_colour3_distractors19_l.png,l,1,3,19,1,,,,,0,62,62,62,,,,,,,,,,,,,,,,,,,,,,,,,,,,,,,,,,,,,,,,,,,316.00856865005335,None,2,0.2400056190090254,316.00856865005335,None,,,,,,,,,,,,,,,,None,None,None,,None,None,316.29241125204135,None,1,1,0.7508800170035101,316.29241125204135,None,317.0426107633044,None,None,None,None,,25,001,2023_Jan_23_1439,searchDisc5,2021.2.3,60.06044604829104,
images/exp1b_trial_125_colour3_distractors31_l.png,l,1,3,31,1,,,,,0,63,63,63,,,,,,,,,,,,,,,,,,,,,,,,,,,,,,,,,,,,,,,,,,,317.0585136919981,None,2,0.24205160699784756,317.0585136919981,None,,,,,,,,,,,,,,,,None,None,None,,None,None,317.34250044304645,None,1,1,0.9481285279616714,317.34250044304645,None,318.292275191308,None,None,None,None,,25,001,2023_Jan_23_1439,searchDisc5,2021.2.3,60.06044604829104,
images/exp1b_trial_159_colour0_distractors0_l.png,l,1,0,0,1,,,,,0,64,64,64,,,,,,,,,,,,,,,,,,,,,,,,,,,,,,,,,,,,,,,,,,,318.3109883510042,None,2,0.18927970400545746,318.3109883510042,None,,,,,,,,,,,,,,,,None,None,None,,None,None,318.5441944230115,None,1,1,0.700080415001139,318.5441944230115,None,319.2418323713006,None,None,None,None,,25,001,2023_Jan_23_1439,searchDisc5,2021.2.3,60.06044604829104,
images/exp1b_trial_287_colour0_distractors0_l.png,l,1,0,0,1,,,,,0,65,65,65,,,,,,,,,,,,,,,,,,,,,,,,,,,,,,,,,,,,,,,,,,,319.2589718470117,None,2,0.1554182109539397,319.2589718470117,None,,,,,,,,,,,,,,,,None,None,None,,None,None,319.4593291970086,None,1,1,0.6385329880286008,319.4593291970086,None,320.0916279963218,None,None,None,None,,25,001,2023_Jan_23_1439,searchDisc5,2021.2.3,60.06044604829104,
images/exp1b_trial_43_colour3_distractors4_r.png,r,3,3,4,1,,,,,0,66,66,66,,,,,,,,,,,,,,,,,,,,,,,,,,,,,,,,,,,,,,,,,,,320.10881431703456,None,2,0.17210994596825913,320.10881431703456,None,,,,,,,,,,,,,,,,None,None,None,,None,None,320.327342685021,None,3,1,0.7380322800017893,320.327342685021,None,321.0592191713164,None,None,None,None,,25,001,2023_Jan_23_1439,searchDisc5,2021.2.3,60.06044604829104,
images/exp1b_trial_193_colour1_distractors4_r.png,r,3,1,4,1,,,,,0,67,67,67,,,,,,,,,,,,,,,,,,,,,,,,,,,,,,,,,,,,,,,,,,,321.0756889510085,None,2,0.2546868569916114,321.0756889510085,None,,,,,,,,,,,,,,,,None,None,None,,None,None,321.37598069402156,None,3,1,1.1720041920198128,321.37598069402156,None,322.5428527703276,None,None,None,None,,25,001,2023_Jan_23_1439,searchDisc5,2021.2.3,60.06044604829104,
images/exp1b_trial_264_colour2_distractors19_r.png,r,3,2,19,1,,,,,0,68,68,68,,,,,,,,,,,,,,,,,,,,,,,,,,,,,,,,,,,,,,,,,,,322.5587735940353,None,2,0.27332306798780337,322.5587735940353,None,,,,,,,,,,,,,,,,None,None,None,,None,None,322.87598166102543,None,3,1,1.2537689179880545,322.87598166102543,None,324.1259625083418,None,None,None,None,,25,001,2023_Jan_23_1439,searchDisc5,2021.2.3,60.06044604829104,
images/exp1b_trial_290_colour1_distractors9_r.png,r,3,1,9,1,,,,,0,69,69,69,,,,,,,,,,,,,,,,,,,,,,,,,,,,,,,,,,,,,,,,,,,324.1421282510273,None,2,0.27129076299024746,324.1421282510273,None,,,,,,,,,,,,,,,,None,None,None,,None,None,324.45905411901185,None,3,1,0.7525118929916061,324.45905411901185,None,325.2093962863088,None,None,None,None,,25,001,2023_Jan_23_1439,searchDisc5,2021.2.3,60.06044604829104,
images/exp1b_trial_203_colour3_distractors4_r.png,r,3,3,4,1,,,,,0,70,70,70,,,,,,,,,,,,,,,,,,,,,,,,,,,,,,,,,,,,,,,,,,,325.22585214400897,None,2,0.23775386495981365,325.22585214400897,None,,,,,,,,,,,,,,,,None,None,None,,None,None,325.5095773770008,None,3,1,1.0234671899816021,325.5095773770008,None,326.52618006031264,None,None,None,None,,25,001,2023_Jan_23_1439,searchDisc5,2021.2.3,60.06044604829104,
images/exp1b_trial_198_colour2_distractors4_r.png,r,3,2,4,1,,,,,0,71,71,71,,,,,,,,,,,,,,,,,,,,,,,,,,,,,,,,,,,,,,,,,,,326.5443947900203,None,2,0.4046956849633716,326.5443947900203,None,,,,,,,,,,,,,,,,None,None,None,,None,None,326.9944917810499,None,3,1,0.5859485120163299,326.9944917810499,None,327.5762268153136,None,None,None,None,,25,001,2023_Jan_23_1439,searchDisc5,2021.2.3,60.06044604829104,
images/exp1b_trial_41_colour2_distractors31_r.png,r,3,2,31,1,,,,,0,72,72,72,,,,,,,,,,,,,,,,,,,,,,,,,,,,,,,,,,,,,,,,,,,327.59204972803127,None,2,0.28788511198945343,327.59204972803127,None,,,,,,,,,,,,,,,,None,None,None,,None,None,327.9262485530344,None,3,1,1.6873462829971686,327.9262485530344,None,329.60962137634635,None,None,None,None,,25,001,2023_Jan_23_1439,searchDisc5,2021.2.3,60.06044604829104,
images/exp1b_trial_306_colour1_distractors19_l.png,l,1,1,19,1,,,,,0,73,73,73,,,,,,,,,,,,,,,,,,,,,,,,,,,,,,,,,,,,,,,,,,,329.62765459902585,None,2,0.23810865601990372,329.62765459902585,None,,,,,,,,,,,,,,,,None,None,None,,None,None,329.90924262901535,None,1,1,0.8702441719942726,329.90924262901535,None,330.7762394713005,None,None,None,None,,25,001,2023_Jan_23_1439,searchDisc5,2021.2.3,60.06044604829104,
images/exp1b_trial_45_colour3_distractors19_r.png,r,3,3,19,1,,,,,0,74,74,74,,,,,,,,,,,,,,,,,,,,,,,,,,,,,,,,,,,,,,,,,,,330.79469015001087,None,2,0.20680012501543388,330.79469015001087,None,,,,,,,,,,,,,,,,None,None,None,,None,None,331.0428533250233,None,3,1,0.8172367549850605,331.0428533250233,None,331.8589770583436,None,None,None,None,,25,001,2023_Jan_23_1439,searchDisc5,2021.2.3,60.06044604829104,
images/exp1b_trial_232_colour2_distractors19_r.png,r,3,2,19,1,,,,,0,75,75,75,,,,,,,,,,,,,,,,,,,,,,,,,,,,,,,,,,,,,,,,,,,331.8753257050412,None,2,0.2570014650118537,331.8753257050412,None,,,,,,,,,,,,,,,,None,None,None,,None,None,332.175898460031,None,3,1,0.8350565450382419,332.175898460031,None,333.0096037653508,None,None,None,None,,25,001,2023_Jan_23_1439,searchDisc5,2021.2.3,60.06044604829104,
images/exp1b_trial_61_colour3_distractors31_l.png,l,1,3,31,1,,,,,0,76,76,76,,,,,,,,,,,,,,,,,,,,,,,,,,,,,,,,,,,,,,,,,,,333.0260759440134,None,2,0.2546237829956226,333.0260759440134,None,,,,,,,,,,,,,,,,None,None,None,,None,None,333.325743264053,None,1,1,1.0034058450255543,333.325743264053,None,334.3262648253236,None,None,None,None,,25,001,2023_Jan_23_1439,searchDisc5,2021.2.3,60.06044604829104,
images/exp1b_trial_158_colour0_distractors0_r.png,r,3,0,0,1,,,,,0,77,77,77,,,,,,,,,,,,,,,,,,,,,,,,,,,,,,,,,,,,,,,,,,,334.3426689780317,None,2,0.1897724019945599,334.3426689780317,None,,,,,,,,,,,,,,,,None,None,None,,None,None,334.5777895600186,None,3,1,0.637153806979768,334.5777895600186,None,335.2095921343076,None,None,None,None,,25,001,2023_Jan_23_1439,searchDisc5,2021.2.3,60.06044604829104,
images/exp1b_trial_226_colour1_distractors9_r.png,r,3,1,9,1,,,,,0,78,78,78,,,,,,,,,,,,,,,,,,,,,,,,,,,,,,,,,,,,,,,,,,,335.2260193800321,None,2,0.18779369804542512,335.2260193800321,None,,,,,,,,,,,,,,,,None,None,None,,None,None,335.46120942704147,None,3,1,0.7214173310203478,335.46120942704147,None,336.1764438133338,None,None,None,None,,25,001,2023_Jan_23_1439,searchDisc5,2021.2.3,60.06044604829104,
images/exp1b_trial_129_colour1_distractors4_r.png,r,3,1,4,1,,,,,0,79,79,79,,,,,,,,,,,,,,,,,,,,,,,,,,,,,,,,,,,,,,,,,,,336.1921796789975,None,2,0.23998700000811368,336.1921796789975,None,,,,,,,,,,,,,,,,None,None,None,,None,None,336.47842445300194,None,3,1,0.7031844099983573,336.47842445300194,None,337.17623767532643,None,None,None,None,,25,001,2023_Jan_23_1439,searchDisc5,2021.2.3,60.06044604829104,
images/exp1b_trial_161_colour1_distractors4_r.png,r,3,1,4,1,,,,,0,80,80,80,,,,,,,,,,,,,,,,,,,,,,,,,,,,,,,,,,,,,,,,,,,337.192638929002,None,2,0.24015334498835728,337.192638929002,None,,,,,,,,,,,,,,,,None,None,None,,None,None,337.47845577803673,None,3,1,0.8367514219717123,337.47845577803673,None,338.3098652433488,None,None,None,None,,25,001,2023_Jan_23_1439,searchDisc5,2021.2.3,60.06044604829104,
images/exp1b_trial_195_colour1_distractors19_r.png,r,3,1,19,1,,,,,0,81,81,81,,,,,,,,,,,,,,,,,,,,,,,,,,,,,,,,,,,,,,,,,,,338.3256650179974,None,2,0.2544211719650775,338.3256650179974,None,,,,,,,,,,,,,,,,None,None,None,,None,None,338.6263587020221,None,3,1,0.6196625549928285,338.6263587020221,None,339.2430915393285,None,None,None,None,,25,001,2023_Jan_23_1439,searchDisc5,2021.2.3,60.06044604829104,
images/exp1b_trial_44_colour3_distractors9_r.png,r,3,3,9,1,,,,,0,82,82,82,,,,,,,,,,,,,,,,,,,,,,,,,,,,,,,,,,,,,,,,,,,339.2614606740535,None,2,0.20641849096864462,339.2614606740535,None,,,,,,,,,,,,,,,,None,None,None,,None,None,339.50951017200714,None,3,1,0.6374021850060672,339.50951017200714,None,340.14306608735353,None,None,None,None,,25,001,2023_Jan_23_1439,searchDisc5,2021.2.3,60.06044604829104,
images/exp1b_trial_254_colour0_distractors0_r.png,r,3,0,0,1,,,,,0,83,83,83,,,,,,,,,,,,,,,,,,,,,,,,,,,,,,,,,,,,,,,,,,,340.15915992303053,None,2,0.26958026498323306,340.15915992303053,None,,,,,,,,,,,,,,,,None,None,None,,None,None,340.4783209350426,None,3,1,0.5244767849799246,340.4783209350426,None,340.99311132131845,None,None,None,None,,25,001,2023_Jan_23_1439,searchDisc5,2021.2.3,60.06044604829104,
images/exp1b_trial_36_colour1_distractors31_r.png,r,3,1,31,1,,,,,0,84,84,84,,,,,,,,,,,,,,,,,,,,,,,,,,,,,,,,,,,,,,,,,,,341.00987121701473,None,2,0.23597865301417187,341.00987121701473,None,,,,,,,,,,,,,,,,None,None,None,,None,None,341.29261711001163,None,3,1,0.8512829240062274,341.29261711001163,None,342.1431497683167,None,None,None,None,,25,001,2023_Jan_23_1439,searchDisc5,2021.2.3,60.06044604829104,
images/exp1b_trial_258_colour1_distractors9_r.png,r,3,1,9,1,,,,,0,85,85,85,,,,,,,,,,,,,,,,,,,,,,,,,,,,,,,,,,,,,,,,,,,342.1615378560382,None,2,0.22110916499514133,342.1615378560382,None,,,,,,,,,,,,,,,,None,None,None,,None,None,342.4260998130194,None,3,1,0.6043956730281934,342.4260998130194,None,343.02643533734374,None,None,None,None,,25,001,2023_Jan_23_1439,searchDisc5,2021.2.3,60.06044604829104,
images/exp1b_trial_97_colour1_distractors4_r.png,r,3,1,4,1,,,,,0,86,86,86,,,,,,,,,,,,,,,,,,,,,,,,,,,,,,,,,,,,,,,,,,,343.0449372540461,None,2,0.23809915996389464,343.0449372540461,None,,,,,,,,,,,,,,,,None,None,None,,None,None,343.32657441002084,None,3,1,0.5890573130454868,343.32657441002084,None,343.90999321531274,None,None,None,None,,25,001,2023_Jan_23_1439,searchDisc5,2021.2.3,60.06044604829104,
images/exp1b_trial_255_colour0_distractors0_l.png,l,1,0,0,1,,,,,0,87,87,87,,,,,,,,,,,,,,,,,,,,,,,,,,,,,,,,,,,,,,,,,,,343.92779713403434,None,2,0.2900681219762191,343.92779713403434,None,,,,,,,,,,,,,,,,None,None,None,,None,None,344.2592496389989,None,1,1,0.6039161870139651,344.2592496389989,None,344.85994715833806,None,None,None,None,,25,001,2023_Jan_23_1439,searchDisc5,2021.2.3,60.06044604829104,
images/exp1b_trial_294_colour2_distractors4_r.png,r,3,2,4,1,,,,,0,88,88,88,,,,,,,,,,,,,,,,,,,,,,,,,,,,,,,,,,,,,,,,,,,344.87638010800583,None,2,0.23802667198469862,344.87638010800583,None,,,,,,,,,,,,,,,,None,None,None,,None,None,345.16185689304257,None,3,1,0.7888709789840505,345.16185689304257,None,345.9433109173202,None,None,None,None,,25,001,2023_Jan_23_1439,searchDisc5,2021.2.3,60.06044604829104,
images/exp1b_trial_62_colour0_distractors0_r.png,r,3,0,0,1,,,,,0,89,89,89,,,,,,,,,,,,,,,,,,,,,,,,,,,,,,,,,,,,,,,,,,,345.95982205402106,None,2,0.28795356798218563,345.95982205402106,None,,,,,,,,,,,,,,,,None,None,None,,None,None,346.2947715680348,None,3,1,0.6900065889931284,346.2947715680348,None,346.97661173933886,None,None,None,None,,25,001,2023_Jan_23_1439,searchDisc5,2021.2.3,60.06044604829104,
images/exp1b_trial_154_colour3_distractors4_l.png,l,1,3,4,1,,,,,0,90,90,90,,,,,,,,,,,,,,,,,,,,,,,,,,,,,,,,,,,,,,,,,,,346.9930681840051,None,2,0.2878671890357509,346.9930681840051,None,,,,,,,,,,,,,,,,None,None,None,,None,None,347.3264546900173,None,1,1,0.7218948049703613,347.3264546900173,None,348.0429659463349,None,None,None,None,,25,001,2023_Jan_23_1439,searchDisc5,2021.2.3,60.06044604829104,
images/exp1b_trial_42_colour3_distractors1_r.png,r,3,3,1,1,,,,,0,91,91,91,,,,,,,,,,,,,,,,,,,,,,,,,,,,,,,,,,,,,,,,,,,348.06176838401007,None,2,0.22154340497218072,348.06176838401007,None,,,,,,,,,,,,,,,,None,None,None,,None,None,348.3267263120506,None,3,1,0.6724535420071334,348.3267263120506,None,348.99320772333306,None,None,None,None,,25,001,2023_Jan_23_1439,searchDisc5,2021.2.3,60.06044604829104,
images/exp1b_trial_164_colour1_distractors31_r.png,r,3,1,31,1,,,,,0,92,92,92,,,,,,,,,,,,,,,,,,,,,,,,,,,,,,,,,,,,,,,,,,,349.00993076502346,None,2,0.2879985549952835,349.00993076502346,None,,,,,,,,,,,,,,,,None,None,None,,None,None,349.3450143770315,None,3,1,0.8523524060146883,349.3450143770315,None,350.19344130632237,None,None,None,None,,25,001,2023_Jan_23_1439,searchDisc5,2021.2.3,60.06044604829104,
images/exp1b_trial_106_colour3_distractors1_r.png,r,3,3,1,1,,,,,0,93,93,93,,,,,,,,,,,,,,,,,,,,,,,,,,,,,,,,,,,,,,,,,,,350.211542804027,None,2,0.2706356809940189,350.211542804027,None,,,,,,,,,,,,,,,,None,None,None,,None,None,350.52626719203545,None,3,1,0.8226186169777066,350.52626719203545,None,351.3436254193308,None,None,None,None,,25,001,2023_Jan_23_1439,searchDisc5,2021.2.3,60.06044604829104,
images/exp1b_trial_231_colour2_distractors9_r.png,r,3,2,9,1,,,,,0,94,94,94,,,,,,,,,,,,,,,,,,,,,,,,,,,,,,,,,,,,,,,,,,,351.3595413680305,None,2,0.20445047499379143,351.3595413680305,None,,,,,,,,,,,,,,,,None,None,None,,None,None,351.61213335802313,None,3,1,0.8380391349783167,351.61213335802313,None,352.44306203434246,None,None,None,None,,25,001,2023_Jan_23_1439,searchDisc5,2021.2.3,60.06044604829104,
images/exp1b_trial_245_colour2_distractors4_l.png,l,1,2,4,1,,,,,0,95,95,95,,,,,,,,,,,,,,,,,,,,,,,,,,,,,,,,,,,,,,,,,,,352.45988673204556,None,2,0.23797822097549215,352.45988673204556,None,,,,,,,,,,,,,,,,None,None,None,,None,None,352.743422270054,None,1,1,0.622609163983725,352.743422270054,None,353.3601297843503,None,None,None,None,,25,001,2023_Jan_23_1439,searchDisc5,2021.2.3,60.06044604829104,
images/exp1b_trial_26_colour3_distractors4_l.png,l,1,3,4,1,,,,,0,96,96,96,,,,,,,,,,,,,,,,,,,,,,,,,,,,,,,,,,,,,,,,,,,353.37592585600214,None,2,0.20475548203103244,353.37592585600214,None,,,,,,,,,,,,,,,,None,None,None,,None,None,353.6266222940176,None,1,1,1.0397225060150959,353.6266222940176,None,354.6602381913341,None,None,None,None,,25,001,2023_Jan_23_1439,searchDisc5,2021.2.3,60.06044604829104,
images/exp1b_trial_285_colour3_distractors31_l.png,l,1,3,31,1,,,,,0,97,97,97,,,,,,,,,,,,,,,,,,,,,,,,,,,,,,,,,,,,,,,,,,,354.67584313103,None,2,0.3199091589776799,354.67584313103,None,,,,,,,,,,,,,,,,None,None,None,,None,None,355.0435075740097,None,1,1,0.7030823579989374,355.0435075740097,None,355.743574641319,None,None,None,None,,25,001,2023_Jan_23_1439,searchDisc5,2021.2.3,60.06044604829104,
images/exp1b_trial_211_colour1_distractors31_l.png,l,1,1,31,1,,,,,0,98,98,98,,,,,,,,,,,,,,,,,,,,,,,,,,,,,,,,,,,,,,,,,,,355.7600029010209,None,2,0.17129232501611114,355.7600029010209,None,,,,,,,,,,,,,,,,None,None,None,,None,None,355.97880844102474,None,1,1,0.7190336060011759,355.97880844102474,None,356.6936232833192,None,None,None,None,,25,001,2023_Jan_23_1439,searchDisc5,2021.2.3,60.06044604829104,
images/exp1b_trial_185_colour3_distractors1_l.png,l,1,3,1,1,,,,,0,99,99,99,,,,,,,,,,,,,,,,,,,,,,,,,,,,,,,,,,,,,,,,,,,356.70999658101937,None,2,0.17131504404824227,356.70999658101937,None,,,,,,,,,,,,,,,,None,None,None,,None,None,356.926750810002,None,1,1,0.7065816610120237,356.926750810002,None,357.6271339363535,None,None,None,None,,25,001,2023_Jan_23_1439,searchDisc5,2021.2.3,60.06044604829104,
images/exp1b_trial_7_colour2_distractors9_r.png,r,3,2,9,1,,,,,0,100,100,100,,,,,,,,,,,,,,,,,,,,,,,,,,,,,,,,,,,,,,,,,,,357.6434101850027,None,2,0.1707720960257575,357.6434101850027,None,,,,,,,,,,,,,,,,None,None,None,,None,None,357.8623666820349,None,3,1,0.688183203979861,357.8623666820349,None,358.5435140503338,None,None,None,None,,25,001,2023_Jan_23_1439,searchDisc5,2021.2.3,60.06044604829104,
images/exp1b_trial_6_colour2_distractors4_r.png,r,3,2,4,1,,,,,0,101,101,101,,,,,,,,,,,,,,,,,,,,,,,,,,,,,,,,,,,,,,,,,,,358.5615420950344,None,2,0.2880059029557742,358.5615420950344,None,,,,,,,,,,,,,,,,None,None,None,,None,None,358.8935990210157,None,3,1,0.6890235079918057,358.8935990210157,None,359.5770819563419,None,None,None,None,,25,001,2023_Jan_23_1439,searchDisc5,2021.2.3,60.06044604829104,
images/exp1b_trial_183_colour2_distractors19_l.png,l,1,2,19,1,,,,,0,102,102,102,,,,,,,,,,,,,,,,,,,,,,,,,,,,,,,,,,,,,,,,,,,359.5929858800373,None,2,0.27112068101996556,359.5929858800373,None,,,,,,,,,,,,,,,,None,None,None,,None,None,359.9103272780194,None,1,1,0.7710346279782243,359.9103272780194,None,360.6770007373067,None,None,None,None,,25,001,2023_Jan_23_1439,searchDisc5,2021.2.3,60.06044604829104,
images/exp1b_trial_20_colour2_distractors1_l.png,l,1,2,1,1,,,,,0,103,103,103,,,,,,,,,,,,,,,,,,,,,,,,,,,,,,,,,,,,,,,,,,,360.6928748440114,None,2,0.20470305404160172,360.6928748440114,None,,,,,,,,,,,,,,,,None,None,None,,None,None,360.9454960510484,None,1,1,0.6062784750247374,360.9454960510484,None,361.5437456583255,None,None,None,None,,25,001,2023_Jan_23_1439,searchDisc5,2021.2.3,60.06044604829104,
images/exp1b_trial_30_colour0_distractors0_r.png,r,3,0,0,1,,,,,0,104,104,104,,,,,,,,,,,,,,,,,,,,,,,,,,,,,,,,,,,,,,,,,,,361.5602145110024,None,2,0.17105026700301096,361.5602145110024,None,,,,,,,,,,,,,,,,None,None,None,,None,None,361.7788125090301,None,3,1,0.7893285999889486,361.7788125090301,None,362.56031947934537,None,None,None,None,,25,001,2023_Jan_23_1439,searchDisc5,2021.2.3,60.06044604829104,
images/exp1b_trial_137_colour2_distractors31_r.png,r,3,2,31,1,,,,,0,105,105,105,,,,,,,,,,,,,,,,,,,,,,,,,,,,,,,,,,,,,,,,,,,362.5761466890108,None,2,0.22134551301132888,362.5761466890108,None,,,,,,,,,,,,,,,,None,None,None,,None,None,362.84390485001495,None,3,1,0.9203687700210139,362.84390485001495,None,363.76043997032104,None,None,None,None,,25,001,2023_Jan_23_1439,searchDisc5,2021.2.3,60.06044604829104,
images/exp1b_trial_302_colour3_distractors31_r.png,r,3,3,31,1,,,,,0,106,106,106,,,,,,,,,,,,,,,,,,,,,,,,,,,,,,,,,,,,,,,,,,,363.7769101310405,None,2,0.2395415059872903,363.7769101310405,None,,,,,,,,,,,,,,,,None,None,None,,None,None,364.0604612620082,None,3,1,1.7341727199964225,364.0604612620082,None,365.79388713332594,None,None,None,None,,25,001,2023_Jan_23_1439,searchDisc5,2021.2.3,60.06044604829104,
images/exp1b_trial_248_colour2_distractors31_l.png,l,1,2,31,1,,,,,0,107,107,107,,,,,,,,,,,,,,,,,,,,,,,,,,,,,,,,,,,,,,,,,,,365.80953193001915,None,2,0.22326481400523335,365.80953193001915,None,,,,,,,,,,,,,,,,None,None,None,,None,None,366.0790674650343,None,1,1,0.9013819409883581,366.0790674650343,None,366.9771695153555,None,None,None,None,,25,001,2023_Jan_23_1439,searchDisc5,2021.2.3,60.06044604829104,
images/exp1b_trial_79_colour1_distractors1_l.png,l,1,1,1,1,,,,,0,108,108,108,,,,,,,,,,,,,,,,,,,,,,,,,,,,,,,,,,,,,,,,,,,366.9936247370206,None,2,0.18935307901119813,366.9936247370206,None,,,,,,,,,,,,,,,,None,None,None,,None,None,367.22924860502826,None,1,1,0.8558186670416035,367.22924860502826,None,368.07724707733144,None,None,None,None,,25,001,2023_Jan_23_1439,searchDisc5,2021.2.3,60.06044604829104,
images/exp1b_trial_150_colour2_distractors9_l.png,l,1,2,9,1,,,,,0,109,109,109,,,,,,,,,,,,,,,,,,,,,,,,,,,,,,,,,,,,,,,,,,,368.0957329189987,None,2,0.15326208400074393,368.0957329189987,None,,,,,,,,,,,,,,,,None,None,None,,None,None,368.2959701770451,None,1,1,0.7211490300251171,368.2959701770451,None,369.0102454723325,None,None,None,None,,25,001,2023_Jan_23_1439,searchDisc5,2021.2.3,60.06044604829104,
images/exp1b_trial_19_colour1_distractors31_l.png,l,1,1,31,1,,,,,0,110,110,110,,,,,,,,,,,,,,,,,,,,,,,,,,,,,,,,,,,,,,,,,,,369.0271005810355,None,2,0.1715761559898965,369.0271005810355,None,,,,,,,,,,,,,,,,None,None,None,,None,None,369.24569820804754,None,1,1,0.6863151009893045,369.24569820804754,None,369.92732007431334,None,None,None,None,,25,001,2023_Jan_23_1439,searchDisc5,2021.2.3,60.06044604829104,
images/exp1b_trial_208_colour1_distractors4_l.png,l,1,1,4,1,,,,,0,111,111,111,,,,,,,,,,,,,,,,,,,,,,,,,,,,,,,,,,,,,,,,,,,369.9451247960096,None,2,0.18948095897212625,369.9451247960096,None,,,,,,,,,,,,,,,,None,None,None,,None,None,370.17930884001544,None,1,1,0.7037747270078398,370.17930884001544,None,370.87724589232823,None,None,None,None,,25,001,2023_Jan_23_1439,searchDisc5,2021.2.3,60.06044604829104,
images/exp1b_trial_186_colour3_distractors4_l.png,l,1,3,4,1,,,,,0,112,112,112,,,,,,,,,,,,,,,,,,,,,,,,,,,,,,,,,,,,,,,,,,,370.8933081170544,None,2,0.18791533302282915,370.8933081170544,None,,,,,,,,,,,,,,,,None,None,None,,None,None,371.12716302700574,None,1,1,0.8394510709913447,371.12716302700574,None,371.9606338843238,None,None,None,None,,25,001,2023_Jan_23_1439,searchDisc5,2021.2.3,60.06044604829104,
images/exp1b_trial_297_colour2_distractors31_r.png,r,3,2,31,1,,,,,0,113,113,113,,,,,,,,,,,,,,,,,,,,,,,,,,,,,,,,,,,,,,,,,,,371.9771171560278,None,2,0.18791418499313295,371.9771171560278,None,,,,,,,,,,,,,,,,None,None,None,,None,None,372.212193578016,None,3,1,0.870172441995237,372.212193578016,None,373.07732094133974,None,None,None,None,,25,001,2023_Jan_23_1439,searchDisc5,2021.2.3,60.06044604829104,
images/exp1b_trial_267_colour3_distractors4_r.png,r,3,3,4,1,,,,,0,114,114,114,,,,,,,,,,,,,,,,,,,,,,,,,,,,,,,,,,,,,,,,,,,373.0934296750347,None,2,0.2380431279889308,373.0934296750347,None,,,,,,,,,,,,,,,,None,None,None,,None,None,373.37968186300714,None,3,1,0.6883234970155172,373.37968186300714,None,374.0606788303354,None,None,None,None,,25,001,2023_Jan_23_1439,searchDisc5,2021.2.3,60.06044604829104,
images/exp1b_trial_223_colour0_distractors0_l.png,l,1,0,0,1,,,,,0,115,115,115,,,,,,,,,,,,,,,,,,,,,,,,,,,,,,,,,,,,,,,,,,,374.079449855024,None,2,0.2877472709515132,374.079449855024,None,,,,,,,,,,,,,,,,None,None,None,,None,None,374.41035996499704,None,1,1,0.5392125899670646,374.41035996499704,None,374.94405868430624,None,None,None,None,,25,001,2023_Jan_23_1439,searchDisc5,2021.2.3,60.06044604829104,
images/exp1b_trial_194_colour1_distractors9_r.png,r,3,1,9,1,,,,,0,116,116,116,,,,,,,,,,,,,,,,,,,,,,,,,,,,,,,,,,,,,,,,,,,374.9602848000359,None,2,0.1713051150436513,374.9602848000359,None,,,,,,,,,,,,,,,,None,None,None,,None,None,375.17887232702924,None,3,1,1.0047506340197287,375.17887232702924,None,376.17741888734747,None,None,None,None,,25,001,2023_Jan_23_1439,searchDisc5,2021.2.3,60.06044604829104,
images/exp1b_trial_84_colour2_distractors1_l.png,l,1,2,1,1,,,,,0,117,117,117,,,,,,,,,,,,,,,,,,,,,,,,,,,,,,,,,,,,,,,,,,,376.1938718170277,None,2,0.20694124198053032,376.1938718170277,None,,,,,,,,,,,,,,,,None,None,None,,None,None,376.44618490402354,None,1,1,0.6365242360043339,376.44618490402354,None,377.0773070283118,None,None,None,None,,25,001,2023_Jan_23_1439,searchDisc5,2021.2.3,60.06044604829104,
images/exp1b_trial_246_colour2_distractors9_l.png,l,1,2,9,1,,,,,0,118,118,118,,,,,,,,,,,,,,,,,,,,,,,,,,,,,,,,,,,,,,,,,,,377.0933416620246,None,2,0.18783504399470985,377.0933416620246,None,,,,,,,,,,,,,,,,None,None,None,,None,None,377.3291221210384,None,1,1,0.7039656169945374,377.3291221210384,None,378.0270537863486,None,None,None,None,,25,001,2023_Jan_23_1439,searchDisc5,2021.2.3,60.06044604829104,
images/exp1b_trial_177_colour1_distractors9_l.png,l,1,1,9,1,,,,,0,119,119,119,,,,,,,,,,,,,,,,,,,,,,,,,,,,,,,,,,,,,,,,,,,378.04381020501023,None,2,0.18804155295947567,378.04381020501023,None,,,,,,,,,,,,,,,,None,None,None,,None,None,378.27968806400895,None,1,1,0.6406525379861705,378.27968806400895,None,378.91099766935224,None,None,None,None,,25,001,2023_Jan_23_1439,searchDisc5,2021.2.3,60.06044604829104,
images/exp1b_trial_71_colour2_distractors9_r.png,r,3,2,9,1,,,,,0,120,120,120,,,,,,,,,,,,,,,,,,,,,,,,,,,,,,,,,,,,,,,,,,,378.9269604330184,None,2,0.1879148890147917,378.9269604330184,None,,,,,,,,,,,,,,,,None,None,None,,None,None,379.1623339049984,None,3,1,0.7693440000293776,379.1623339049984,None,379.92740636332894,None,None,None,None,,25,001,2023_Jan_23_1439,searchDisc5,2021.2.3,60.06044604829104,
images/exp1b_trial_221_colour3_distractors31_l.png,l,1,3,31,1,,,,,0,121,121,121,,,,,,,,,,,,,,,,,,,,,,,,,,,,,,,,,,,,,,,,,,,379.9455414590193,None,2,0.22162533202208579,379.9455414590193,None,,,,,,,,,,,,,,,,None,None,None,,None,None,380.21108733600704,None,1,1,1.418548950983677,380.21108733600704,None,381.62742210833824,None,None,None,None,,25,001,2023_Jan_23_1439,searchDisc5,2021.2.3,60.06044604829104,
images/exp1b_trial_230_colour2_distractors4_r.png,r,3,2,4,1,,,,,0,122,122,122,,,,,,,,,,,,,,,,,,,,,,,,,,,,,,,,,,,,,,,,,,,381.64401146402815,None,2,0.19010198902105913,381.64401146402815,None,,,,,,,,,,,,,,,,None,None,None,,None,None,381.8793295050273,None,3,1,0.736988182994537,381.8793295050273,None,382.6109849353321,None,None,None,None,,25,001,2023_Jan_23_1439,searchDisc5,2021.2.3,60.06044604829104,
images/exp1b_trial_5_colour2_distractors1_r.png,r,3,2,1,1,,,,,0,123,123,123,,,,,,,,,,,,,,,,,,,,,,,,,,,,,,,,,,,,,,,,,,,382.62739788903855,None,2,0.22329620696837083,382.62739788903855,None,,,,,,,,,,,,,,,,None,None,None,,None,None,382.8964321670355,None,3,1,0.9543120719608851,382.8964321670355,None,383.8442007803475,None,None,None,None,,25,001,2023_Jan_23_1439,searchDisc5,2021.2.3,60.06044604829104,
images/exp1b_trial_300_colour3_distractors9_r.png,r,3,3,9,1,,,,,0,124,124,124,,,,,,,,,,,,,,,,,,,,,,,,,,,,,,,,,,,,,,,,,,,383.860767494014,None,2,0.3224729089997709,383.860767494014,None,,,,,,,,,,,,,,,,None,None,None,,None,None,384.22953190800035,None,3,1,0.7355524729937315,384.22953190800035,None,384.96092971230394,None,None,None,None,,25,001,2023_Jan_23_1439,searchDisc5,2021.2.3,60.06044604829104,
images/exp1b_trial_178_colour1_distractors19_l.png,l,1,1,19,1,,,,,0,125,125,125,,,,,,,,,,,,,,,,,,,,,,,,,,,,,,,,,,,,,,,,,,,384.97680530603975,None,2,0.28776661900337785,384.97680530603975,None,,,,,,,,,,,,,,,,None,None,None,,None,None,385.3110472219996,None,1,1,0.8206518499646336,385.3110472219996,None,386.127709022339,None,None,None,None,,25,001,2023_Jan_23_1439,searchDisc5,2021.2.3,60.06044604829104,
images/exp1b_trial_32_colour1_distractors1_r.png,r,3,1,1,1,,,,,0,126,126,126,,,,,,,,,,,,,,,,,,,,,,,,,,,,,,,,,,,,,,,,,,,386.14419677702244,None,2,0.1899952229578048,386.14419677702244,None,,,,,,,,,,,,,,,,None,None,None,,None,None,386.37991450499976,None,3,1,0.8032355200266466,386.37991450499976,None,387.1769835893298,None,None,None,None,,25,001,2023_Jan_23_1439,searchDisc5,2021.2.3,60.06044604829104,
images/exp1b_trial_10_colour3_distractors1_r.png,r,3,3,1,1,,,,,0,127,127,127,,,,,,,,,,,,,,,,,,,,,,,,,,,,,,,,,,,,,,,,,,,387.19427337503294,None,2,0.22485465899808332,387.19427337503294,None,,,,,,,,,,,,,,,,None,None,None,,None,None,387.46317368303426,None,3,1,0.7863959450041875,387.46317368303426,None,388.2446149843396,None,None,None,None,,25,001,2023_Jan_23_1439,searchDisc5,2021.2.3,60.06044604829104,
images/exp1b_trial_64_colour1_distractors1_r.png,r,3,1,1,1,,,,,0,128,128,128,,,,,,,,,,,,,,,,,,,,,,,,,,,,,,,,,,,,,,,,,,,388.2608305080212,None,2,0.2565018130117096,388.2608305080212,None,,,,,,,,,,,,,,,,None,None,None,,None,None,388.56310410803417,None,3,1,0.8042127729859203,388.56310410803417,None,389.3613425803138,None,None,None,None,,25,001,2023_Jan_23_1439,searchDisc5,2021.2.3,60.06044604829104,
images/exp1b_trial_152_colour2_distractors31_l.png,l,1,2,31,1,,,,,0,129,129,129,,,,,,,,,,,,,,,,,,,,,,,,,,,,,,,,,,,,,,,,,,,389.37746840005275,None,2,0.2397831830312498,389.37746840005275,None,,,,,,,,,,,,,,,,None,None,None,,None,None,389.6606688260217,None,1,1,0.7345400900230743,389.6606688260217,None,390.3943577953265,None,None,None,None,,25,001,2023_Jan_23_1439,searchDisc5,2021.2.3,60.06044604829104,
images/exp1b_trial_308_colour2_distractors1_l.png,l,1,2,1,1,,,,,0,130,130,130,,,,,,,,,,,,,,,,,,,,,,,,,,,,,,,,,,,,,,,,,,,390.4109342530137,None,2,0.18785578798269853,390.4109342530137,None,,,,,,,,,,,,,,,,None,None,None,,None,None,390.6461932170205,None,1,1,0.7562799319857731,390.6461932170205,None,391.3943988973275,None,None,None,None,,25,001,2023_Jan_23_1439,searchDisc5,2021.2.3,60.06044604829104,
images/exp1b_trial_278_colour2_distractors9_l.png,l,1,2,9,1,,,,,0,131,131,131,,,,,,,,,,,,,,,,,,,,,,,,,,,,,,,,,,,,,,,,,,,391.41029618901666,None,2,0.1877222849871032,391.41029618901666,None,,,,,,,,,,,,,,,,None,None,None,,None,None,391.6467222030042,None,1,1,0.7237825580523349,391.6467222030042,None,392.36126786333045,None,None,None,None,,25,001,2023_Jan_23_1439,searchDisc5,2021.2.3,60.06044604829104,
images/exp1b_trial_261_colour2_distractors1_r.png,r,3,2,1,1,,,,,0,132,132,132,,,,,,,,,,,,,,,,,,,,,,,,,,,,,,,,,,,,,,,,,,,392.37691433902364,None,2,0.22184340102830902,392.37691433902364,None,,,,,,,,,,,,,,,,None,None,None,,None,None,392.6463610660285,None,3,1,0.7055146410129964,392.6463610660285,None,393.3446991813486,None,None,None,None,,25,001,2023_Jan_23_1439,searchDisc5,2021.2.3,60.06044604829104,
images/exp1b_trial_311_colour2_distractors19_l.png,l,1,2,19,1,,,,,0,133,133,133,,,,,,,,,,,,,,,,,,,,,,,,,,,,,,,,,,,,,,,,,,,393.36100735800574,None,2,0.21936847403412685,393.36100735800574,None,,,,,,,,,,,,,,,,None,None,None,,None,None,393.6297628430184,None,1,1,0.8534447600250132,393.6297628430184,None,394.4780518943095,None,None,None,None,,25,001,2023_Jan_23_1439,searchDisc5,2021.2.3,60.06044604829104,
images/exp1b_trial_268_colour3_distractors9_r.png,r,3,3,9,1,,,,,0,134,134,134,,,,,,,,,,,,,,,,,,,,,,,,,,,,,,,,,,,,,,,,,,,394.496404627047,None,2,0.17328022804576904,394.496404627047,None,,,,,,,,,,,,,,,,None,None,None,,None,None,394.7131372130243,None,3,1,0.7187873189686798,394.7131372130243,None,395.42806541729954,None,None,None,None,,25,001,2023_Jan_23_1439,searchDisc5,2021.2.3,60.06044604829104,
images/exp1b_trial_279_colour2_distractors19_l.png,l,1,2,19,1,,,,,0,135,135,135,,,,,,,,,,,,,,,,,,,,,,,,,,,,,,,,,,,,,,,,,,,395.44410230003996,None,2,0.2042702219914645,395.44410230003996,None,,,,,,,,,,,,,,,,None,None,None,,None,None,395.6962377880118,None,1,1,0.8710468609933741,395.6962377880118,None,396.5614050333039,None,None,None,None,,25,001,2023_Jan_23_1439,searchDisc5,2021.2.3,60.06044604829104,
images/exp1b_trial_219_colour3_distractors9_l.png,l,1,3,9,1,,,,,0,136,136,136,,,,,,,,,,,,,,,,,,,,,,,,,,,,,,,,,,,,,,,,,,,396.5777790470165,None,2,0.15438365703448653,396.5777790470165,None,,,,,,,,,,,,,,,,None,None,None,,None,None,396.77806116401916,None,1,1,0.8213850180036388,396.77806116401916,None,397.59507527332755,None,None,None,None,,25,001,2023_Jan_23_1439,searchDisc5,2021.2.3,60.06044604829104,
images/exp1b_trial_168_colour2_distractors19_r.png,r,3,2,19,1,,,,,0,137,137,137,,,,,,,,,,,,,,,,,,,,,,,,,,,,,,,,,,,,,,,,,,,397.61124259402277,None,2,0.1544175170129165,397.61124259402277,None,,,,,,,,,,,,,,,,None,None,None,,None,None,397.8137211780413,None,3,1,0.8382343660341576,397.8137211780413,None,398.6448295263341,None,None,None,None,,25,001,2023_Jan_23_1439,searchDisc5,2021.2.3,60.06044604829104,
images/exp1b_trial_160_colour1_distractors1_r.png,r,3,1,1,1,,,,,0,138,138,138,,,,,,,,,,,,,,,,,,,,,,,,,,,,,,,,,,,,,,,,,,,398.660862992052,None,2,0.20710468397010118,398.660862992052,None,,,,,,,,,,,,,,,,None,None,None,,None,None,398.9115675040521,None,3,1,1.1543780849897303,398.9115675040521,None,400.0616135393153,None,None,None,None,,25,001,2023_Jan_23_1439,searchDisc5,2021.2.3,60.06044604829104,
images/exp1b_trial_38_colour2_distractors4_r.png,r,3,2,4,1,,,,,0,139,139,139,,,,,,,,,,,,,,,,,,,,,,,,,,,,,,,,,,,,,,,,,,,400.07761594402837,None,2,0.2878030489664525,400.07761594402837,None,,,,,,,,,,,,,,,,None,None,None,,None,None,400.41148259304464,None,3,1,0.7223909019958228,400.41148259304464,None,401.12821811730976,None,None,None,None,,25,001,2023_Jan_23_1439,searchDisc5,2021.2.3,60.06044604829104,
images/exp1b_trial_82_colour1_distractors19_l.png,l,1,1,19,1,,,,,0,140,140,140,,,,,,,,,,,,,,,,,,,,,,,,,,,,,,,,,,,,,,,,,,,401.14456062804675,None,2,0.223449191020336,401.14456062804675,None,,,,,,,,,,,,,,,,None,None,None,,None,None,401.4135191600071,None,1,1,0.9008747389889322,401.4135191600071,None,402.3114741172991,None,None,None,None,,25,001,2023_Jan_23_1439,searchDisc5,2021.2.3,60.06044604829104,
images/exp1b_trial_110_colour3_distractors31_r.png,r,3,3,31,1,,,,,0,141,141,141,,,,,,,,,,,,,,,,,,,,,,,,,,,,,,,,,,,,,,,,,,,402.3277152189985,None,2,0.1544190010172315,402.3277152189985,None,,,,,,,,,,,,,,,,None,None,None,,None,None,402.5301705690217,None,3,1,1.9692709930241108,402.5301705690217,None,404.49501812733945,None,None,None,None,,25,001,2023_Jan_23_1439,searchDisc5,2021.2.3,60.06044604829104,
images/exp1b_trial_70_colour2_distractors4_r.png,r,3,2,4,1,,,,,0,142,142,142,,,,,,,,,,,,,,,,,,,,,,,,,,,,,,,,,,,,,,,,,,,404.5110128430533,None,2,0.23983236402273178,404.5110128430533,None,,,,,,,,,,,,,,,,None,None,None,,None,None,404.7968404930434,None,3,1,0.7191612799651921,404.7968404930434,None,405.51075664834354,None,None,None,None,,25,001,2023_Jan_23_1439,searchDisc5,2021.2.3,60.06044604829104,
images/exp1b_trial_33_colour1_distractors4_r.png,r,3,1,4,1,,,,,0,143,143,143,,,,,,,,,,,,,,,,,,,,,,,,,,,,,,,,,,,,,,,,,,,405.5280237980187,None,2,0.207533979031723,405.5280237980187,None,,,,,,,,,,,,,,,,None,None,None,,None,None,405.78027858101996,None,3,1,0.5869671989930794,405.78027858101996,None,406.361726241326,None,None,None,None,,25,001,2023_Jan_23_1439,searchDisc5,2021.2.3,60.06044604829104,
images/exp1b_trial_46_colour3_distractors31_r.png,r,3,3,31,1,,,,,0,144,144,144,,,,,,,,,,,,,,,,,,,,,,,,,,,,,,,,,,,,,,,,,,,406.37788462801836,None,2,0.20655465801246464,406.37788462801836,None,,,,,,,,,,,,,,,,None,None,None,,None,None,406.6305408020271,None,3,1,0.7517409480060451,406.6305408020271,None,407.37836777834457,None,None,None,None,,25,001,2023_Jan_23_1439,searchDisc5,2021.2.3,60.06044604829104,
images/exp1b_trial_130_colour1_distractors9_r.png,r,3,1,9,1,,,,,0,145,145,145,,,,,,,,,,,,,,,,,,,,,,,,,,,,,,,,,,,,,,,,,,,407.394640766026,None,2,0.1888390160165727,407.394640766026,None,,,,,,,,,,,,,,,,None,None,None,,None,None,407.6301404310507,None,3,1,0.9522723960108124,407.6301404310507,None,408.5783409473021,None,None,None,None,,25,001,2023_Jan_23_1439,searchDisc5,2021.2.3,60.06044604829104,
images/exp1b_trial_184_colour2_distractors31_l.png,l,1,2,31,1,,,,,0,146,146,146,,,,,,,,,,,,,,,,,,,,,,,,,,,,,,,,,,,,,,,,,,,408.5944149820134,None,2,0.18790214095497504,408.5944149820134,None,,,,,,,,,,,,,,,,None,None,None,,None,None,408.8282619130332,None,1,1,0.6863537299796008,408.8282619130332,None,409.51114864533304,None,None,None,None,,25,001,2023_Jan_23_1439,searchDisc5,2021.2.3,60.06044604829104,
images/exp1b_trial_229_colour2_distractors1_r.png,r,3,2,1,1,,,,,0,147,147,147,,,,,,,,,,,,,,,,,,,,,,,,,,,,,,,,,,,,,,,,,,,409.52824893401703,None,2,0.15526046097511426,409.52824893401703,None,,,,,,,,,,,,,,,,None,None,None,,None,None,409.728422566026,None,3,1,0.6891523369704373,409.728422566026,None,410.4117029433488,None,None,None,None,,25,001,2023_Jan_23_1439,searchDisc5,2021.2.3,60.06044604829104,
images/exp1b_trial_102_colour2_distractors4_r.png,r,3,2,4,1,,,,,0,148,148,148,,,,,,,,,,,,,,,,,,,,,,,,,,,,,,,,,,,,,,,,,,,410.4279737379984,None,2,0.17111131403362378,410.4279737379984,None,,,,,,,,,,,,,,,,None,None,None,,None,None,410.64477995299967,None,3,1,0.6884574829600751,410.64477995299967,None,411.3283166413545,None,None,None,None,,25,001,2023_Jan_23_1439,searchDisc5,2021.2.3,60.06044604829104,
images/exp1b_trial_98_colour1_distractors9_r.png,r,3,1,9,1,,,,,0,149,149,149,,,,,,,,,,,,,,,,,,,,,,,,,,,,,,,,,,,,,,,,,,,411.34417283401126,None,2,0.20469826698536053,411.34417283401126,None,,,,,,,,,,,,,,,,None,None,None,,None,None,411.5971076870337,None,3,1,0.8881279680063017,411.5971076870337,None,412.4784244483104,None,None,None,None,,25,001,2023_Jan_23_1439,searchDisc5,2021.2.3,60.06044604829104,
images/exp1b_trial_105_colour2_distractors31_r.png,r,3,2,31,1,,,,,0,150,150,150,,,,,,,,,,,,,,,,,,,,,,,,,,,,,,,,,,,,,,,,,,,412.49485404003644,None,2,0.2045520329847932,412.49485404003644,None,,,,,,,,,,,,,,,,None,None,None,,None,None,412.74715669004945,None,3,1,0.7037412479985505,412.74715669004945,None,413.44529237635436,None,None,None,None,,25,001,2023_Jan_23_1439,searchDisc5,2021.2.3,60.06044604829104,
images/exp1b_trial_63_colour0_distractors0_l.png,l,1,0,0,1,,,,,0,151,151,151,,,,,,,,,,,,,,,,,,,,,,,,,,,,,,,,,,,,,,,,,,,413.46114669099916,None,2,0.22311334597179666,413.46114669099916,None,,,,,,,,,,,,,,,,None,None,None,,None,None,413.73021545103984,None,1,1,0.587799095956143,413.73021545103984,None,414.31196471335136,None,None,None,None,,25,001,2023_Jan_23_1439,searchDisc5,2021.2.3,60.06044604829104,
images/exp1b_trial_210_colour1_distractors19_l.png,l,1,1,19,1,,,,,0,152,152,152,,,,,,,,,,,,,,,,,,,,,,,,,,,,,,,,,,,,,,,,,,,414.327979489055,None,2,0.15455432701855898,414.327979489055,None,,,,,,,,,,,,,,,,None,None,None,,None,None,414.53050848201383,None,1,1,0.5861725449794903,414.53050848201383,None,415.1116914783139,None,None,None,None,,25,001,2023_Jan_23_1439,searchDisc5,2021.2.3,60.06044604829104,
images/exp1b_trial_107_colour3_distractors4_r.png,r,3,3,4,1,,,,,0,153,153,153,,,,,,,,,,,,,,,,,,,,,,,,,,,,,,,,,,,,,,,,,,,415.1275401490275,None,2,0.18995972897391766,415.1275401490275,None,,,,,,,,,,,,,,,,None,None,None,,None,None,415.3637678580126,None,3,1,1.0196147780516185,415.3637678580126,None,416.37852822234856,None,None,None,None,,25,001,2023_Jan_23_1439,searchDisc5,2021.2.3,60.06044604829104,
images/exp1b_trial_74_colour3_distractors1_r.png,r,3,3,1,1,,,,,0,154,154,154,,,,,,,,,,,,,,,,,,,,,,,,,,,,,,,,,,,,,,,,,,,416.3966542550479,None,2,0.23792522901203483,416.3966542550479,None,,,,,,,,,,,,,,,,None,None,None,,None,None,416.67862117500044,None,3,1,0.655997171998024,416.67862117500044,None,417.32862524935047,None,None,None,None,,25,001,2023_Jan_23_1439,searchDisc5,2021.2.3,60.06044604829104,
images/exp1b_trial_166_colour2_distractors4_r.png,r,3,2,4,1,,,,,0,155,155,155,,,,,,,,,,,,,,,,,,,,,,,,,,,,,,,,,,,,,,,,,,,417.34467473602854,None,2,0.15456396504305303,417.34467473602854,None,,,,,,,,,,,,,,,,None,None,None,,None,None,417.546749493049,None,3,1,0.7889051079982892,417.546749493049,None,418.3284930093447,None,None,None,None,,25,001,2023_Jan_23_1439,searchDisc5,2021.2.3,60.06044604829104,
images/exp1b_trial_263_colour2_distractors9_r.png,r,3,2,9,1,,,,,0,156,156,156,,,,,,,,,,,,,,,,,,,,,,,,,,,,,,,,,,,,,,,,,,,418.34449254500214,None,2,0.25696208397857845,418.34449254500214,None,,,,,,,,,,,,,,,,None,None,None,,None,None,418.6448340160423,None,3,1,0.8871944649727084,418.6448340160423,None,419.528865494323,None,None,None,None,,25,001,2023_Jan_23_1439,searchDisc5,2021.2.3,60.06044604829104,
images/exp1b_trial_224_colour1_distractors1_r.png,r,3,1,1,1,,,,,0,157,157,157,,,,,,,,,,,,,,,,,,,,,,,,,,,,,,,,,,,,,,,,,,,419.5448533940362,None,2,0.22319023398449644,419.5448533940362,None,,,,,,,,,,,,,,,,None,None,None,,None,None,419.81419414503034,None,3,1,0.5539688510471024,419.81419414503034,None,420.3621374963201,None,None,None,None,,25,001,2023_Jan_23_1439,searchDisc5,2021.2.3,60.06044604829104,
images/exp1b_trial_301_colour3_distractors19_r.png,r,3,3,19,1,,,,,0,158,158,158,,,,,,,,,,,,,,,,,,,,,,,,,,,,,,,,,,,,,,,,,,,420.3784507680102,None,2,0.22309953201329336,420.3784507680102,None,,,,,,,,,,,,,,,,None,None,None,,None,None,420.6472845550161,None,3,1,0.8850009329617023,420.6472845550161,None,421.5287852023263,None,None,None,None,,25,001,2023_Jan_23_1439,searchDisc5,2021.2.3,60.06044604829104,
images/exp1b_trial_113_colour1_distractors9_l.png,l,1,1,9,1,,,,,0,159,159,159,,,,,,,,,,,,,,,,,,,,,,,,,,,,,,,,,,,,,,,,,,,421.54516034800326,None,2,0.23973000701516867,421.54516034800326,None,,,,,,,,,,,,,,,,None,None,None,,None,None,421.83063557901187,None,1,1,0.7015062529826537,421.83063557901187,None,422.5282300883206,None,None,None,None,,25,001,2023_Jan_23_1439,searchDisc5,2021.2.3,60.06044604829104,
images/exp1b_trial_101_colour2_distractors1_r.png,r,3,2,1,1,,,,,0,160,160,160,,,,,,,,,,,,,,,,,,,,,,,,,,,,,,,,,,,,,,,,,,,422.54515439801617,None,2,0.19062831602059305,422.54515439801617,None,,,,,,,,,,,,,,,,None,None,None,,None,None,422.7808544670115,None,3,1,0.6707516110036522,422.7808544670115,None,423.44562519635076,None,None,None,None,,25,001,2023_Jan_23_1439,searchDisc5,2021.2.3,60.06044604829104,
images/exp1b_trial_104_colour2_distractors19_r.png,r,3,2,19,1,,,,,0,161,161,161,,,,,,,,,,,,,,,,,,,,,,,,,,,,,,,,,,,,,,,,,,,423.4614187719999,None,2,0.27115971205057576,423.4614187719999,None,,,,,,,,,,,,,,,,None,None,None,,None,None,423.77855798305245,None,3,1,0.6543019330129027,423.77855798305245,None,424.42905496732567,None,None,None,None,,25,001,2023_Jan_23_1439,searchDisc5,2021.2.3,60.06044604829104,
images/exp1b_trial_50_colour1_distractors19_l.png,l,1,1,19,1,,,,,0,162,162,162,,,,,,,,,,,,,,,,,,,,,,,,,,,,,,,,,,,,,,,,,,,424.44523626501905,None,2,0.2398114230018109,424.44523626501905,None,,,,,,,,,,,,,,,,None,None,None,,None,None,424.7303217020235,None,1,1,0.8348829360329546,424.7303217020235,None,425.56230126830053,None,None,None,None,,25,001,2023_Jan_23_1439,searchDisc5,2021.2.3,60.06044604829104,
images/exp1b_trial_8_colour2_distractors19_r.png,r,3,2,19,1,,,,,0,163,163,163,,,,,,,,,,,,,,,,,,,,,,,,,,,,,,,,,,,,,,,,,,,425.57855423004366,None,2,0.18991952802753076,425.57855423004366,None,,,,,,,,,,,,,,,,None,None,None,,None,None,425.8144419910386,None,3,1,0.768432104960084,425.8144419910386,None,426.57881477233025,None,None,None,None,,25,001,2023_Jan_23_1439,searchDisc5,2021.2.3,60.06044604829104,
images/exp1b_trial_94_colour0_distractors0_r.png,r,3,0,0,1,,,,,0,164,164,164,,,,,,,,,,,,,,,,,,,,,,,,,,,,,,,,,,,,,,,,,,,426.5969297470292,None,2,0.17361613496905193,426.5969297470292,None,,,,,,,,,,,,,,,,None,None,None,,None,None,426.81371833203593,None,3,1,0.6701797879650258,426.81371833203593,None,427.4788483393146,None,None,None,None,,25,001,2023_Jan_23_1439,searchDisc5,2021.2.3,60.06044604829104,
images/exp1b_trial_23_colour2_distractors19_l.png,l,1,2,19,1,,,,,0,165,165,165,,,,,,,,,,,,,,,,,,,,,,,,,,,,,,,,,,,,,,,,,,,427.4952238020487,None,2,0.22333218302810565,427.4952238020487,None,,,,,,,,,,,,,,,,None,None,None,,None,None,427.76222673105076,None,1,1,0.5351431849994697,427.76222673105076,None,428.2954362393008,None,None,None,None,,25,001,2023_Jan_23_1439,searchDisc5,2021.2.3,60.06044604829104,
images/exp1b_trial_24_colour2_distractors31_l.png,l,1,2,31,1,,,,,0,166,166,166,,,,,,,,,,,,,,,,,,,,,,,,,,,,,,,,,,,,,,,,,,,428.31137856299756,None,2,0.22140655701514333,428.31137856299756,None,,,,,,,,,,,,,,,,None,None,None,,None,None,428.57818289101124,None,1,1,0.8200232019880787,428.57818289101124,None,429.3954655043432,None,None,None,None,,25,001,2023_Jan_23_1439,searchDisc5,2021.2.3,60.06044604829104,
images/exp1b_trial_173_colour3_distractors19_r.png,r,3,3,19,1,,,,,0,167,167,167,,,,,,,,,,,,,,,,,,,,,,,,,,,,,,,,,,,,,,,,,,,429.4140457980102,None,2,0.17555221100337803,429.4140457980102,None,,,,,,,,,,,,,,,,None,None,None,,None,None,429.6306211129995,None,3,1,1.065899527980946,429.6306211129995,None,430.69577018232087,None,None,None,None,,25,001,2023_Jan_23_1439,searchDisc5,2021.2.3,60.06044604829104,
images/exp1b_trial_37_colour2_distractors1_r.png,r,3,2,1,1,,,,,0,168,168,168,,,,,,,,,,,,,,,,,,,,,,,,,,,,,,,,,,,,,,,,,,,430.7112540460075,None,2,0.28774204797809944,430.7112540460075,None,,,,,,,,,,,,,,,,None,None,None,,None,None,431.0457085330272,None,3,1,0.5893910360173322,431.0457085330272,None,431.62890878129986,None,None,None,None,,25,001,2023_Jan_23_1439,searchDisc5,2021.2.3,60.06044604829104,
images/exp1b_trial_236_colour3_distractors9_r.png,r,3,3,9,1,,,,,0,169,169,169,,,,,,,,,,,,,,,,,,,,,,,,,,,,,,,,,,,,,,,,,,,431.6453651880147,None,2,0.24210365198086947,431.6453651880147,None,,,,,,,,,,,,,,,,None,None,None,,None,None,431.93111549003515,None,3,1,0.6681644420023076,431.93111549003515,None,432.5956572603551,None,None,None,None,,25,001,2023_Jan_23_1439,searchDisc5,2021.2.3,60.06044604829104,
images/exp1b_trial_270_colour3_distractors31_r.png,r,3,3,31,1,,,,,0,170,170,170,,,,,,,,,,,,,,,,,,,,,,,,,,,,,,,,,,,,,,,,,,,432.6120555290254,None,2,0.2553503679810092,432.6120555290254,None,,,,,,,,,,,,,,,,None,None,None,,None,None,432.91258565400494,None,3,1,0.6352012240095064,432.91258565400494,None,433.54584853632844,None,None,None,None,,25,001,2023_Jan_23_1439,searchDisc5,2021.2.3,60.06044604829104,
images/exp1b_trial_40_colour2_distractors19_r.png,r,3,2,19,1,,,,,0,171,171,171,,,,,,,,,,,,,,,,,,,,,,,,,,,,,,,,,,,,,,,,,,,433.5619848910137,None,2,0.2869822030188516,433.5619848910137,None,,,,,,,,,,,,,,,,None,None,None,,None,None,433.8961373360362,None,3,1,0.687979944050312,433.8961373360362,None,434.5789889113163,None,None,None,None,,25,001,2023_Jan_23_1439,searchDisc5,2021.2.3,60.06044604829104,
images/exp1b_trial_310_colour2_distractors9_l.png,l,1,2,9,1,,,,,0,172,172,172,,,,,,,,,,,,,,,,,,,,,,,,,,,,,,,,,,,,,,,,,,,434.5951444520033,None,2,0.223469318007119,434.5951444520033,None,,,,,,,,,,,,,,,,None,None,None,,None,None,434.86226872203406,None,1,1,0.6364711400237866,434.86226872203406,None,435.49580156531886,None,None,None,None,,25,001,2023_Jan_23_1439,searchDisc5,2021.2.3,60.06044604829104,
images/exp1b_trial_162_colour1_distractors9_r.png,r,3,1,9,1,,,,,0,173,173,173,,,,,,,,,,,,,,,,,,,,,,,,,,,,,,,,,,,,,,,,,,,435.512193306,None,2,0.15458958403905854,435.512193306,None,,,,,,,,,,,,,,,,None,None,None,,None,None,435.71218715404393,None,3,1,0.7885710790287703,435.71218715404393,None,436.4957246283535,None,None,None,None,,25,001,2023_Jan_23_1439,searchDisc5,2021.2.3,60.06044604829104,
images/exp1b_trial_133_colour2_distractors1_r.png,r,3,2,1,1,,,,,0,174,174,174,,,,,,,,,,,,,,,,,,,,,,,,,,,,,,,,,,,,,,,,,,,436.51225597102894,None,2,0.1901910660089925,436.51225597102894,None,,,,,,,,,,,,,,,,None,None,None,,None,None,436.7478646110394,None,3,1,0.5706783650093712,436.7478646110394,None,437.31261943934953,None,None,None,None,,25,001,2023_Jan_23_1439,searchDisc5,2021.2.3,60.06044604829104,
images/exp1b_trial_14_colour3_distractors31_r.png,r,3,3,31,1,,,,,0,175,175,175,,,,,,,,,,,,,,,,,,,,,,,,,,,,,,,,,,,,,,,,,,,437.3286231040256,None,2,0.18776548601454124,437.3286231040256,None,,,,,,,,,,,,,,,,None,None,None,,None,None,437.5645718960441,None,3,1,1.2525337560218759,437.5645718960441,None,438.81271611429986,None,None,None,None,,25,001,2023_Jan_23_1439,searchDisc5,2021.2.3,60.06044604829104,
images/exp1b_trial_169_colour2_distractors31_r.png,r,3,2,31,1,,,,,0,176,176,176,,,,,,,,,,,,,,,,,,,,,,,,,,,,,,,,,,,,,,,,,,,438.82855314505287,None,2,0.23774149594828486,438.82855314505287,None,,,,,,,,,,,,,,,,None,None,None,,None,None,439.11229255300714,None,3,1,1.1368336440064013,439.11229255300714,None,440.2458741333336,None,None,None,None,,25,001,2023_Jan_23_1439,searchDisc5,2021.2.3,60.06044604829104,
images/exp1b_trial_155_colour3_distractors9_l.png,l,1,3,9,1,,,,,0,177,177,177,,,,,,,,,,,,,,,,,,,,,,,,,,,,,,,,,,,,,,,,,,,440.26234551600646,None,2,0.20660389197291806,440.26234551600646,None,,,,,,,,,,,,,,,,None,None,None,,None,None,440.5147003760212,None,1,1,0.7354824460344389,440.5147003760212,None,441.2459682963323,None,None,None,None,,25,001,2023_Jan_23_1439,searchDisc5,2021.2.3,60.06044604829104,
images/exp1b_trial_136_colour2_distractors19_r.png,r,3,2,19,1,,,,,0,178,178,178,,,,,,,,,,,,,,,,,,,,,,,,,,,,,,,,,,,,,,,,,,,441.2618231960223,None,2,0.15462472499348223,441.2618231960223,None,,,,,,,,,,,,,,,,None,None,None,,None,None,441.4645701450063,None,3,1,0.9209499289863743,441.4645701450063,None,442.37923195931364,None,None,None,None,,25,001,2023_Jan_23_1439,searchDisc5,2021.2.3,60.06044604829104,
images/exp1b_trial_92_colour3_distractors19_l.png,l,1,3,19,1,,,,,0,179,179,179,,,,,,,,,,,,,,,,,,,,,,,,,,,,,,,,,,,,,,,,,,,442.39514073199825,None,2,0.23972112103365362,442.39514073199825,None,,,,,,,,,,,,,,,,None,None,None,,None,None,442.67933801503386,None,1,1,1.1346506740082987,442.67933801503386,None,443.812815170351,None,None,None,None,,25,001,2023_Jan_23_1439,searchDisc5,2021.2.3,60.06044604829104,
images/exp1b_trial_122_colour3_distractors4_l.png,l,1,3,4,1,,,,,0,180,180,180,,,,,,,,,,,,,,,,,,,,,,,,,,,,,,,,,,,,,,,,,,,443.8289522860432,None,2,0.17137772601563483,443.8289522860432,None,,,,,,,,,,,,,,,,None,None,None,,None,None,444.04740743205184,None,1,1,0.70585134398425,444.04740743205184,None,444.745980031346,None,None,None,None,,25,001,2023_Jan_23_1439,searchDisc5,2021.2.3,60.06044604829104,
images/exp1b_trial_153_colour3_distractors1_l.png,l,1,3,1,1,,,,,0,181,181,181,,,,,,,,,,,,,,,,,,,,,,,,,,,,,,,,,,,,,,,,,,,444.76405584503664,None,2,0.15454747201874852,444.76405584503664,None,,,,,,,,,,,,,,,,None,None,None,,None,None,444.9626932510291,None,1,1,0.6556484210304916,444.9626932510291,None,445.61241898833543,None,None,None,None,,25,001,2023_Jan_23_1439,searchDisc5,2021.2.3,60.06044604829104,
images/exp1b_trial_167_colour2_distractors9_r.png,r,3,2,9,1,,,,,0,182,182,182,,,,,,,,,,,,,,,,,,,,,,,,,,,,,,,,,,,,,,,,,,,445.62895633501466,None,2,0.17333095899084583,445.62895633501466,None,,,,,,,,,,,,,,,,None,None,None,,None,None,445.84807387104956,None,3,1,0.835870802984573,445.84807387104956,None,446.6793398153037,None,None,None,None,,25,001,2023_Jan_23_1439,searchDisc5,2021.2.3,60.06044604829104,
images/exp1b_trial_49_colour1_distractors9_l.png,l,1,1,9,1,,,,,0,183,183,183,,,,,,,,,,,,,,,,,,,,,,,,,,,,,,,,,,,,,,,,,,,446.6953641770524,None,2,0.33724489202722907,446.6953641770524,None,,,,,,,,,,,,,,,,None,None,None,,None,None,447.079336394032,None,1,1,0.8046095130266622,447.079336394032,None,447.87933308132926,None,None,None,None,,25,001,2023_Jan_23_1439,searchDisc5,2021.2.3,60.06044604829104,
images/exp1b_trial_72_colour2_distractors19_r.png,r,3,2,19,1,,,,,0,184,184,184,,,,,,,,,,,,,,,,,,,,,,,,,,,,,,,,,,,,,,,,,,,447.8959018140449,None,2,0.20435538096353412,447.8959018140449,None,,,,,,,,,,,,,,,,None,None,None,,None,None,448.1483727230225,None,3,1,1.0370339609798975,448.1483727230225,None,449.1794032903505,None,None,None,None,,25,001,2023_Jan_23_1439,searchDisc5,2021.2.3,60.06044604829104,
images/exp1b_trial_197_colour2_distractors1_r.png,r,3,2,1,1,,,,,0,185,185,185,,,,,,,,,,,,,,,,,,,,,,,,,,,,,,,,,,,,,,,,,,,449.1953532900079,None,2,0.22127708996413276,449.1953532900079,None,,,,,,,,,,,,,,,,None,None,None,,None,None,449.46492813300574,None,3,1,0.6388631149893627,449.46492813300574,None,450.0956108273473,None,None,None,None,,25,001,2023_Jan_23_1439,searchDisc5,2021.2.3,60.06044604829104,
images/exp1b_trial_227_colour1_distractors19_r.png,r,3,1,19,1,,,,,0,186,186,186,,,,,,,,,,,,,,,,,,,,,,,,,,,,,,,,,,,,,,,,,,,450.1124142030021,None,2,0.24051613704068586,450.1124142030021,None,,,,,,,,,,,,,,,,None,None,None,,None,None,450.3983192250016,None,3,1,0.867572816030588,450.3983192250016,None,451.26290619934446,None,None,None,None,,25,001,2023_Jan_23_1439,searchDisc5,2021.2.3,60.06044604829104,
images/exp1b_trial_190_colour0_distractors0_r.png,r,3,0,0,1,,,,,0,187,187,187,,,,,,,,,,,,,,,,,,,,,,,,,,,,,,,,,,,,,,,,,,,451.28140492300736,None,2,0.20449771697167307,451.28140492300736,None,,,,,,,,,,,,,,,,None,None,None,,None,None,451.531720204046,None,3,1,0.5391514569637366,451.531720204046,None,452.0628383983509,None,None,None,None,,25,001,2023_Jan_23_1439,searchDisc5,2021.2.3,60.06044604829104,
images/exp1b_trial_65_colour1_distractors4_r.png,r,3,1,4,1,,,,,0,188,188,188,,,,,,,,,,,,,,,,,,,,,,,,,,,,,,,,,,,,,,,,,,,452.0788844470517,None,2,0.27342681703157723,452.0788844470517,None,,,,,,,,,,,,,,,,None,None,None,,None,None,452.3978010209976,None,3,1,0.5701648370013572,452.3978010209976,None,452.96297368234957,None,None,None,None,,25,001,2023_Jan_23_1439,searchDisc5,2021.2.3,60.06044604829104,
images/exp1b_trial_95_colour0_distractors0_l.png,l,1,0,0,1,,,,,0,189,189,189,,,,,,,,,,,,,,,,,,,,,,,,,,,,,,,,,,,,,,,,,,,452.97892869700445,None,2,0.22334474901435897,452.97892869700445,None,,,,,,,,,,,,,,,,None,None,None,,None,None,453.24854867201066,None,1,1,0.6205370350508019,453.24854867201066,None,453.86305877231064,None,None,None,None,,25,001,2023_Jan_23_1439,searchDisc5,2021.2.3,60.06044604829104,
images/exp1b_trial_165_colour2_distractors1_r.png,r,3,2,1,1,,,,,0,190,190,190,,,,,,,,,,,,,,,,,,,,,,,,,,,,,,,,,,,,,,,,,,,453.8788711730158,None,2,0.15453427500324324,453.8788711730158,None,,,,,,,,,,,,,,,,None,None,None,,None,None,454.07966282899724,None,3,1,0.6744123389944434,454.07966282899724,None,454.7462686113082,None,None,None,None,,25,001,2023_Jan_23_1439,searchDisc5,2021.2.3,60.06044604829104,
images/exp1b_trial_118_colour2_distractors9_l.png,l,1,2,9,1,,,,,0,191,191,191,,,,,,,,,,,,,,,,,,,,,,,,,,,,,,,,,,,,,,,,,,,454.76439654803835,None,2,0.20499409001786262,454.76439654803835,None,,,,,,,,,,,,,,,,None,None,None,,None,None,455.01269505900564,None,1,1,0.5860157739953138,455.01269505900564,None,455.59636841734175,None,None,None,None,,25,001,2023_Jan_23_1439,searchDisc5,2021.2.3,60.06044604829104,
images/exp1b_trial_199_colour2_distractors9_r.png,r,3,2,9,1,,,,,0,192,192,192,,,,,,,,,,,,,,,,,,,,,,,,,,,,,,,,,,,,,,,,,,,455.612146760046,None,2,0.17126263701356947,455.612146760046,None,,,,,,,,,,,,,,,,None,None,None,,None,None,455.8316548380535,None,3,1,0.7549776710220613,455.8316548380535,None,456.5796385083464,None,None,None,None,,25,001,2023_Jan_23_1439,searchDisc5,2021.2.3,60.06044604829104,
images/exp1b_trial_83_colour1_distractors31_l.png,l,1,1,31,1,,,,,0,193,193,193,,,,,,,,,,,,,,,,,,,,,,,,,,,,,,,,,,,,,,,,,,,456.5960182720446,None,2,0.304091515019536,456.5960182720446,None,,,,,,,,,,,,,,,,None,None,None,,None,None,456.9462838030304,None,1,1,0.9192148669972084,456.9462838030304,None,457.86310597133127,None,None,None,None,,25,001,2023_Jan_23_1439,searchDisc5,2021.2.3,60.06044604829104,
images/exp1b_trial_240_colour1_distractors4_l.png,l,1,1,4,1,,,,,0,194,194,194,,,,,,,,,,,,,,,,,,,,,,,,,,,,,,,,,,,,,,,,,,,457.8791839320329,None,2,0.17107530200155452,457.8791839320329,None,,,,,,,,,,,,,,,,None,None,None,,None,None,458.0984232960036,None,1,1,0.6884050400112756,458.0984232960036,None,458.7794104923029,None,None,None,None,,25,001,2023_Jan_23_1439,searchDisc5,2021.2.3,60.06044604829104,
images/exp1b_trial_117_colour2_distractors4_l.png,l,1,2,4,1,,,,,0,195,195,195,,,,,,,,,,,,,,,,,,,,,,,,,,,,,,,,,,,,,,,,,,,458.79840123001486,None,2,0.15716248302487656,458.79840123001486,None,,,,,,,,,,,,,,,,None,None,None,,None,None,458.9984815310454,None,1,1,0.5868405560031533,458.9984815310454,None,459.5800403703121,None,None,None,None,,25,001,2023_Jan_23_1439,searchDisc5,2021.2.3,60.06044604829104,
images/exp1b_trial_34_colour1_distractors9_r.png,r,3,1,9,1,,,,,0,196,196,196,,,,,,,,,,,,,,,,,,,,,,,,,,,,,,,,,,,,,,,,,,,459.5960515620536,None,2,0.1548871229751967,459.5960515620536,None,,,,,,,,,,,,,,,,None,None,None,,None,None,459.7986746680108,None,3,1,0.8372166819754057,459.7986746680108,None,460.6297721073148,None,None,None,None,,25,001,2023_Jan_23_1439,searchDisc5,2021.2.3,60.06044604829104,
images/exp1b_trial_81_colour1_distractors9_l.png,l,1,1,9,1,,,,,0,197,197,197,,,,,,,,,,,,,,,,,,,,,,,,,,,,,,,,,,,,,,,,,,,460.64615794003475,None,2,0.20671991299604997,460.64615794003475,None,,,,,,,,,,,,,,,,None,None,None,,None,None,460.89841562800575,None,1,1,0.6024200359825045,460.89841562800575,None,461.4966346323141,None,None,None,None,,25,001,2023_Jan_23_1439,searchDisc5,2021.2.3,60.06044604829104,
images/exp1b_trial_131_colour1_distractors19_r.png,r,3,1,19,1,,,,,0,198,198,198,,,,,,,,,,,,,,,,,,,,,,,,,,,,,,,,,,,,,,,,,,,461.5149136999971,None,2,0.1544607329997234,461.5149136999971,None,,,,,,,,,,,,,,,,None,None,None,,None,None,461.7150034120423,None,3,1,1.2530329250148498,461.7150034120423,None,462.96324684030844,None,None,None,None,,25,001,2023_Jan_23_1439,searchDisc5,2021.2.3,60.06044604829104,
images/exp1b_trial_142_colour3_distractors31_r.png,r,3,3,31,1,,,,,0,199,199,199,,,,,,,,,,,,,,,,,,,,,,,,,,,,,,,,,,,,,,,,,,,462.9793477640487,None,2,0.22077209601411596,462.9793477640487,None,,,,,,,,,,,,,,,,None,None,None,,None,None,463.24591211701045,None,3,1,0.8873926420346834,463.24591211701045,None,464.13004766232336,None,None,None,None,,25,001,2023_Jan_23_1439,searchDisc5,2021.2.3,60.06044604829104,
images/exp1b_trial_228_colour1_distractors31_r.png,r,3,1,31,1,,,,,0,200,200,200,,,,,,,,,,,,,,,,,,,,,,,,,,,,,,,,,,,,,,,,,,,464.1463083070121,None,2,0.2564814580255188,464.1463083070121,None,,,,,,,,,,,,,,,,None,None,None,,None,None,464.446608586004,None,3,1,0.8166375200380571,464.446608586004,None,465.26342488030207,None,None,None,None,,25,001,2023_Jan_23_1439,searchDisc5,2021.2.3,60.06044604829104,
images/exp1b_trial_312_colour2_distractors31_l.png,l,1,2,31,1,,,,,0,201,201,201,,,,,,,,,,,,,,,,,,,,,,,,,,,,,,,,,,,,,,,,,,,465.27925023203716,None,2,0.24007809400791302,465.27925023203716,None,,,,,,,,,,,,,,,,None,None,None,,None,None,465.5654671390075,None,1,1,0.601141038001515,465.5654671390075,None,466.1633549283375,None,None,None,None,,25,001,2023_Jan_23_1439,searchDisc5,2021.2.3,60.06044604829104,
images/exp1b_trial_277_colour2_distractors4_l.png,l,1,2,4,1,,,,,0,202,202,202,,,,,,,,,,,,,,,,,,,,,,,,,,,,,,,,,,,,,,,,,,,466.1812394830049,None,2,0.18999162799445912,466.1812394830049,None,,,,,,,,,,,,,,,,None,None,None,,None,None,466.4153110150364,None,1,1,0.6702091519837268,466.4153110150364,None,467.07999585734217,None,None,None,None,,25,001,2023_Jan_23_1439,searchDisc5,2021.2.3,60.06044604829104,
images/exp1b_trial_68_colour1_distractors31_r.png,r,3,1,31,1,,,,,0,203,203,203,,,,,,,,,,,,,,,,,,,,,,,,,,,,,,,,,,,,,,,,,,,467.09592197299935,None,2,0.17321221000747755,467.09592197299935,None,,,,,,,,,,,,,,,,None,None,None,,None,None,467.3146407980239,None,3,1,0.9665333229932003,467.3146407980239,None,468.28014464934824,None,None,None,None,,25,001,2023_Jan_23_1439,searchDisc5,2021.2.3,60.06044604829104,
images/exp1b_trial_307_colour1_distractors31_l.png,l,1,1,31,1,,,,,0,204,204,204,,,,,,,,,,,,,,,,,,,,,,,,,,,,,,,,,,,,,,,,,,,468.2962603800115,None,2,0.256396145967301,468.2962603800115,None,,,,,,,,,,,,,,,,None,None,None,,None,None,468.5965868140338,None,1,1,0.8001858409843408,468.5965868140338,None,469.3966307003517,None,None,None,None,,25,001,2023_Jan_23_1439,searchDisc5,2021.2.3,60.06044604829104,
images/exp1b_trial_172_colour3_distractors9_r.png,r,3,3,9,1,,,,,0,205,205,205,,,,,,,,,,,,,,,,,,,,,,,,,,,,,,,,,,,,,,,,,,,469.4129565860494,None,2,0.22307115799048916,469.4129565860494,None,,,,,,,,,,,,,,,,None,None,None,,None,None,469.6823342740536,None,3,1,1.4364566060248762,469.6823342740536,None,471.1133415483288,None,None,None,None,,25,001,2023_Jan_23_1439,searchDisc5,2021.2.3,60.06044604829104,
images/exp1b_trial_108_colour3_distractors9_r.png,r,3,3,9,1,,,,,0,206,206,206,,,,,,,,,,,,,,,,,,,,,,,,,,,,,,,,,,,,,,,,,,,471.1312399570015,None,2,0.2702577660093084,471.1312399570015,None,,,,,,,,,,,,,,,,None,None,None,,None,None,471.4466839079978,None,3,1,0.8869598479941487,471.4466839079978,None,472.3300775613403,None,None,None,None,,25,001,2023_Jan_23_1439,searchDisc5,2021.2.3,60.06044604829104,
images/exp1b_trial_317_colour3_distractors31_l.png,l,1,3,31,1,,,,,0,207,207,207,,,,,,,,,,,,,,,,,,,,,,,,,,,,,,,,,,,,,,,,,,,472.34809620602755,None,2,0.22169083601329476,472.34809620602755,None,,,,,,,,,,,,,,,,None,None,None,,None,None,472.61322704004124,None,1,1,1.5524872569949366,472.61322704004124,None,474.1635928383563,None,None,None,None,,25,001,2023_Jan_23_1439,searchDisc5,2021.2.3,60.06044604829104,
images/exp1b_trial_235_colour3_distractors4_r.png,r,3,3,4,1,,,,,0,208,208,208,,,,,,,,,,,,,,,,,,,,,,,,,,,,,,,,,,,,,,,,,,,474.17948180803796,None,2,0.22324729495448992,474.17948180803796,None,,,,,,,,,,,,,,,,None,None,None,,None,None,474.4488987280056,None,3,1,0.719751713972073,474.4488987280056,None,475.1634813553188,None,None,None,None,,25,001,2023_Jan_23_1439,searchDisc5,2021.2.3,60.06044604829104,
images/exp1b_trial_15_colour1_distractors1_l.png,l,1,1,1,1,,,,,0,209,209,209,,,,,,,,,,,,,,,,,,,,,,,,,,,,,,,,,,,,,,,,,,,475.17940213304246,None,2,0.2568528939737007,475.17940213304246,None,,,,,,,,,,,,,,,,None,None,None,,None,None,475.48037431703415,None,1,1,0.6864394299918786,475.48037431703415,None,476.1635994903278,None,None,None,None,,25,001,2023_Jan_23_1439,searchDisc5,2021.2.3,60.06044604829104,
images/exp1b_trial_206_colour3_distractors31_r.png,r,3,3,31,1,,,,,0,210,210,210,,,,,,,,,,,,,,,,,,,,,,,,,,,,,,,,,,,,,,,,,,,476.17980313900625,None,2,0.1897310939966701,476.17980313900625,None,,,,,,,,,,,,,,,,None,None,None,,None,None,476.4151917810086,None,3,1,1.4007660579518415,476.4151917810086,None,477.81380946331194,None,None,None,None,,25,001,2023_Jan_23_1439,searchDisc5,2021.2.3,60.06044604829104,
images/exp1b_trial_269_colour3_distractors19_r.png,r,3,3,19,1,,,,,0,211,211,211,,,,,,,,,,,,,,,,,,,,,,,,,,,,,,,,,,,,,,,,,,,477.8299439130351,None,2,0.23986235697520897,477.8299439130351,None,,,,,,,,,,,,,,,,None,None,None,,None,None,478.1132590830093,None,3,1,1.18403889099136,478.1132590830093,None,479.29711900432596,None,None,None,None,,25,001,2023_Jan_23_1439,searchDisc5,2021.2.3,60.06044604829104,
images/exp1b_trial_305_colour1_distractors9_l.png,l,1,1,9,1,,,,,0,212,212,212,,,,,,,,,,,,,,,,,,,,,,,,,,,,,,,,,,,,,,,,,,,479.3130943290307,None,2,0.37103837297763675,479.3130943290307,None,,,,,,,,,,,,,,,,None,None,None,,None,None,479.7324351830175,None,1,1,0.8876695110229775,479.7324351830175,None,480.6135653403122,None,None,None,None,,25,001,2023_Jan_23_1439,searchDisc5,2021.2.3,60.06044604829104,
images/exp1b_trial_3_colour1_distractors19_r.png,r,3,1,19,1,,,,,0,213,213,213,,,,,,,,,,,,,,,,,,,,,,,,,,,,,,,,,,,,,,,,,,,480.6293083340279,None,2,0.20463034504791722,480.6293083340279,None,,,,,,,,,,,,,,,,None,None,None,,None,None,480.88242769800127,None,3,1,0.7555249130236916,480.88242769800127,None,481.63026425035207,None,None,None,None,,25,001,2023_Jan_23_1439,searchDisc5,2021.2.3,60.06044604829104,
images/exp1b_trial_276_colour2_distractors1_l.png,l,1,2,1,1,,,,,0,214,214,214,,,,,,,,,,,,,,,,,,,,,,,,,,,,,,,,,,,,,,,,,,,481.6459309630445,None,2,0.26951958698919043,481.6459309630445,None,,,,,,,,,,,,,,,,None,None,None,,None,None,481.96372233500006,None,1,1,0.7061730669811368,481.96372233500006,None,482.6638472483261,None,None,None,None,,25,001,2023_Jan_23_1439,searchDisc5,2021.2.3,60.06044604829104,
images/exp1b_trial_123_colour3_distractors9_l.png,l,1,3,9,1,,,,,0,215,215,215,,,,,,,,,,,,,,,,,,,,,,,,,,,,,,,,,,,,,,,,,,,482.67991989303846,None,2,0.22508227097569034,482.67991989303846,None,,,,,,,,,,,,,,,,None,None,None,,None,None,482.9471398110036,None,1,1,0.8841290510026738,482.9471398110036,None,483.83039566335503,None,None,None,None,,25,001,2023_Jan_23_1439,searchDisc5,2021.2.3,60.06044604829104,
images/exp1b_trial_170_colour3_distractors1_r.png,r,3,3,1,1,,,,,0,216,216,216,,,,,,,,,,,,,,,,,,,,,,,,,,,,,,,,,,,,,,,,,,,483.8469383670017,None,2,0.1869262889958918,483.8469383670017,None,,,,,,,,,,,,,,,,None,None,None,,None,None,484.08267134201014,None,3,1,0.9059277710039169,484.08267134201014,None,484.98038744335065,None,None,None,None,,25,001,2023_Jan_23_1439,searchDisc5,2021.2.3,60.06044604829104,
images/exp1b_trial_17_colour1_distractors9_l.png,l,1,1,9,1,,,,,0,217,217,217,,,,,,,,,,,,,,,,,,,,,,,,,,,,,,,,,,,,,,,,,,,484.99641135602724,None,2,0.24016545101767406,484.99641135602724,None,,,,,,,,,,,,,,,,None,None,None,,None,None,485.28185344702797,None,1,1,0.8859891640022397,485.28185344702797,None,486.163837121299,None,None,None,None,,25,001,2023_Jan_23_1439,searchDisc5,2021.2.3,60.06044604829104,
images/exp1b_trial_76_colour3_distractors9_r.png,r,3,3,9,1,,,,,0,218,218,218,,,,,,,,,,,,,,,,,,,,,,,,,,,,,,,,,,,,,,,,,,,486.17986330605345,None,2,0.27119788294658065,486.17986330605345,None,,,,,,,,,,,,,,,,None,None,None,,None,None,486.49700478999875,None,3,1,1.3376902519958094,486.49700478999875,None,487.8305908283452,None,None,None,None,,25,001,2023_Jan_23_1439,searchDisc5,2021.2.3,60.06044604829104,
images/exp1b_trial_213_colour2_distractors4_l.png,l,1,2,4,1,,,,,0,219,219,219,,,,,,,,,,,,,,,,,,,,,,,,,,,,,,,,,,,,,,,,,,,487.8469354190165,None,2,0.2709946020040661,487.8469354190165,None,,,,,,,,,,,,,,,,None,None,None,,None,None,488.1635438290541,None,1,1,0.8554745189612731,488.1635438290541,None,489.01385659429945,None,None,None,None,,25,001,2023_Jan_23_1439,searchDisc5,2021.2.3,60.06044604829104,
images/exp1b_trial_247_colour2_distractors19_l.png,l,1,2,19,1,,,,,0,220,220,220,,,,,,,,,,,,,,,,,,,,,,,,,,,,,,,,,,,,,,,,,,,489.0303754550405,None,2,0.18784744496224448,489.0303754550405,None,,,,,,,,,,,,,,,,None,None,None,,None,None,489.2656928540091,None,1,1,0.7210498510394245,489.2656928540091,None,489.98061284035214,None,None,None,None,,25,001,2023_Jan_23_1439,searchDisc5,2021.2.3,60.06044604829104,
images/exp1b_trial_256_colour1_distractors1_r.png,r,3,1,1,1,,,,,0,221,221,221,,,,,,,,,,,,,,,,,,,,,,,,,,,,,,,,,,,,,,,,,,,489.9969745420385,None,2,0.22334409999893978,489.9969745420385,None,,,,,,,,,,,,,,,,None,None,None,,None,None,490.266043126001,None,3,1,0.6539160059764981,490.266043126001,None,490.9139931512997,None,None,None,None,,25,001,2023_Jan_23_1439,searchDisc5,2021.2.3,60.06044604829104,
images/exp1b_trial_96_colour1_distractors1_r.png,r,3,1,1,1,,,,,0,222,222,222,,,,,,,,,,,,,,,,,,,,,,,,,,,,,,,,,,,,,,,,,,,490.93009869899834,None,2,0.2545762929948978,490.93009869899834,None,,,,,,,,,,,,,,,,None,None,None,,None,None,491.230646955024,None,3,1,0.8058139720233157,491.230646955024,None,492.0304801573162,None,None,None,None,,25,001,2023_Jan_23_1439,searchDisc5,2021.2.3,60.06044604829104,
images/exp1b_trial_316_colour3_distractors19_l.png,l,1,3,19,1,,,,,0,223,223,223,,,,,,,,,,,,,,,,,,,,,,,,,,,,,,,,,,,,,,,,,,,492.04701244900934,None,2,0.2568286649766378,492.04701244900934,None,,,,,,,,,,,,,,,,None,None,None,,None,None,492.3471921310411,None,1,1,0.5841710499953479,492.3471921310411,None,492.9302260253113,None,None,None,None,,25,001,2023_Jan_23_1439,searchDisc5,2021.2.3,60.06044604829104,
images/exp1b_trial_304_colour1_distractors4_l.png,l,1,1,4,1,,,,,0,224,224,224,,,,,,,,,,,,,,,,,,,,,,,,,,,,,,,,,,,,,,,,,,,492.94692606001627,None,2,0.17175137699814513,492.94692606001627,None,,,,,,,,,,,,,,,,None,None,None,,None,None,493.1657334250049,None,1,1,0.8556700539775193,493.1657334250049,None,494.014094516309,None,None,None,None,,25,001,2023_Jan_23_1439,searchDisc5,2021.2.3,60.06044604829104,
