ImageFile,targ_side,correctAnswer,colour,distNo,targetType,trials_2.thisRepN,trials_2.thisTrialN,trials_2.thisN,trials_2.thisIndex,trials.thisRepN,trials.thisTrialN,trials.thisN,trials.thisIndex,text_6.started,text_6.stopped,buttonBox.keys,buttonBox.rt,buttonBox.started,buttonBox.stopped,text_7.started,text_7.stopped,buttonBox_3.keys,buttonBox_3.rt,buttonBox_3.started,buttonBox_3.stopped,text_8.started,text_8.stopped,buttonBox_4.keys,buttonBox_4.rt,buttonBox_4.started,buttonBox_4.stopped,text_9.started,text_9.stopped,buttonBox_5.keys,buttonBox_5.rt,buttonBox_5.started,buttonBox_5.stopped,text_2.started,text_2.stopped,buttonBox_6.keys,buttonBox_6.rt,buttonBox_6.started,buttonBox_6.stopped,text_5.started,text_5.stopped,buttonBox_7.keys,buttonBox_7.rt,image_2.started,image_2.stopped,image_3.started,image_3.stopped,buttonBox_8.keys,buttonBox_8.rt,buttonBox_8.started,buttonBox_8.stopped,polygon.started,polygon.stopped,buttonBox_9.keys,buttonBox_9.rt,buttonBox_9.started,buttonBox_9.stopped,image.started,image.stopped,buttonBox_10.keys,buttonBox_10.corr,buttonBox_10.rt,buttonBox_10.started,buttonBox_10.stopped,text_4.started,text_4.stopped,text.started,text.stopped,buttonBox_11.keys,buttonBox_11.rt,buttonBox_11.started,buttonBox_11.stopped,targetTypeInstruction.started,targetTypeInstruction.stopped,buttonBox_2.keys,buttonBox_2.rt,buttonBox_2.started,buttonBox_2.stopped,dispStimuli.started,dispStimuli.stopped,buttonBox_12.keys,buttonBox_12.corr,buttonBox_12.rt,buttonBox_12.started,buttonBox_12.stopped,breakMessage.started,breakMessage.stopped,buttonBox_13.keys,buttonBox_13.started,buttonBox_13.stopped,buttonBox_13.rt,participant,session,date,expName,psychopyVersion,frameRate,
,,,,,,,,,,,,,,34.58081197499996,None,2,73.05134777899366,34.58081197499996,None,,,,,,,,,,,,,,,,,,,,,,,,,,,,,,,,,,,,,,,,,,,,,,,,,,,,,,,,,,,,,,,,,,,,,,,,,,,,,27,001,2023_Jan_23_1608,searchDisc5,2021.2.3,59.99737091474428,
,,,,,,,,,,,,,,,,,,,,107.63089125003899,None,2,36.41619932599133,107.63089125003899,None,,,,,,,,,,,,,,,,,,,,,,,,,,,,,,,,,,,,,,,,,,,,,,,,,,,,,,,,,,,,,,,,,,,,,,,27,001,2023_Jan_23_1608,searchDisc5,2021.2.3,59.99737091474428,
,,,,,,,,,,,,,,,,,,,,,,,,,,144.04849929304328,None,2,11.048028533987235,144.04849929304328,None,,,,,,,,,,,,,,,,,,,,,,,,,,,,,,,,,,,,,,,,,,,,,,,,,,,,,,,,,,,,,,,,,27,001,2023_Jan_23_1608,searchDisc5,2021.2.3,59.99737091474428,
,,,,,,,,,,,,,,,,,,,,,,,,,,,,,,,,155.1010627730284,None,2,7.745940499997232,155.1010627730284,None,,,,,,,,,,,,,,,,,,,,,,,,,,,,,,,,,,,,,,,,,,,,,,,,,,,,,,,,,,,27,001,2023_Jan_23_1608,searchDisc5,2021.2.3,59.99737091474428,
,,,,,,,,,,,,,,,,,,,,,,,,,,,,,,,,,,,,,,162.84917371801566,None,2,9.248803897993639,163.83430070604663,None,,,,,,,,,,,,,,,,,,,,,,,,,,,,,,,,,,,,,,,,,,,,,,,,,,,,,27,001,2023_Jan_23_1608,searchDisc5,2021.2.3,59.99737091474428,
,,,,,,,,,,,,,,,,,,,,,,,,,,,,,,,,,,,,,,,,,,,,173.08258103299886,None,2,6.266865034005605,,,,,,,,,,,,,,,,,,,,,,,,,,,,,,,,,,,,,,,,,,,,,,,,,27,001,2023_Jan_23_1608,searchDisc5,2021.2.3,59.99737091474428,
,,,,,,,,,,,,,,,,,,,,,,,,,,,,,,,,,,,,,,,,,,,,,,,,182.34925265202764,None,182.34925265202764,None,2,7.21474136802135,182.34925265202764,None,,,,,,,,,,,,,,,,,,,,,,,,,,,,,,,,,,,,,,,,,27,001,2023_Jan_23_1608,searchDisc5,2021.2.3,59.99737091474428,
Practice arrays/exp1a_trial_7_colour2_distractors9_r.png,r,3,,,,0,0,0,2,,,,,,,,,,,,,,,,,,,,,,,,,,,,,,,,,,,,,,,,,,,,,,,189.60167114500655,None,2,2.852463901974261,189.60167114500655,None,192.49977943504928,None,3,1,2.5732492450042628,192.49977943504928,None,195.06618194200564,None,,,,,,,,,,,,,,,,,,,,,,,,,,27,001,2023_Jan_23_1608,searchDisc5,2021.2.3,59.99737091474428,
Practice arrays/exp1a_trial_27_colour3_distractors9_l.png,l,1,,,,0,1,1,12,,,,,,,,,,,,,,,,,,,,,,,,,,,,,,,,,,,,,,,,,,,,,,,197.0687020740006,None,2,0.6470024680020288,197.0687020740006,None,197.7668268000125,None,1,1,1.4500572859542444,197.7668268000125,None,199.2163879449945,None,,,,,,,,,,,,,,,,,,,,,,,,,,27,001,2023_Jan_23_1608,searchDisc5,2021.2.3,59.99737091474428,
Practice arrays/exp1a_trial_10_colour3_distractors1_r.png,r,3,,,,0,2,2,4,,,,,,,,,,,,,,,,,,,,,,,,,,,,,,,,,,,,,,,,,,,,,,,201.2182379839942,None,2,0.6638182160095312,201.2182379839942,None,201.93553908501053,None,3,1,3.1033948690164834,201.93553908501053,None,205.03360358200734,None,,,,,,,,,,,,,,,,,,,,,,,,,,27,001,2023_Jan_23_1608,searchDisc5,2021.2.3,59.99737091474428,
Practice arrays/exp1a_trial_8_colour2_distractors19_r.png,r,3,,,,0,3,3,3,,,,,,,,,,,,,,,,,,,,,,,,,,,,,,,,,,,,,,,,,,,,,,,207.03573777002748,None,2,0.44713019800838083,207.03573777002748,None,207.53610552701866,None,3,1,0.8515855419682339,207.53610552701866,None,208.38365162804257,None,,,,,,,,,,,,,,,,,,,,,,,,,,27,001,2023_Jan_23_1608,searchDisc5,2021.2.3,59.99737091474428,
Practice arrays/exp1a_trial_18_colour1_distractors19_l.png,l,1,,,,0,4,4,8,,,,,,,,,,,,,,,,,,,,,,,,,,,,,,,,,,,,,,,,,,,,,,,210.3856379140052,None,2,0.4302216289797798,210.3856379140052,None,210.8692738660029,None,1,1,0.8846031400025822,210.8692738660029,None,211.7504127320135,None,,,,,,,,,,,,,,,,,,,,,,,,,,27,001,2023_Jan_23_1608,searchDisc5,2021.2.3,59.99737091474428,
Practice arrays/exp1a_trial_0_colour1_distractors1_r.png,r,3,,,,0,5,5,0,,,,,,,,,,,,,,,,,,,,,,,,,,,,,,,,,,,,,,,,,,,,,,,213.75249756802805,None,2,0.41349650896154344,213.75249756802805,None,214.21743601199705,None,3,1,0.6887457459815778,214.21743601199705,None,214.9004312150064,None,,,,,,,,,,,,,,,,,,,,,,,,,,27,001,2023_Jan_23_1608,searchDisc5,2021.2.3,59.99737091474428,
Practice arrays/exp1a_trial_25_colour3_distractors1_l.png,l,1,,,,0,6,6,11,,,,,,,,,,,,,,,,,,,,,,,,,,,,,,,,,,,,,,,,,,,,,,,216.90260602004128,None,2,0.43071874900488183,216.90260602004128,None,217.38342377502704,None,1,1,0.80548603303032,217.38342377502704,None,218.1840174740064,None,,,,,,,,,,,,,,,,,,,,,,,,,,27,001,2023_Jan_23_1608,searchDisc5,2021.2.3,59.99737091474428,
Practice arrays/exp1a_trial_16_colour1_distractors4_l.png,l,1,,,,0,7,7,13,,,,,,,,,,,,,,,,,,,,,,,,,,,,,,,,,,,,,,,,,,,,,,,220.1856810640311,None,2,0.3824611369636841,220.1856810640311,None,220.61690011504106,None,1,1,0.8337576680351049,220.61690011504106,None,221.45071702304995,None,,,,,,,,,,,,,,,,,,,,,,,,,,27,001,2023_Jan_23_1608,searchDisc5,2021.2.3,59.99737091474428,
Practice arrays/exp1a_trial_1_colour1_distractors4_r.png,r,3,,,,0,8,8,1,,,,,,,,,,,,,,,,,,,,,,,,,,,,,,,,,,,,,,,,,,,,,,,223.4523368360242,None,2,0.7159551859949715,223.4523368360242,None,224.21935067203594,None,3,1,0.6524716280400753,224.21935067203594,None,224.86764876003144,None,,,,,,,,,,,,,,,,,,,,,,,,,,27,001,2023_Jan_23_1608,searchDisc5,2021.2.3,59.99737091474428,
Practice arrays/exp1a_trial_23_colour2_distractors19_l.png,l,1,,,,0,9,9,10,,,,,,,,,,,,,,,,,,,,,,,,,,,,,,,,,,,,,,,,,,,,,,,226.86952732503414,None,2,2.113912455039099,226.86952732503414,None,229.03442452702438,None,1,1,0.7846462349989451,229.03442452702438,None,229.81761639402248,None,,,,,,,,,,,,,,,,,,,,,,,,,,27,001,2023_Jan_23_1608,searchDisc5,2021.2.3,59.99737091474428,
Practice arrays/exp1a_trial_14_colour3_distractors31_r.png,r,3,,,,0,10,10,6,,,,,,,,,,,,,,,,,,,,,,,,,,,,,,,,,,,,,,,,,,,,,,,231.81943671300542,None,2,0.29721221898216754,231.81943671300542,None,232.16981882904656,None,3,1,0.5842823160346597,232.16981882904656,None,232.75101970200194,None,,,,,,,,,,,,,,,,,,,,,,,,,,27,001,2023_Jan_23_1608,searchDisc5,2021.2.3,59.99737091474428,
Practice arrays/exp1a_trial_17_colour1_distractors9_l.png,l,1,,,,0,11,11,7,,,,,,,,,,,,,,,,,,,,,,,,,,,,,,,,,,,,,,,,,,,,,,,234.75289615499787,None,2,0.365579670004081,234.75289615499787,None,235.16981114103692,None,1,1,0.6845278469845653,235.16981114103692,None,235.85059126402484,None,,,,,,,,,,,,,,,,,,,,,,,,,,27,001,2023_Jan_23_1608,searchDisc5,2021.2.3,59.99737091474428,
Practice arrays/exp1a_trial_12_colour3_distractors9_r.png,r,3,,,,0,12,12,5,,,,,,,,,,,,,,,,,,,,,,,,,,,,,,,,,,,,,,,,,,,,,,,237.8529081090237,None,2,0.39712963602505624,237.8529081090237,None,238.3014622820192,None,3,1,0.8005866729654372,238.3014622820192,None,239.10125671501737,None,,,,,,,,,,,,,,,,,,,,,,,,,,27,001,2023_Jan_23_1608,searchDisc5,2021.2.3,59.99737091474428,
Practice arrays/exp1a_trial_30_colour0_distractors0_r.png,r,3,,,,0,13,13,14,,,,,,,,,,,,,,,,,,,,,,,,,,,,,,,,,,,,,,,,,,,,,,,241.10287529899506,None,2,0.4304698559571989,241.10287529899506,None,241.5844134320505,None,3,1,0.6062081049894914,241.5844134320505,None,242.1845703550498,None,,,,,,,,,,,,,,,,,,,,,,,,,,27,001,2023_Jan_23_1608,searchDisc5,2021.2.3,59.99737091474428,
Practice arrays/exp1a_trial_21_colour2_distractors4_l.png,l,1,,,,0,14,14,9,,,,,,,,,,,,,,,,,,,,,,,,,,,,,,,,,,,,,,,,,,,,,,,244.18631785700563,None,2,0.4302613259642385,244.18631785700563,None,244.66815789003158,None,1,1,0.5879327289876528,244.66815789003158,None,245.25125497899717,None,,,,,,,,,,,,,,,,,,,,,,,,,,27,001,2023_Jan_23_1608,searchDisc5,2021.2.3,59.99737091474428,
Practice arrays/exp1a_trial_31_colour0_distractors0_l.png,l,1,,,,0,15,15,15,,,,,,,,,,,,,,,,,,,,,,,,,,,,,,,,,,,,,,,,,,,,,,,247.25344752403907,None,2,0.3658392099896446,247.25344752403907,None,247.6704719340196,None,1,1,0.5036813949700445,247.6704719340196,None,248.16771494504064,None,,,,,,,,,,,,,,,,,,,,,,,,,,27,001,2023_Jan_23_1608,searchDisc5,2021.2.3,59.99737091474428,
,,,,,,,,,,,,,,,,,,,,,,,,,,,,,,,,,,,,,,,,,,,,,,,,,,,,,,,,,,,,,,,,,,,,,,,250.2534367380431,None,2,6.082140311016701,251.2366192250047,None,,,,,,,,,,,,,,,,,,,,27,001,2023_Jan_23_1608,searchDisc5,2021.2.3,59.99737091474428,
images/exp2c_trial_168_colour2_distractors19_r.png,r,3,2,19,0,,,,,0,0,0,0,,,,,,,,,,,,,,,,,,,,,,,,,,,,,,,,,,,,,,,,,,,266.9514900370268,None,2,0.7290539300302044,266.9514900370268,None,,,,,,,,,,,,,,,,257.9207777910051,None,2,7.064779419975821,259.88706061500125,None,267.74464270001044,None,3,1,0.7301870190422051,267.74464270001044,None,268.4856547950418,None,None,None,None,,27,001,2023_Jan_23_1608,searchDisc5,2021.2.3,59.99737091474428,
images/exp2c_trial_29_colour3_distractors31_l.png,l,1,3,31,0,,,,,0,1,1,1,,,,,,,,,,,,,,,,,,,,,,,,,,,,,,,,,,,,,,,,,,,268.5015221630456,None,2,0.5028223720146343,268.5015221630456,None,,,,,,,,,,,,,,,,None,None,None,,None,None,269.054147537041,None,1,1,0.7517569470219314,269.054147537041,None,269.8016201315448,None,None,None,None,,27,001,2023_Jan_23_1608,searchDisc5,2021.2.3,59.99737091474428,
images/exp2b_trial_89_colour3_distractors1_l.png,l,1,3,1,0,,,,,0,2,2,2,,,,,,,,,,,,,,,,,,,,,,,,,,,,,,,,,,,,,,,,,,,269.81804849300534,None,2,0.4223932369495742,269.81804849300534,None,,,,,,,,,,,,,,,,None,None,None,,None,None,270.2868661270477,None,1,1,0.6542772619868629,270.2868661270477,None,270.9354510735255,None,None,None,None,,27,001,2023_Jan_23_1608,searchDisc5,2021.2.3,59.99737091474428,
images/exp1a_trial_8_colour2_distractors19_r.png,r,3,2,19,0,,,,,0,3,3,3,,,,,,,,,,,,,,,,,,,,,,,,,,,,,,,,,,,,,,,,,,,270.95165738801006,None,2,0.42280442704213783,270.95165738801006,None,,,,,,,,,,,,,,,,None,None,None,,None,None,271.4207513000001,None,3,1,1.016073642007541,271.4207513000001,None,272.4355841064942,None,None,None,None,,27,001,2023_Jan_23_1608,searchDisc5,2021.2.3,59.99737091474428,
images/exp1a_trial_167_colour2_distractors9_r.png,r,3,2,9,0,,,,,0,4,4,4,,,,,,,,,,,,,,,,,,,,,,,,,,,,,,,,,,,,,,,,,,,272.4540451760404,None,2,0.35357974498765543,272.4540451760404,None,,,,,,,,,,,,,,,,None,None,None,,None,None,272.85441939503653,None,3,1,0.7539447780000046,272.85441939503653,None,273.60221289151815,None,None,None,None,,27,001,2023_Jan_23_1608,searchDisc5,2021.2.3,59.99737091474428,
images/exp1a_trial_140_colour3_distractors9_r.png,r,3,3,9,0,,,,,0,5,5,5,,,,,,,,,,,,,,,,,,,,,,,,,,,,,,,,,,,,,,,,,,,273.61849470000016,None,2,0.3199235599604435,273.61849470000016,None,,,,,,,,,,,,,,,,None,None,None,,None,None,273.98544669599505,None,3,1,0.5343418919946998,273.98544669599505,None,274.51883699449246,None,None,None,None,,27,001,2023_Jan_23_1608,searchDisc5,2021.2.3,59.99737091474428,
images/exp2c_trial_46_colour3_distractors31_r.png,r,3,3,31,0,,,,,0,6,6,6,,,,,,,,,,,,,,,,,,,,,,,,,,,,,,,,,,,,,,,,,,,274.53452302201185,None,2,0.32126504299230874,274.53452302201185,None,,,,,,,,,,,,,,,,None,None,None,,None,None,274.9022559199948,None,3,1,1.0702368170022964,274.9022559199948,None,275.9689283545129,None,None,None,None,,27,001,2023_Jan_23_1608,searchDisc5,2021.2.3,59.99737091474428,
images/exp2c_trial_200_colour2_distractors19_r.png,r,3,2,19,0,,,,,0,7,7,7,,,,,,,,,,,,,,,,,,,,,,,,,,,,,,,,,,,,,,,,,,,275.98520504601765,None,2,0.32109890499850735,275.98520504601765,None,,,,,,,,,,,,,,,,None,None,None,,None,None,276.352215040999,None,3,1,0.5707444790168665,276.352215040999,None,276.9194044465083,None,None,None,None,,27,001,2023_Jan_23_1608,searchDisc5,2021.2.3,59.99737091474428,
images/exp1a_trial_313_colour3_distractors1_l.png,l,1,3,1,0,,,,,0,8,8,8,,,,,,,,,,,,,,,,,,,,,,,,,,,,,,,,,,,,,,,,,,,276.9350775850471,None,2,0.2876494209631346,276.9350775850471,None,,,,,,,,,,,,,,,,None,None,None,,None,None,277.2689810449956,None,1,1,0.7232653989922255,277.2689810449956,None,277.9855883555254,None,None,None,None,,27,001,2023_Jan_23_1608,searchDisc5,2021.2.3,59.99737091474428,
images/exp2b_trial_136_colour2_distractors19_r.png,r,3,2,19,0,,,,,0,9,9,9,,,,,,,,,,,,,,,,,,,,,,,,,,,,,,,,,,,,,,,,,,,278.0022332360386,None,2,0.35455747798550874,278.0022332360386,None,,,,,,,,,,,,,,,,None,None,None,,None,None,278.40430283301976,None,3,1,0.7044535860186443,278.40430283301976,None,279.10238306854154,None,None,None,None,,27,001,2023_Jan_23_1608,searchDisc5,2021.2.3,59.99737091474428,
images/exp2b_trial_50_colour1_distractors19_l.png,l,1,1,19,0,,,,,0,10,10,10,,,,,,,,,,,,,,,,,,,,,,,,,,,,,,,,,,,,,,,,,,,279.11847789003514,None,2,0.30437070701736957,279.11847789003514,None,,,,,,,,,,,,,,,,None,None,None,,None,None,279.46890744700795,None,1,1,0.6712536819977686,279.46890744700795,None,280.13571914950154,None,None,None,None,,27,001,2023_Jan_23_1608,searchDisc5,2021.2.3,59.99737091474428,
images/exp2c_trial_51_colour1_distractors31_l.png,l,1,1,31,0,,,,,0,11,11,11,,,,,,,,,,,,,,,,,,,,,,,,,,,,,,,,,,,,,,,,,,,280.15198606601916,None,2,0.3212120290263556,280.15198606601916,None,,,,,,,,,,,,,,,,None,None,None,,None,None,280.5184981620405,None,1,1,0.5867355650407262,280.5184981620405,None,281.1023825485143,None,None,None,None,,27,001,2023_Jan_23_1608,searchDisc5,2021.2.3,59.99737091474428,
images/exp1a_trial_160_colour1_distractors1_r.png,r,3,1,1,0,,,,,0,12,12,12,,,,,,,,,,,,,,,,,,,,,,,,,,,,,,,,,,,,,,,,,,,281.11818767600926,None,2,0.4567029920290224,281.11818767600926,None,,,,,,,,,,,,,,,,None,None,None,,None,None,281.6186824940378,None,3,1,0.5541690919781104,281.6186824940378,None,282.16901723052143,None,None,None,None,,27,001,2023_Jan_23_1608,searchDisc5,2021.2.3,59.99737091474428,
images/exp2b_trial_306_colour1_distractors19_l.png,l,1,1,19,0,,,,,0,13,13,13,,,,,,,,,,,,,,,,,,,,,,,,,,,,,,,,,,,,,,,,,,,282.18543543701526,None,2,0.3879117750329897,282.18543543701526,None,,,,,,,,,,,,,,,,None,None,None,,None,None,282.61903507303214,None,1,1,0.7879500979906879,282.61903507303214,None,283.4024817195139,None,None,None,None,,27,001,2023_Jan_23_1608,searchDisc5,2021.2.3,59.99737091474428,
images/exp2a_trial_240_colour1_distractors4_l.png,l,1,1,4,0,,,,,0,14,14,14,,,,,,,,,,,,,,,,,,,,,,,,,,,,,,,,,,,,,,,,,,,283.4204724029987,None,2,0.354576512996573,283.4204724029987,None,,,,,,,,,,,,,,,,None,None,None,,None,None,283.8205490980181,None,1,1,0.5556657950510271,283.8205490980181,None,284.369153609511,None,None,None,None,,27,001,2023_Jan_23_1608,searchDisc5,2021.2.3,59.99737091474428,
images/exp2b_trial_267_colour3_distractors4_r.png,r,3,3,4,0,,,,,0,15,15,15,,,,,,,,,,,,,,,,,,,,,,,,,,,,,,,,,,,,,,,,,,,284.38530905003427,None,2,0.3376917179557495,284.38530905003427,None,,,,,,,,,,,,,,,,None,None,None,,None,None,284.7688638480031,None,3,1,0.5725862699910067,284.7688638480031,None,285.3356892205309,None,None,None,None,,27,001,2023_Jan_23_1608,searchDisc5,2021.2.3,59.99737091474428,
images/exp1a_trial_178_colour1_distractors19_l.png,l,1,1,19,0,,,,,0,16,16,16,,,,,,,,,,,,,,,,,,,,,,,,,,,,,,,,,,,,,,,,,,,285.35234270303044,None,2,0.2886465900228359,285.35234270303044,None,,,,,,,,,,,,,,,,None,None,None,,None,None,285.6877374530304,None,1,1,0.7680077230324969,285.6877374530304,None,286.45246015251615,None,None,None,None,,27,001,2023_Jan_23_1608,searchDisc5,2021.2.3,59.99737091474428,
images/exp2c_trial_306_colour1_distractors19_l.png,l,1,1,19,0,,,,,0,17,17,17,,,,,,,,,,,,,,,,,,,,,,,,,,,,,,,,,,,,,,,,,,,286.47098988102516,None,2,0.3546132689807564,286.47098988102516,None,,,,,,,,,,,,,,,,None,None,None,,None,None,286.8714110070141,None,1,1,0.7175716450437903,286.8714110070141,None,287.58579400549644,None,None,None,None,,27,001,2023_Jan_23_1608,searchDisc5,2021.2.3,59.99737091474428,
images/exp2a_trial_82_colour1_distractors19_l.png,l,1,1,19,0,,,,,0,18,18,18,,,,,,,,,,,,,,,,,,,,,,,,,,,,,,,,,,,,,,,,,,,287.6021724230377,None,2,0.3379224200034514,287.6021724230377,None,,,,,,,,,,,,,,,,None,None,None,,None,None,287.9859261790407,None,1,1,1.304117274004966,287.9859261790407,None,289.28611867951696,None,None,None,None,,27,001,2023_Jan_23_1608,searchDisc5,2021.2.3,59.99737091474428,
images/exp1a_trial_107_colour3_distractors4_r.png,r,3,3,4,0,,,,,0,19,19,19,,,,,,,,,,,,,,,,,,,,,,,,,,,,,,,,,,,,,,,,,,,289.3022788829985,None,2,0.3210393689805642,289.3022788829985,None,,,,,,,,,,,,,,,,None,None,None,,None,None,289.6692797100404,None,3,1,0.6044131980161183,289.6692797100404,None,290.26923976152904,None,None,None,None,,27,001,2023_Jan_23_1608,searchDisc5,2021.2.3,59.99737091474428,
images/exp2b_trial_58_colour3_distractors4_l.png,l,1,3,4,0,,,,,0,20,20,20,,,,,,,,,,,,,,,,,,,,,,,,,,,,,,,,,,,,,,,,,,,290.28574199200375,None,2,0.289840210985858,290.28574199200375,None,,,,,,,,,,,,,,,,None,None,None,,None,None,290.61902684601955,None,1,1,0.6171636559884064,290.61902684601955,None,291.23635059450754,None,None,None,None,,27,001,2023_Jan_23_1608,searchDisc5,2021.2.3,59.99737091474428,
images/exp2b_trial_83_colour1_distractors31_l.png,l,1,1,31,0,,,,,0,21,21,21,,,,,,,,,,,,,,,,,,,,,,,,,,,,,,,,,,,,,,,,,,,291.25416079501156,None,2,0.2708648289553821,291.25416079501156,None,,,,,,,,,,,,,,,,None,None,None,,None,None,291.5693226850126,None,1,1,0.670221866981592,291.5693226850126,None,292.23612982251217,None,None,None,None,,27,001,2023_Jan_23_1608,searchDisc5,2021.2.3,59.99737091474428,
images/exp2b_trial_10_colour3_distractors1_r.png,r,3,3,1,0,,,,,0,22,22,22,,,,,,,,,,,,,,,,,,,,,,,,,,,,,,,,,,,,,,,,,,,292.2520590390195,None,2,0.22301430598599836,292.2520590390195,None,,,,,,,,,,,,,,,,None,None,None,,None,None,292.52140865201363,None,3,1,0.5369680119911209,292.52140865201363,None,293.0527924505412,None,None,None,None,,27,001,2023_Jan_23_1608,searchDisc5,2021.2.3,59.99737091474428,
images/exp2c_trial_212_colour2_distractors1_l.png,l,1,2,1,0,,,,,0,23,23,23,,,,,,,,,,,,,,,,,,,,,,,,,,,,,,,,,,,,,,,,,,,293.0691370910499,None,2,0.27344690600875765,293.0691370910499,None,,,,,,,,,,,,,,,,None,None,None,,None,None,293.38583630201174,None,1,1,0.5706550169852562,293.38583630201174,None,293.95268794453006,None,None,None,None,,27,001,2023_Jan_23_1608,searchDisc5,2021.2.3,59.99737091474428,
images/exp2a_trial_148_colour2_distractors1_l.png,l,1,2,1,0,,,,,0,24,24,24,,,,,,,,,,,,,,,,,,,,,,,,,,,,,,,,,,,,,,,,,,,293.9690017340472,None,2,0.2710438610520214,293.9690017340472,None,,,,,,,,,,,,,,,,None,None,None,,None,None,294.28625508904224,None,1,1,0.7052152039832436,294.28625508904224,None,294.9854401525343,None,None,None,None,,27,001,2023_Jan_23_1608,searchDisc5,2021.2.3,59.99737091474428,
images/exp1a_trial_276_colour2_distractors1_l.png,l,1,2,1,0,,,,,0,25,25,25,,,,,,,,,,,,,,,,,,,,,,,,,,,,,,,,,,,,,,,,,,,295.0025541980285,None,2,0.7566198189742863,295.0025541980285,None,,,,,,,,,,,,,,,,None,None,None,,None,None,295.80286229000194,None,1,1,0.6383175610098988,295.80286229000194,None,296.43616783550243,None,None,None,None,,27,001,2023_Jan_23_1608,searchDisc5,2021.2.3,59.99737091474428,
images/exp1a_trial_17_colour1_distractors9_l.png,l,1,1,9,0,,,,,0,26,26,26,,,,,,,,,,,,,,,,,,,,,,,,,,,,,,,,,,,,,,,,,,,296.45194162405096,None,2,0.30588810303015634,296.45194162405096,None,,,,,,,,,,,,,,,,None,None,None,,None,None,296.80287098902045,None,1,1,0.819528198975604,296.80287098902045,None,297.6195003345027,None,None,None,None,,27,001,2023_Jan_23_1608,searchDisc5,2021.2.3,59.99737091474428,
images/exp2c_trial_297_colour2_distractors31_r.png,r,3,2,31,0,,,,,0,27,27,27,,,,,,,,,,,,,,,,,,,,,,,,,,,,,,,,,,,,,,,,,,,297.63738503999775,None,2,0.30476459104102105,297.63738503999775,None,,,,,,,,,,,,,,,,None,None,None,,None,None,297.98640134203015,None,3,1,0.6863695729989558,297.98640134203015,None,298.66965354450514,None,None,None,None,,27,001,2023_Jan_23_1608,searchDisc5,2021.2.3,59.99737091474428,
images/exp1a_trial_101_colour2_distractors1_r.png,r,3,2,1,0,,,,,0,28,28,28,,,,,,,,,,,,,,,,,,,,,,,,,,,,,,,,,,,,,,,,,,,298.6874696830055,None,2,0.27197556500323117,298.6874696830055,None,,,,,,,,,,,,,,,,None,None,None,,None,None,299.00267768400954,None,1,0,0.5219950299942866,299.00267768400954,None,299.51980328450446,None,None,None,None,,27,001,2023_Jan_23_1608,searchDisc5,2021.2.3,59.99737091474428,
images/exp2b_trial_45_colour3_distractors19_r.png,r,3,3,19,0,,,,,0,29,29,29,,,,,,,,,,,,,,,,,,,,,,,,,,,,,,,,,,,,,,,,,,,299.5361072579981,None,2,1.1538500009919517,299.5361072579981,None,,,,,,,,,,,,,,,,None,None,None,,None,None,300.73840200703125,None,3,1,0.6210481239832006,300.73840200703125,None,301.35320713151015,None,None,None,None,,27,001,2023_Jan_23_1608,searchDisc5,2021.2.3,59.99737091474428,
images/exp2c_trial_116_colour2_distractors1_l.png,l,1,2,1,0,,,,,0,30,30,30,,,,,,,,,,,,,,,,,,,,,,,,,,,,,,,,,,,,,,,,,,,301.36903576302575,None,2,0.5044484580284916,301.36903576302575,None,,,,,,,,,,,,,,,,None,None,None,,None,None,301.9196094510262,None,1,1,0.5894697749754414,301.9196094510262,None,302.503039683518,None,None,None,None,,27,001,2023_Jan_23_1608,searchDisc5,2021.2.3,59.99737091474428,
images/exp2c_trial_18_colour1_distractors19_l.png,l,1,1,19,0,,,,,0,31,31,31,,,,,,,,,,,,,,,,,,,,,,,,,,,,,,,,,,,,,,,,,,,302.52101884700824,None,2,0.38973274402087554,302.52101884700824,None,,,,,,,,,,,,,,,,None,None,None,,None,None,302.9550002560136,None,1,1,0.5348288480308838,302.9550002560136,None,303.48630710651634,None,None,None,None,,27,001,2023_Jan_23_1608,searchDisc5,2021.2.3,59.99737091474428,
images/exp1a_trial_28_colour3_distractors19_l.png,l,1,3,19,0,,,,,0,32,32,32,,,,,,,,,,,,,,,,,,,,,,,,,,,,,,,,,,,,,,,,,,,303.50219702604227,None,2,0.3378916720394045,303.50219702604227,None,,,,,,,,,,,,,,,,None,None,None,,None,None,303.88661547901575,None,1,1,0.5686881829751655,303.88661547901575,None,304.4531350185396,None,None,None,None,,27,001,2023_Jan_23_1608,searchDisc5,2021.2.3,59.99737091474428,
images/exp2a_trial_101_colour2_distractors1_r.png,r,3,2,1,0,,,,,0,33,33,33,,,,,,,,,,,,,,,,,,,,,,,,,,,,,,,,,,,,,,,,,,,304.469019021024,None,2,0.3378963480354287,304.469019021024,None,,,,,,,,,,,,,,,,None,None,None,,None,None,304.8527702540159,None,3,1,0.6227623160229996,304.8527702540159,None,305.4697438445408,None,None,None,None,,27,001,2023_Jan_23_1608,searchDisc5,2021.2.3,59.99737091474428,
images/exp2c_trial_301_colour3_distractors19_r.png,r,3,3,19,0,,,,,0,34,34,34,,,,,,,,,,,,,,,,,,,,,,,,,,,,,,,,,,,,,,,,,,,305.48830452002585,None,2,0.28808054502587765,305.48830452002585,None,,,,,,,,,,,,,,,,None,None,None,,None,None,305.8194843720412,None,3,1,0.6699573409860022,305.8194843720412,None,306.4864657115075,None,None,None,None,,27,001,2023_Jan_23_1608,searchDisc5,2021.2.3,59.99737091474428,
images/exp2b_trial_121_colour3_distractors1_l.png,l,1,3,1,0,,,,,0,35,35,35,,,,,,,,,,,,,,,,,,,,,,,,,,,,,,,,,,,,,,,,,,,306.5021595550352,None,2,0.3214341010316275,306.5021595550352,None,,,,,,,,,,,,,,,,None,None,None,,None,None,306.8695541979978,None,1,1,0.6581511379918084,306.8695541979978,None,307.51993548452157,None,None,None,None,,27,001,2023_Jan_23_1608,searchDisc5,2021.2.3,59.99737091474428,
images/exp2c_trial_12_colour3_distractors9_r.png,r,3,3,9,0,,,,,0,36,36,36,,,,,,,,,,,,,,,,,,,,,,,,,,,,,,,,,,,,,,,,,,,307.5380987370154,None,2,0.2692250740365125,307.5380987370154,None,,,,,,,,,,,,,,,,None,None,None,,None,None,307.85293574404204,None,3,1,0.9885287079960108,307.85293574404204,None,308.83666631050875,None,None,None,None,,27,001,2023_Jan_23_1608,searchDisc5,2021.2.3,59.99737091474428,
images/exp2b_trial_180_colour2_distractors1_l.png,l,1,2,1,0,,,,,0,37,37,37,,,,,,,,,,,,,,,,,,,,,,,,,,,,,,,,,,,,,,,,,,,308.8548215460032,None,2,0.3226222429657355,308.8548215460032,None,,,,,,,,,,,,,,,,None,None,None,,None,None,309.2216620030231,None,1,1,0.8543775019934401,309.2216620030231,None,310.0697970105219,None,None,None,None,,27,001,2023_Jan_23_1608,searchDisc5,2021.2.3,59.99737091474428,
images/exp1a_trial_208_colour1_distractors4_l.png,l,1,1,4,0,,,,,0,38,38,38,,,,,,,,,,,,,,,,,,,,,,,,,,,,,,,,,,,,,,,,,,,310.0878425540286,None,2,0.3391985039925203,310.0878425540286,None,,,,,,,,,,,,,,,,None,None,None,,None,None,310.4718975900323,None,1,1,0.7369463680079207,310.4718975900323,None,311.2033518625074,None,None,None,None,,27,001,2023_Jan_23_1608,searchDisc5,2021.2.3,59.99737091474428,
images/exp2a_trial_149_colour2_distractors4_l.png,l,1,2,4,0,,,,,0,39,39,39,,,,,,,,,,,,,,,,,,,,,,,,,,,,,,,,,,,,,,,,,,,311.2195399320335,None,2,0.3880118709639646,311.2195399320335,None,,,,,,,,,,,,,,,,None,None,None,,None,None,311.65559181402205,None,1,1,0.6041185929789208,311.65559181402205,None,312.2534153765417,None,None,None,None,,27,001,2023_Jan_23_1608,searchDisc5,2021.2.3,59.99737091474428,
images/exp2b_trial_3_colour1_distractors19_r.png,r,3,1,19,0,,,,,0,40,40,40,,,,,,,,,,,,,,,,,,,,,,,,,,,,,,,,,,,,,,,,,,,312.2716435830225,None,2,0.5044528830330819,312.2716435830225,None,,,,,,,,,,,,,,,,None,None,None,,None,None,312.8217492820113,None,3,1,0.6542177349911071,312.8217492820113,None,313.46964389849455,None,None,None,None,,27,001,2023_Jan_23_1608,searchDisc5,2021.2.3,59.99737091474428,
images/exp2b_trial_192_colour1_distractors1_r.png,r,3,1,1,0,,,,,0,41,41,41,,,,,,,,,,,,,,,,,,,,,,,,,,,,,,,,,,,,,,,,,,,313.4860705860192,None,2,0.30345424998085946,313.4860705860192,None,,,,,,,,,,,,,,,,None,None,None,,None,None,313.8365538220387,None,3,1,0.9398369480040856,313.8365538220387,None,314.7694093905273,None,None,None,None,,27,001,2023_Jan_23_1608,searchDisc5,2021.2.3,59.99737091474428,
images/exp2a_trial_56_colour2_distractors31_l.png,l,1,2,31,0,,,,,0,42,42,42,,,,,,,,,,,,,,,,,,,,,,,,,,,,,,,,,,,,,,,,,,,314.7863592010108,None,2,0.304482153034769,314.7863592010108,None,,,,,,,,,,,,,,,,None,None,None,,None,None,315.1364615460043,None,1,1,0.6615293479990214,315.1364615460043,None,315.803374968539,None,None,None,None,,27,001,2023_Jan_23_1608,searchDisc5,2021.2.3,59.99737091474428,
images/exp2c_trial_280_colour2_distractors31_l.png,l,1,2,31,0,,,,,0,43,43,43,,,,,,,,,,,,,,,,,,,,,,,,,,,,,,,,,,,,,,,,,,,315.8195529100485,None,2,0.33760314795654267,315.8195529100485,None,,,,,,,,,,,,,,,,None,None,None,,None,None,316.2030328580295,None,1,1,0.5199544370407239,316.2030328580295,None,316.72012871650514,None,None,None,None,,27,001,2023_Jan_23_1608,searchDisc5,2021.2.3,59.99737091474428,
images/exp2a_trial_276_colour2_distractors1_l.png,l,1,2,1,0,,,,,0,44,44,44,,,,,,,,,,,,,,,,,,,,,,,,,,,,,,,,,,,,,,,,,,,316.7364221130265,None,2,0.3212248599738814,316.7364221130265,None,,,,,,,,,,,,,,,,None,None,None,,None,None,317.10340556304436,None,1,1,0.62253159401007,317.10340556304436,None,317.7202273315168,None,None,None,None,,27,001,2023_Jan_23_1608,searchDisc5,2021.2.3,59.99737091474428,
images/exp2a_trial_102_colour2_distractors4_r.png,r,3,2,4,0,,,,,0,45,45,45,,,,,,,,,,,,,,,,,,,,,,,,,,,,,,,,,,,,,,,,,,,317.73647500999505,None,2,0.321205950982403,317.73647500999505,None,,,,,,,,,,,,,,,,None,None,None,,None,None,318.1035212360439,None,3,1,0.6370148659916595,318.1035212360439,None,318.7367465405376,None,None,None,None,,27,001,2023_Jan_23_1608,searchDisc5,2021.2.3,59.99737091474428,
images/exp2b_trial_84_colour2_distractors1_l.png,l,1,2,1,0,,,,,0,46,46,46,,,,,,,,,,,,,,,,,,,,,,,,,,,,,,,,,,,,,,,,,,,318.752750019019,None,2,0.3378402230446227,318.752750019019,None,,,,,,,,,,,,,,,,None,None,None,,None,None,319.13647479901556,None,1,1,0.6228004189906642,319.13647479901556,None,319.75348216954154,None,None,None,None,,27,001,2023_Jan_23_1608,searchDisc5,2021.2.3,59.99737091474428,
images/exp2a_trial_139_colour3_distractors4_r.png,r,3,3,4,0,,,,,0,47,47,47,,,,,,,,,,,,,,,,,,,,,,,,,,,,,,,,,,,,,,,,,,,319.7693721310352,None,2,0.3879275930230506,319.7693721310352,None,,,,,,,,,,,,,,,,None,None,None,,None,None,320.20497062802315,None,3,1,0.5054365729447454,320.20497062802315,None,320.703488337528,None,None,None,None,,27,001,2023_Jan_23_1608,searchDisc5,2021.2.3,59.99737091474428,
images/exp2a_trial_282_colour3_distractors4_l.png,l,1,3,4,0,,,,,0,48,48,48,,,,,,,,,,,,,,,,,,,,,,,,,,,,,,,,,,,,,,,,,,,320.7193283670349,None,2,0.3379420459968969,320.7193283670349,None,,,,,,,,,,,,,,,,None,None,None,,None,None,321.103376314044,None,1,1,0.6055499810026959,321.103376314044,None,321.7035416195402,None,None,None,None,,27,001,2023_Jan_23_1608,searchDisc5,2021.2.3,59.99737091474428,
images/exp2c_trial_31_colour0_distractors0_l.png,l,1,0,0,0,,,,,0,49,49,49,,,,,,,,,,,,,,,,,,,,,,,,,,,,,,,,,,,,,,,,,,,321.7192389560514,None,2,0.3234372070292011,321.7192389560514,None,,,,,,,,,,,,,,,,None,None,None,,None,None,322.0868220819975,None,1,1,0.6378833909984678,322.0868220819975,None,322.72010821250734,None,None,None,None,,27,001,2023_Jan_23_1608,searchDisc5,2021.2.3,59.99737091474428,
images/exp1a_trial_311_colour2_distractors19_l.png,l,1,2,19,0,,,,,0,50,50,50,,,,,,,,,,,,,,,,,,,,,,,,,,,,,,,,,,,,,,,,,,,322.7386532500386,None,2,0.3379279070068151,322.7386532500386,None,,,,,,,,,,,,,,,,None,None,None,,None,None,323.1204971820116,None,1,1,0.5516122929984704,323.1204971820116,None,323.6701212675078,None,None,None,None,,27,001,2023_Jan_23_1608,searchDisc5,2021.2.3,59.99737091474428,
images/exp2c_trial_84_colour2_distractors1_l.png,l,1,2,1,0,,,,,0,51,51,51,,,,,,,,,,,,,,,,,,,,,,,,,,,,,,,,,,,,,,,,,,,323.68646485503996,None,2,0.3209487369749695,323.68646485503996,None,,,,,,,,,,,,,,,,None,None,None,,None,None,324.0532693740097,None,1,1,0.5230558789917268,324.0532693740097,None,324.57019080350875,None,None,None,None,,27,001,2023_Jan_23_1608,searchDisc5,2021.2.3,59.99737091474428,
images/exp2c_trial_293_colour2_distractors1_r.png,r,3,2,1,0,,,,,0,52,52,52,,,,,,,,,,,,,,,,,,,,,,,,,,,,,,,,,,,,,,,,,,,324.5862442390062,None,2,0.35468126996420324,324.5862442390062,None,,,,,,,,,,,,,,,,None,None,None,,None,None,324.98883190599736,None,3,1,0.5391618729918264,324.98883190599736,None,325.520216846501,None,None,None,None,,27,001,2023_Jan_23_1608,searchDisc5,2021.2.3,59.99737091474428,
images/exp2b_trial_99_colour1_distractors19_r.png,r,3,1,19,0,,,,,0,53,53,53,,,,,,,,,,,,,,,,,,,,,,,,,,,,,,,,,,,,,,,,,,,325.5382148990175,None,2,0.3214283349807374,325.5382148990175,None,,,,,,,,,,,,,,,,None,None,None,,None,None,325.9036488380516,None,3,1,0.6203444399870932,325.9036488380516,None,326.52026201552945,None,None,None,None,,27,001,2023_Jan_23_1608,searchDisc5,2021.2.3,59.99737091474428,
images/exp2b_trial_296_colour2_distractors19_r.png,r,3,2,19,0,,,,,0,54,54,54,,,,,,,,,,,,,,,,,,,,,,,,,,,,,,,,,,,,,,,,,,,326.5361311089946,None,2,0.3381594819948077,326.5361311089946,None,,,,,,,,,,,,,,,,None,None,None,,None,None,326.92054004903184,None,3,1,0.6021726279868744,326.92054004903184,None,327.51979174454465,None,None,None,None,,27,001,2023_Jan_23_1608,searchDisc5,2021.2.3,59.99737091474428,
images/exp2c_trial_136_colour2_distractors19_r.png,r,3,2,19,0,,,,,0,55,55,55,,,,,,,,,,,,,,,,,,,,,,,,,,,,,,,,,,,,,,,,,,,327.5362605940318,None,2,0.2875682140002027,327.5362605940318,None,,,,,,,,,,,,,,,,None,None,None,,None,None,327.8702803440392,None,3,1,1.1041226029628888,327.8702803440392,None,328.97049542051974,None,None,None,None,,27,001,2023_Jan_23_1608,searchDisc5,2021.2.3,59.99737091474428,
images/exp1a_trial_67_colour1_distractors19_r.png,r,3,1,19,0,,,,,0,56,56,56,,,,,,,,,,,,,,,,,,,,,,,,,,,,,,,,,,,,,,,,,,,328.98645769100403,None,2,0.337787345983088,328.98645769100403,None,,,,,,,,,,,,,,,,None,None,None,,None,None,329.3705214600195,None,3,1,0.6520348059711978,329.3705214600195,None,330.02053050849355,None,None,None,None,,27,001,2023_Jan_23_1608,searchDisc5,2021.2.3,59.99737091474428,
images/exp1a_trial_318_colour0_distractors0_r.png,r,3,0,0,0,,,,,0,57,57,57,,,,,,,,,,,,,,,,,,,,,,,,,,,,,,,,,,,,,,,,,,,330.03683580603683,None,2,0.30455603898735717,330.03683580603683,None,,,,,,,,,,,,,,,,None,None,None,,None,None,330.38691114704125,None,3,1,0.5063178190030158,330.38691114704125,None,330.8872018955415,None,None,None,None,,27,001,2023_Jan_23_1608,searchDisc5,2021.2.3,59.99737091474428,
images/exp2c_trial_251_colour3_distractors9_l.png,l,1,3,9,0,,,,,0,58,58,58,,,,,,,,,,,,,,,,,,,,,,,,,,,,,,,,,,,,,,,,,,,330.9030100350501,None,2,0.3713516590069048,330.9030100350501,None,,,,,,,,,,,,,,,,None,None,None,,None,None,331.3218940109946,None,1,1,0.7040823489660397,331.3218940109946,None,332.0200631865417,None,None,None,None,,27,001,2023_Jan_23_1608,searchDisc5,2021.2.3,59.99737091474428,
images/exp2c_trial_95_colour0_distractors0_l.png,l,1,0,0,0,,,,,0,59,59,59,,,,,,,,,,,,,,,,,,,,,,,,,,,,,,,,,,,,,,,,,,,332.03697054402437,None,2,0.3382868039770983,332.03697054402437,None,,,,,,,,,,,,,,,,None,None,None,,None,None,332.420264592045,None,1,1,0.6063032760284841,332.420264592045,None,333.0206028745277,None,None,None,None,,27,001,2023_Jan_23_1608,searchDisc5,2021.2.3,59.99737091474428,
images/exp2a_trial_118_colour2_distractors9_l.png,l,1,2,9,0,,,,,0,60,60,60,,,,,,,,,,,,,,,,,,,,,,,,,,,,,,,,,,,,,,,,,,,333.0367306760163,None,2,0.5046107420348562,333.0367306760163,None,,,,,,,,,,,,,,,,None,None,None,,None,None,333.5886727410252,None,1,1,0.6009009519475512,333.5886727410252,None,334.1874092324986,None,None,None,None,,27,001,2023_Jan_23_1608,searchDisc5,2021.2.3,59.99737091474428,
images/exp1a_trial_230_colour2_distractors4_r.png,r,3,2,4,0,,,,,0,61,61,61,,,,,,,,,,,,,,,,,,,,,,,,,,,,,,,,,,,,,,,,,,,334.2056371140061,None,2,0.47103142901323736,334.2056371140061,None,,,,,,,,,,,,,,,,None,None,None,,None,None,334.71978114004014,None,3,1,0.9736675919848494,334.71978114004014,None,335.6873299545376,None,None,None,None,,27,001,2023_Jan_23_1608,searchDisc5,2021.2.3,59.99737091474428,
images/exp2b_trial_221_colour3_distractors31_l.png,l,1,3,31,0,,,,,0,62,62,62,,,,,,,,,,,,,,,,,,,,,,,,,,,,,,,,,,,,,,,,,,,335.703626845032,None,2,0.3191272119875066,335.703626845032,None,,,,,,,,,,,,,,,,None,None,None,,None,None,336.0706265090266,None,1,1,1.2863240499864332,336.0706265090266,None,337.3540128375287,None,None,None,None,,27,001,2023_Jan_23_1608,searchDisc5,2021.2.3,59.99737091474428,
images/exp2a_trial_199_colour2_distractors9_r.png,r,3,2,9,0,,,,,0,63,63,63,,,,,,,,,,,,,,,,,,,,,,,,,,,,,,,,,,,,,,,,,,,337.3703114990494,None,2,0.3394334749900736,337.3703114990494,None,,,,,,,,,,,,,,,,None,None,None,,None,None,337.753906922997,None,3,1,0.6500137529801577,337.753906922997,None,338.4041902305442,None,None,None,None,,27,001,2023_Jan_23_1608,searchDisc5,2021.2.3,59.99737091474428,
images/exp2a_trial_298_colour3_distractors1_r.png,r,3,3,1,0,,,,,0,64,64,64,,,,,,,,,,,,,,,,,,,,,,,,,,,,,,,,,,,,,,,,,,,338.41988785902504,None,2,0.32096880598692223,338.41988785902504,None,,,,,,,,,,,,,,,,None,None,None,,None,None,338.7873734169989,None,3,1,0.5740184570313431,338.7873734169989,None,339.3540986125125,None,None,None,None,,27,001,2023_Jan_23_1608,searchDisc5,2021.2.3,59.99737091474428,
images/exp2b_trial_187_colour3_distractors9_l.png,l,1,3,9,0,,,,,0,65,65,65,,,,,,,,,,,,,,,,,,,,,,,,,,,,,,,,,,,,,,,,,,,339.3717434559949,None,2,0.45306283002719283,339.3717434559949,None,,,,,,,,,,,,,,,,None,None,None,,None,None,339.8707487610518,None,1,1,0.5384217129903845,339.8707487610518,None,340.4040613875375,None,None,None,None,,27,001,2023_Jan_23_1608,searchDisc5,2021.2.3,59.99737091474428,
images/exp2c_trial_211_colour1_distractors31_l.png,l,1,1,31,0,,,,,0,66,66,66,,,,,,,,,,,,,,,,,,,,,,,,,,,,,,,,,,,,,,,,,,,340.4203730840236,None,2,0.30434049700852484,340.4203730840236,None,,,,,,,,,,,,,,,,None,None,None,,None,None,340.77058722201036,None,1,1,0.6186828279751353,340.77058722201036,None,341.38725241950016,None,None,None,None,,27,001,2023_Jan_23_1608,searchDisc5,2021.2.3,59.99737091474428,
images/exp2c_trial_207_colour1_distractors1_l.png,l,1,1,1,0,,,,,0,67,67,67,,,,,,,,,,,,,,,,,,,,,,,,,,,,,,,,,,,,,,,,,,,341.40375848603435,None,2,0.4232421510387212,341.40375848603435,None,,,,,,,,,,,,,,,,None,None,None,,None,None,341.8727555430378,None,1,1,0.5379682560451329,341.8727555430378,None,342.4040597425308,None,None,None,None,,27,001,2023_Jan_23_1608,searchDisc5,2021.2.3,59.99737091474428,
images/exp2b_trial_258_colour1_distractors9_r.png,r,3,1,9,0,,,,,0,68,68,68,,,,,,,,,,,,,,,,,,,,,,,,,,,,,,,,,,,,,,,,,,,342.41990745603107,None,2,0.4039928939891979,342.41990745603107,None,,,,,,,,,,,,,,,,None,None,None,,None,None,342.8728245450184,None,3,1,1.9368983900058083,342.8728245450184,None,344.80339318951593,None,None,None,None,,27,001,2023_Jan_23_1608,searchDisc5,2021.2.3,59.99737091474428,
images/exp2a_trial_3_colour1_distractors19_r.png,r,3,1,19,0,,,,,0,69,69,69,,,,,,,,,,,,,,,,,,,,,,,,,,,,,,,,,,,,,,,,,,,344.8223389760242,None,2,0.4721657039481215,344.8223389760242,None,,,,,,,,,,,,,,,,None,None,None,,None,None,345.3372759280028,None,3,1,0.7534440889721736,345.3372759280028,None,346.08765377553647,None,None,None,None,,27,001,2023_Jan_23_1608,searchDisc5,2021.2.3,59.99737091474428,
images/exp2b_trial_247_colour2_distractors19_l.png,l,1,2,19,0,,,,,0,70,70,70,,,,,,,,,,,,,,,,,,,,,,,,,,,,,,,,,,,,,,,,,,,346.1056493720389,None,2,0.6545725599862635,346.1056493720389,None,,,,,,,,,,,,,,,,None,None,None,,None,None,346.80417850404046,None,1,1,0.9212397449882701,346.80417850404046,None,347.7209654115257,None,None,None,None,,27,001,2023_Jan_23_1608,searchDisc5,2021.2.3,59.99737091474428,
images/exp1a_trial_177_colour1_distractors9_l.png,l,1,1,9,0,,,,,0,71,71,71,,,,,,,,,,,,,,,,,,,,,,,,,,,,,,,,,,,,,,,,,,,347.73731434199726,None,2,0.43986201798543334,347.73731434199726,None,,,,,,,,,,,,,,,,None,None,None,,None,None,348.2228193980409,None,1,1,2.5680266530252993,348.2228193980409,None,350.7876465955167,None,None,None,None,,27,001,2023_Jan_23_1608,searchDisc5,2021.2.3,59.99737091474428,
images/exp2a_trial_246_colour2_distractors9_l.png,l,1,2,9,0,,,,,0,72,72,72,,,,,,,,,,,,,,,,,,,,,,,,,,,,,,,,,,,,,,,,,,,350.8041033259942,None,2,0.3214141000062227,350.8041033259942,None,,,,,,,,,,,,,,,,None,None,None,,None,None,351.17081342899473,None,1,1,0.5341131840250455,351.17081342899473,None,351.70386736753863,None,None,None,None,,27,001,2023_Jan_23_1608,searchDisc5,2021.2.3,59.99737091474428,
images/exp2a_trial_59_colour3_distractors9_l.png,l,1,3,9,0,,,,,0,73,73,73,,,,,,,,,,,,,,,,,,,,,,,,,,,,,,,,,,,,,,,,,,,351.72078747703927,None,2,0.32157807901967317,351.72078747703927,None,,,,,,,,,,,,,,,,None,None,None,,None,None,352.08894900704036,None,1,1,0.5387874159496278,352.08894900704036,None,352.62106989453315,None,None,None,None,,27,001,2023_Jan_23_1608,searchDisc5,2021.2.3,59.99737091474428,
images/exp2a_trial_163_colour1_distractors19_r.png,r,3,1,19,0,,,,,0,74,74,74,,,,,,,,,,,,,,,,,,,,,,,,,,,,,,,,,,,,,,,,,,,352.6375259400229,None,2,0.3360864970018156,352.6375259400229,None,,,,,,,,,,,,,,,,None,None,None,,None,None,353.02087012602715,None,3,1,0.6367353240493685,353.02087012602715,None,353.6537606095197,None,None,None,None,,27,001,2023_Jan_23_1608,searchDisc5,2021.2.3,59.99737091474428,
images/exp1a_trial_102_colour2_distractors4_r.png,r,3,2,4,0,,,,,0,75,75,75,,,,,,,,,,,,,,,,,,,,,,,,,,,,,,,,,,,,,,,,,,,353.67293523903936,None,2,0.3064670219901018,353.67293523903936,None,,,,,,,,,,,,,,,,None,None,None,,None,None,354.0205175540177,None,3,1,0.5367943290038966,354.0205175540177,None,354.5544441005448,None,None,None,None,,27,001,2023_Jan_23_1608,searchDisc5,2021.2.3,59.99737091474428,
images/exp2b_trial_233_colour2_distractors31_r.png,r,3,2,31,0,,,,,0,76,76,76,,,,,,,,,,,,,,,,,,,,,,,,,,,,,,,,,,,,,,,,,,,354.5705081070191,None,2,0.2890510360011831,354.5705081070191,None,,,,,,,,,,,,,,,,None,None,None,,None,None,354.905701272015,None,3,1,0.6005091929691844,354.905701272015,None,355.50441781752744,None,None,None,None,,27,001,2023_Jan_23_1608,searchDisc5,2021.2.3,59.99737091474428,
images/exp2a_trial_305_colour1_distractors9_l.png,l,1,1,9,0,,,,,0,77,77,77,,,,,,,,,,,,,,,,,,,,,,,,,,,,,,,,,,,,,,,,,,,355.52250786300283,None,2,0.3549054919858463,355.52250786300283,None,,,,,,,,,,,,,,,,None,None,None,,None,None,355.92280005902285,None,1,1,0.6061216749949381,355.92280005902285,None,356.52113373753383,None,None,None,None,,27,001,2023_Jan_23_1608,searchDisc5,2021.2.3,59.99737091474428,
images/exp1a_trial_41_colour2_distractors31_r.png,r,3,2,31,0,,,,,0,78,78,78,,,,,,,,,,,,,,,,,,,,,,,,,,,,,,,,,,,,,,,,,,,356.5389721590327,None,2,0.3379390280460939,356.5389721590327,None,,,,,,,,,,,,,,,,None,None,None,,None,None,356.92094411700964,None,3,1,0.5821030479855835,356.92094411700964,None,357.5041432725382,None,None,None,None,,27,001,2023_Jan_23_1608,searchDisc5,2021.2.3,59.99737091474428,
images/exp2a_trial_295_colour2_distractors9_r.png,r,3,2,9,0,,,,,0,79,79,79,,,,,,,,,,,,,,,,,,,,,,,,,,,,,,,,,,,,,,,,,,,357.5232380810194,None,2,0.3555599630344659,357.5232380810194,None,,,,,,,,,,,,,,,,None,None,None,,None,None,357.9231141190394,None,3,1,0.5846945290104486,357.9231141190394,None,358.5046419334947,None,None,None,None,,27,001,2023_Jan_23_1608,searchDisc5,2021.2.3,59.99737091474428,
images/exp2a_trial_191_colour0_distractors0_l.png,l,1,0,0,0,,,,,0,80,80,80,,,,,,,,,,,,,,,,,,,,,,,,,,,,,,,,,,,,,,,,,,,358.52070823899703,None,2,0.3042918189894408,358.52070823899703,None,,,,,,,,,,,,,,,,None,None,None,,None,None,358.87082306301454,None,1,1,0.5729301199899055,358.87082306301454,None,359.4377969644964,None,None,None,None,,27,001,2023_Jan_23_1608,searchDisc5,2021.2.3,59.99737091474428,
images/exp2b_trial_200_colour2_distractors19_r.png,r,3,2,19,0,,,,,0,81,81,81,,,,,,,,,,,,,,,,,,,,,,,,,,,,,,,,,,,,,,,,,,,359.4543141180184,None,2,0.4736287639825605,359.4543141180184,None,,,,,,,,,,,,,,,,None,None,None,,None,None,359.9707394519937,None,3,1,0.8848881279700436,359.9707394519937,None,360.85465544352775,None,None,None,None,,27,001,2023_Jan_23_1608,searchDisc5,2021.2.3,59.99737091474428,
images/exp2b_trial_34_colour1_distractors9_r.png,r,3,1,9,0,,,,,0,82,82,82,,,,,,,,,,,,,,,,,,,,,,,,,,,,,,,,,,,,,,,,,,,360.8710225580144,None,2,0.43797065800754353,360.8710225580144,None,,,,,,,,,,,,,,,,None,None,None,,None,None,361.35656622902025,None,3,1,0.604825037997216,361.35656622902025,None,361.95478473552504,None,None,None,None,,27,001,2023_Jan_23_1608,searchDisc5,2021.2.3,59.99737091474428,
images/exp2a_trial_45_colour3_distractors19_r.png,r,3,3,19,0,,,,,0,83,83,83,,,,,,,,,,,,,,,,,,,,,,,,,,,,,,,,,,,,,,,,,,,361.9730687030242,None,2,0.3378835649928078,361.9730687030242,None,,,,,,,,,,,,,,,,None,None,None,,None,None,362.3566865270259,None,3,1,0.5032426089746878,362.3566865270259,None,362.854760881525,None,None,None,None,,27,001,2023_Jan_23_1608,searchDisc5,2021.2.3,59.99737091474428,
images/exp1a_trial_309_colour2_distractors4_l.png,l,1,2,4,0,,,,,0,84,84,84,,,,,,,,,,,,,,,,,,,,,,,,,,,,,,,,,,,,,,,,,,,362.8705200930126,None,2,0.33758815802866593,362.8705200930126,None,,,,,,,,,,,,,,,,None,None,None,,None,None,363.2544377320446,None,1,1,0.6051180019858293,363.2544377320446,None,363.8546609215089,None,None,None,None,,27,001,2023_Jan_23_1608,searchDisc5,2021.2.3,59.99737091474428,
images/exp2b_trial_2_colour1_distractors9_r.png,r,3,1,9,0,,,,,0,85,85,85,,,,,,,,,,,,,,,,,,,,,,,,,,,,,,,,,,,,,,,,,,,363.87055999203585,None,2,0.30467497202334926,363.87055999203585,None,,,,,,,,,,,,,,,,None,None,None,,None,None,364.2213953680475,None,3,1,0.7379130350309424,364.2213953680475,None,364.95457535651514,None,None,None,None,,27,001,2023_Jan_23_1608,searchDisc5,2021.2.3,59.99737091474428,
images/exp2c_trial_228_colour1_distractors31_r.png,r,3,1,31,0,,,,,0,86,86,86,,,,,,,,,,,,,,,,,,,,,,,,,,,,,,,,,,,,,,,,,,,364.9706455580308,None,2,0.27351224003359675,364.9706455580308,None,,,,,,,,,,,,,,,,None,None,None,,None,None,365.28791923000244,None,3,1,0.48349229397717863,365.28791923000244,None,365.7711497765384,None,None,None,None,,27,001,2023_Jan_23_1608,searchDisc5,2021.2.3,59.99737091474428,
images/exp1a_trial_134_colour2_distractors4_r.png,r,3,2,4,0,,,,,0,87,87,87,,,,,,,,,,,,,,,,,,,,,,,,,,,,,,,,,,,,,,,,,,,365.78782528301235,None,2,0.25699974002782255,365.78782528301235,None,,,,,,,,,,,,,,,,None,None,None,,None,None,366.088271472021,None,3,1,0.5695785639691167,366.088271472021,None,366.6547548915376,None,None,None,None,,27,001,2023_Jan_23_1608,searchDisc5,2021.2.3,59.99737091474428,
images/exp1a_trial_136_colour2_distractors19_r.png,r,3,2,19,0,,,,,0,88,88,88,,,,,,,,,,,,,,,,,,,,,,,,,,,,,,,,,,,,,,,,,,,366.6711238429998,None,2,0.3230295390239917,366.6711238429998,None,,,,,,,,,,,,,,,,None,None,None,,None,None,367.0380867900094,None,3,1,0.5514151920215227,367.0380867900094,None,367.58813853050816,None,None,None,None,,27,001,2023_Jan_23_1608,searchDisc5,2021.2.3,59.99737091474428,
images/exp2a_trial_142_colour3_distractors31_r.png,r,3,3,31,0,,,,,0,89,89,89,,,,,,,,,,,,,,,,,,,,,,,,,,,,,,,,,,,,,,,,,,,367.60392805503216,None,2,0.3047289479873143,367.60392805503216,None,,,,,,,,,,,,,,,,None,None,None,,None,None,367.9561256050365,None,3,1,0.5659279170213267,367.9561256050365,None,368.5205771034933,None,None,None,None,,27,001,2023_Jan_23_1608,searchDisc5,2021.2.3,59.99737091474428,
images/exp2b_trial_15_colour1_distractors1_l.png,l,1,1,1,0,,,,,0,90,90,90,,,,,,,,,,,,,,,,,,,,,,,,,,,,,,,,,,,,,,,,,,,368.53787472401746,None,2,0.30687557702185586,368.53787472401746,None,,,,,,,,,,,,,,,,None,None,None,,None,None,368.88814892905066,None,1,1,0.5548454490490258,368.88814892905066,None,369.438113184541,None,None,None,None,,27,001,2023_Jan_23_1608,searchDisc5,2021.2.3,59.99737091474428,
images/exp1a_trial_219_colour3_distractors9_l.png,l,1,3,9,0,,,,,0,91,91,91,,,,,,,,,,,,,,,,,,,,,,,,,,,,,,,,,,,,,,,,,,,369.4566155259963,None,2,0.33810425200499594,369.4566155259963,None,,,,,,,,,,,,,,,,None,None,None,,None,None,369.83817960100714,None,1,1,0.5729230249999091,369.83817960100714,None,370.40489191749367,None,None,None,None,,27,001,2023_Jan_23_1608,searchDisc5,2021.2.3,59.99737091474428,
images/exp1a_trial_277_colour2_distractors4_l.png,l,1,2,4,0,,,,,0,92,92,92,,,,,,,,,,,,,,,,,,,,,,,,,,,,,,,,,,,,,,,,,,,370.42101763299434,None,2,0.32006067503243685,370.42101763299434,None,,,,,,,,,,,,,,,,None,None,None,,None,None,370.78825510904426,None,1,1,0.655571624985896,370.78825510904426,None,371.4382316185045,None,None,None,None,,27,001,2023_Jan_23_1608,searchDisc5,2021.2.3,59.99737091474428,
images/exp2a_trial_183_colour2_distractors19_l.png,l,1,2,19,0,,,,,0,93,93,93,,,,,,,,,,,,,,,,,,,,,,,,,,,,,,,,,,,,,,,,,,,371.4544299050467,None,2,0.3392207199940458,371.4544299050467,None,,,,,,,,,,,,,,,,None,None,None,,None,None,371.8379036700353,None,1,1,0.6968063120148145,371.8379036700353,None,372.5381445785286,None,None,None,None,,27,001,2023_Jan_23_1608,searchDisc5,2021.2.3,59.99737091474428,
images/exp2a_trial_4_colour1_distractors31_r.png,r,3,1,31,0,,,,,0,94,94,94,,,,,,,,,,,,,,,,,,,,,,,,,,,,,,,,,,,,,,,,,,,372.55450065102195,None,2,0.33823944703908637,372.55450065102195,None,,,,,,,,,,,,,,,,None,None,None,,None,None,372.9382293760427,None,3,1,0.6017094150302,372.9382293760427,None,373.53818901350024,None,None,None,None,,27,001,2023_Jan_23_1608,searchDisc5,2021.2.3,59.99737091474428,
images/exp2a_trial_287_colour0_distractors0_l.png,l,1,0,0,0,,,,,0,95,95,95,,,,,,,,,,,,,,,,,,,,,,,,,,,,,,,,,,,,,,,,,,,373.5560492420336,None,2,0.30675370403332636,373.5560492420336,None,,,,,,,,,,,,,,,,None,None,None,,None,None,373.9045636469964,None,1,1,0.5874413810088299,373.9045636469964,None,374.4882130475133,None,None,None,None,,27,001,2023_Jan_23_1608,searchDisc5,2021.2.3,59.99737091474428,
images/exp2a_trial_157_colour3_distractors31_l.png,l,1,3,31,0,,,,,0,96,96,96,,,,,,,,,,,,,,,,,,,,,,,,,,,,,,,,,,,,,,,,,,,374.504001918016,None,2,0.3379734849440865,374.504001918016,None,,,,,,,,,,,,,,,,None,None,None,,None,None,374.888192479033,None,1,1,0.5698374410276301,374.888192479033,None,375.45503581153463,None,None,None,None,,27,001,2023_Jan_23_1608,searchDisc5,2021.2.3,59.99737091474428,
images/exp2b_trial_246_colour2_distractors9_l.png,l,1,2,9,0,,,,,0,97,97,97,,,,,,,,,,,,,,,,,,,,,,,,,,,,,,,,,,,,,,,,,,,375.4707704480388,None,2,0.2880621660151519,375.4707704480388,None,,,,,,,,,,,,,,,,None,None,None,,None,None,375.8045924390317,None,1,1,0.5207186000188813,375.8045924390317,None,376.321627858514,None,None,None,None,,27,001,2023_Jan_23_1608,searchDisc5,2021.2.3,59.99737091474428,
images/exp2c_trial_60_colour3_distractors19_l.png,l,1,3,19,0,,,,,0,98,98,98,,,,,,,,,,,,,,,,,,,,,,,,,,,,,,,,,,,,,,,,,,,376.3375953420182,None,2,0.30462819401873276,376.3375953420182,None,,,,,,,,,,,,,,,,None,None,None,,None,None,376.6882564170519,None,1,1,0.6871793700265698,376.6882564170519,None,377.37160375150853,None,None,None,None,,27,001,2023_Jan_23_1608,searchDisc5,2021.2.3,59.99737091474428,
images/exp1a_trial_13_colour3_distractors19_r.png,r,3,3,19,0,,,,,0,99,99,99,,,,,,,,,,,,,,,,,,,,,,,,,,,,,,,,,,,,,,,,,,,377.388008627051,None,2,0.3065774599672295,377.388008627051,None,,,,,,,,,,,,,,,,None,None,None,,None,None,377.73846424004296,None,1,0,0.4323019830044359,377.73846424004296,None,378.17170260952554,None,None,None,None,,27,001,2023_Jan_23_1608,searchDisc5,2021.2.3,59.99737091474428,
images/exp2a_trial_277_colour2_distractors4_l.png,l,1,2,4,0,,,,,0,100,100,100,,,,,,,,,,,,,,,,,,,,,,,,,,,,,,,,,,,,,,,,,,,378.1876908420236,None,2,0.5046633210149594,378.1876908420236,None,,,,,,,,,,,,,,,,None,None,None,,None,None,378.73839075904107,None,1,1,1.054244450002443,378.73839075904107,None,379.7883693815209,None,None,None,None,,27,001,2023_Jan_23_1608,searchDisc5,2021.2.3,59.99737091474428,
images/exp2a_trial_229_colour2_distractors1_r.png,r,3,2,1,0,,,,,0,101,101,101,,,,,,,,,,,,,,,,,,,,,,,,,,,,,,,,,,,,,,,,,,,379.80691922601545,None,2,0.2878293819958344,379.80691922601545,None,,,,,,,,,,,,,,,,None,None,None,,None,None,380.1385450880043,None,3,1,0.6742138750269078,380.1385450880043,None,380.80519031152363,None,None,None,None,,27,001,2023_Jan_23_1608,searchDisc5,2021.2.3,59.99737091474428,
images/exp2a_trial_67_colour1_distractors19_r.png,r,3,1,19,0,,,,,0,102,102,102,,,,,,,,,,,,,,,,,,,,,,,,,,,,,,,,,,,,,,,,,,,380.82140349800466,None,2,0.33599016902735457,380.82140349800466,None,,,,,,,,,,,,,,,,None,None,None,,None,None,381.2051428700215,None,3,1,0.5877111810259521,381.2051428700215,None,381.78840701550945,None,None,None,None,,27,001,2023_Jan_23_1608,searchDisc5,2021.2.3,59.99737091474428,
images/exp2b_trial_174_colour3_distractors31_r.png,r,3,3,31,0,,,,,0,103,103,103,,,,,,,,,,,,,,,,,,,,,,,,,,,,,,,,,,,,,,,,,,,381.8046981950174,None,2,0.2561839869595133,381.8046981950174,None,,,,,,,,,,,,,,,,None,None,None,,None,None,382.107158083003,None,3,1,0.6011078930459917,382.107158083003,None,382.7051764915348,None,None,None,None,,27,001,2023_Jan_23_1608,searchDisc5,2021.2.3,59.99737091474428,
images/exp1a_trial_68_colour1_distractors31_r.png,r,3,1,31,0,,,,,0,104,104,104,,,,,,,,,,,,,,,,,,,,,,,,,,,,,,,,,,,,,,,,,,,382.72149296000134,None,2,0.2544497369672172,382.72149296000134,None,,,,,,,,,,,,,,,,None,None,None,,None,None,383.02102671703324,None,3,1,0.8172063010279089,383.02102671703324,None,383.83857372753556,None,None,None,None,,27,001,2023_Jan_23_1608,searchDisc5,2021.2.3,59.99737091474428,
images/exp2c_trial_59_colour3_distractors9_l.png,l,1,3,9,0,,,,,0,105,105,105,,,,,,,,,,,,,,,,,,,,,,,,,,,,,,,,,,,,,,,,,,,383.8549171159975,None,2,0.6210290529998019,383.8549171159975,None,,,,,,,,,,,,,,,,None,None,None,,None,None,384.5219854620518,None,1,1,1.2208664070349187,384.5219854620518,None,385.73810909450987,None,None,None,None,,27,001,2023_Jan_23_1608,searchDisc5,2021.2.3,59.99737091474428,
images/exp1a_trial_298_colour3_distractors1_r.png,r,3,3,1,0,,,,,0,106,106,106,,,,,,,,,,,,,,,,,,,,,,,,,,,,,,,,,,,,,,,,,,,385.75524178601336,None,2,0.3557894819532521,385.75524178601336,None,,,,,,,,,,,,,,,,None,None,None,,None,None,386.15466735104565,None,3,1,0.8884453200153075,386.15466735104565,None,387.03806078953204,None,None,None,None,,27,001,2023_Jan_23_1608,searchDisc5,2021.2.3,59.99737091474428,
images/exp2c_trial_310_colour2_distractors9_l.png,l,1,2,9,0,,,,,0,107,107,107,,,,,,,,,,,,,,,,,,,,,,,,,,,,,,,,,,,,,,,,,,,387.0543920090422,None,2,0.2881045929971151,387.0543920090422,None,,,,,,,,,,,,,,,,None,None,None,,None,None,387.38811347604496,None,1,1,0.571452910953667,387.38811347604496,None,387.95539550653194,None,None,None,None,,27,001,2023_Jan_23_1608,searchDisc5,2021.2.3,59.99737091474428,
images/exp1a_trial_186_colour3_distractors4_l.png,l,1,3,4,0,,,,,0,108,108,108,,,,,,,,,,,,,,,,,,,,,,,,,,,,,,,,,,,,,,,,,,,387.9717851660098,None,2,0.321159737999551,387.9717851660098,None,,,,,,,,,,,,,,,,None,None,None,,None,None,388.338521483005,None,1,1,0.8048035549581982,388.338521483005,None,389.1385318135261,None,None,None,None,,27,001,2023_Jan_23_1608,searchDisc5,2021.2.3,59.99737091474428,
images/exp2b_trial_149_colour2_distractors4_l.png,l,1,2,4,0,,,,,0,109,109,109,,,,,,,,,,,,,,,,,,,,,,,,,,,,,,,,,,,,,,,,,,,389.15716816304484,None,2,0.3047711459803395,389.15716816304484,None,,,,,,,,,,,,,,,,None,None,None,,None,None,389.5053374830168,None,1,1,0.9555819590459578,389.5053374830168,None,390.45548648749246,None,None,None,None,,27,001,2023_Jan_23_1608,searchDisc5,2021.2.3,59.99737091474428,
images/exp1a_trial_128_colour1_distractors1_r.png,r,3,1,1,0,,,,,0,110,110,110,,,,,,,,,,,,,,,,,,,,,,,,,,,,,,,,,,,,,,,,,,,390.4712387060281,None,2,0.33783319499343634,390.4712387060281,None,,,,,,,,,,,,,,,,None,None,None,,None,None,390.8554441620363,None,3,1,0.4558713840087876,390.8554441620363,None,391.30544161652216,None,None,None,None,,27,001,2023_Jan_23_1608,searchDisc5,2021.2.3,59.99737091474428,
images/exp2a_trial_288_colour1_distractors1_r.png,r,3,1,1,0,,,,,0,111,111,111,,,,,,,,,,,,,,,,,,,,,,,,,,,,,,,,,,,,,,,,,,,391.32178327802103,None,2,0.3880533730261959,391.32178327802103,None,,,,,,,,,,,,,,,,None,None,None,,None,None,391.75751563801896,None,3,1,0.6056984930182807,391.75751563801896,None,392.35545853450895,None,None,None,None,,27,001,2023_Jan_23_1608,searchDisc5,2021.2.3,59.99737091474428,
images/exp1a_trial_154_colour3_distractors4_l.png,l,1,3,4,0,,,,,0,112,112,112,,,,,,,,,,,,,,,,,,,,,,,,,,,,,,,,,,,,,,,,,,,392.3735142790247,None,2,0.37106591602787375,392.3735142790247,None,,,,,,,,,,,,,,,,None,None,None,,None,None,392.7907094900147,None,1,1,0.6217011300032027,392.7907094900147,None,393.4054497055011,None,None,None,None,,27,001,2023_Jan_23_1608,searchDisc5,2021.2.3,59.99737091474428,
images/exp2a_trial_111_colour1_distractors1_l.png,l,1,1,1,0,,,,,0,113,113,113,,,,,,,,,,,,,,,,,,,,,,,,,,,,,,,,,,,,,,,,,,,393.4218378540245,None,2,0.43792632198892534,393.4218378540245,None,,,,,,,,,,,,,,,,None,None,None,,None,None,393.9075238170335,None,1,1,1.1229340019635856,393.9075238170335,None,395.0222452115384,None,None,None,None,,27,001,2023_Jan_23_1608,searchDisc5,2021.2.3,59.99737091474428,
images/exp1a_trial_39_colour2_distractors9_r.png,r,3,2,9,0,,,,,0,114,114,114,,,,,,,,,,,,,,,,,,,,,,,,,,,,,,,,,,,,,,,,,,,395.0406529000029,None,2,0.42330024199327454,395.0406529000029,None,,,,,,,,,,,,,,,,None,None,None,,None,None,395.50493528100196,None,3,1,0.8518453739816323,395.50493528100196,None,396.35551376653603,None,None,None,None,,27,001,2023_Jan_23_1608,searchDisc5,2021.2.3,59.99737091474428,
images/exp1a_trial_103_colour2_distractors9_r.png,r,3,2,9,0,,,,,0,115,115,115,,,,,,,,,,,,,,,,,,,,,,,,,,,,,,,,,,,,,,,,,,,396.3714370710077,None,2,0.4069750129710883,396.3714370710077,None,,,,,,,,,,,,,,,,None,None,None,,None,None,396.8242392660468,None,3,1,0.5027572669787332,396.8242392660468,None,397.3223098405404,None,None,None,None,,27,001,2023_Jan_23_1608,searchDisc5,2021.2.3,59.99737091474428,
images/exp2a_trial_236_colour3_distractors9_r.png,r,3,3,9,0,,,,,0,116,116,116,,,,,,,,,,,,,,,,,,,,,,,,,,,,,,,,,,,,,,,,,,,397.3390728899976,None,2,0.33766557998023927,397.3390728899976,None,,,,,,,,,,,,,,,,None,None,None,,None,None,397.7242730120197,None,3,1,0.5865618590032682,397.7242730120197,None,398.30558434351116,None,None,None,None,,27,001,2023_Jan_23_1608,searchDisc5,2021.2.3,59.99737091474428,
images/exp2a_trial_140_colour3_distractors9_r.png,r,3,3,9,0,,,,,0,117,117,117,,,,,,,,,,,,,,,,,,,,,,,,,,,,,,,,,,,,,,,,,,,398.3220237400383,None,2,0.338225607003551,398.3220237400383,None,,,,,,,,,,,,,,,,None,None,None,,None,None,398.70578016899526,None,3,1,0.6713897020090371,398.70578016899526,None,399.3723211215227,None,None,None,None,,27,001,2023_Jan_23_1608,searchDisc5,2021.2.3,59.99737091474428,
images/exp2c_trial_299_colour3_distractors4_r.png,r,3,3,4,0,,,,,0,118,118,118,,,,,,,,,,,,,,,,,,,,,,,,,,,,,,,,,,,,,,,,,,,399.38861972204177,None,2,0.2732544830068946,399.38861972204177,None,,,,,,,,,,,,,,,,None,None,None,,None,None,399.7048631400103,None,3,1,0.57010932196863,399.7048631400103,None,400.2722000025213,None,None,None,None,,27,001,2023_Jan_23_1608,searchDisc5,2021.2.3,59.99737091474428,
images/exp2a_trial_304_colour1_distractors4_l.png,l,1,1,4,0,,,,,0,119,119,119,,,,,,,,,,,,,,,,,,,,,,,,,,,,,,,,,,,,,,,,,,,400.2884898080374,None,2,0.4228429700015113,400.2884898080374,None,,,,,,,,,,,,,,,,None,None,None,,None,None,400.7576006790041,None,3,0,0.5534939729841426,400.7576006790041,None,401.30508846051526,None,None,None,None,,27,001,2023_Jan_23_1608,searchDisc5,2021.2.3,59.99737091474428,
images/exp1a_trial_70_colour2_distractors4_r.png,r,3,2,4,0,,,,,0,120,120,120,,,,,,,,,,,,,,,,,,,,,,,,,,,,,,,,,,,,,,,,,,,401.3220048310468,None,2,0.7718885589856654,401.3220048310468,None,,,,,,,,,,,,,,,,None,None,None,,None,None,402.14038822305156,None,3,1,0.5379109070054255,402.14038822305156,None,402.67250830652193,None,None,None,None,,27,001,2023_Jan_23_1608,searchDisc5,2021.2.3,59.99737091474428,
images/exp2c_trial_181_colour2_distractors4_l.png,l,1,2,4,0,,,,,0,121,121,121,,,,,,,,,,,,,,,,,,,,,,,,,,,,,,,,,,,,,,,,,,,402.68875712004956,None,2,0.35448416200233623,402.68875712004956,None,,,,,,,,,,,,,,,,None,None,None,,None,None,403.08890258101746,None,1,1,0.6387185599887744,403.08890258101746,None,403.7224796695053,None,None,None,None,,27,001,2023_Jan_23_1608,searchDisc5,2021.2.3,59.99737091474428,
images/exp2a_trial_21_colour2_distractors4_l.png,l,1,2,4,0,,,,,0,122,122,122,,,,,,,,,,,,,,,,,,,,,,,,,,,,,,,,,,,,,,,,,,,403.73872560000746,None,2,0.3878714020247571,403.73872560000746,None,,,,,,,,,,,,,,,,None,None,None,,None,None,404.174273207027,None,1,1,0.5031464849598706,404.174273207027,None,404.6724271224928,None,None,None,None,,27,001,2023_Jan_23_1608,searchDisc5,2021.2.3,59.99737091474428,
images/exp2c_trial_43_colour3_distractors4_r.png,r,3,3,4,0,,,,,0,123,123,123,,,,,,,,,,,,,,,,,,,,,,,,,,,,,,,,,,,,,,,,,,,404.6887807060266,None,2,0.3377829209784977,404.6887807060266,None,,,,,,,,,,,,,,,,None,None,None,,None,None,405.0723358230316,None,3,1,1.2394295640406199,405.0723358230316,None,406.3058365565492,None,None,None,None,,27,001,2023_Jan_23_1608,searchDisc5,2021.2.3,59.99737091474428,
images/exp2b_trial_113_colour1_distractors9_l.png,l,1,1,9,0,,,,,0,124,124,124,,,,,,,,,,,,,,,,,,,,,,,,,,,,,,,,,,,,,,,,,,,406.3216161150485,None,2,0.3212990610045381,406.3216161150485,None,,,,,,,,,,,,,,,,None,None,None,,None,None,406.6886744630174,None,1,1,0.8213002610136755,406.6886744630174,None,407.5058466485469,None,None,None,None,,27,001,2023_Jan_23_1608,searchDisc5,2021.2.3,59.99737091474428,
images/exp1a_trial_82_colour1_distractors19_l.png,l,1,1,19,0,,,,,0,125,125,125,,,,,,,,,,,,,,,,,,,,,,,,,,,,,,,,,,,,,,,,,,,407.52231156104244,None,2,0.354245376016479,407.52231156104244,None,,,,,,,,,,,,,,,,None,None,None,,None,None,407.9217900870135,None,1,1,0.6352256209938787,407.9217900870135,None,408.5558720475063,None,None,None,None,,27,001,2023_Jan_23_1608,searchDisc5,2021.2.3,59.99737091474428,
images/exp1a_trial_238_colour3_distractors31_r.png,r,3,3,31,0,,,,,0,126,126,126,,,,,,,,,,,,,,,,,,,,,,,,,,,,,,,,,,,,,,,,,,,408.5723410299979,None,2,0.3212465280084871,408.5723410299979,None,,,,,,,,,,,,,,,,None,None,None,,None,None,408.9385629800381,None,3,1,0.666293655987829,408.9385629800381,None,409.60607265752043,None,None,None,None,,27,001,2023_Jan_23_1608,searchDisc5,2021.2.3,59.99737091474428,
images/exp2a_trial_79_colour1_distractors1_l.png,l,1,1,1,0,,,,,0,127,127,127,,,,,,,,,,,,,,,,,,,,,,,,,,,,,,,,,,,,,,,,,,,409.62231487903045,None,2,0.3730275679845363,409.62231487903045,None,,,,,,,,,,,,,,,,None,None,None,,None,None,410.0392414870439,None,1,1,1.0869768529664725,410.0392414870439,None,411.12196220650804,None,None,None,None,,27,001,2023_Jan_23_1608,searchDisc5,2021.2.3,59.99737091474428,
images/exp1a_trial_14_colour3_distractors31_r.png,r,3,3,31,0,,,,,0,128,128,128,,,,,,,,,,,,,,,,,,,,,,,,,,,,,,,,,,,,,,,,,,,411.13872063404415,None,2,0.35678053699666634,411.13872063404415,None,,,,,,,,,,,,,,,,None,None,None,,None,None,411.53936346201226,None,3,1,0.581284164043609,411.53936346201226,None,412.1226526295184,None,None,None,None,,27,001,2023_Jan_23_1608,searchDisc5,2021.2.3,59.99737091474428,
images/exp2a_trial_261_colour2_distractors1_r.png,r,3,2,1,0,,,,,0,129,129,129,,,,,,,,,,,,,,,,,,,,,,,,,,,,,,,,,,,,,,,,,,,412.13897275005,None,2,0.35567441402236,412.13897275005,None,,,,,,,,,,,,,,,,None,None,None,,None,None,412.54150698904414,None,3,1,0.6878163660294376,412.54150698904414,None,413.22261165950914,None,None,None,None,,27,001,2023_Jan_23_1608,searchDisc5,2021.2.3,59.99737091474428,
images/exp2c_trial_81_colour1_distractors9_l.png,l,1,1,9,0,,,,,0,130,130,130,,,,,,,,,,,,,,,,,,,,,,,,,,,,,,,,,,,,,,,,,,,413.2405160210328,None,2,0.35572659102035686,413.2405160210328,None,,,,,,,,,,,,,,,,None,None,None,,None,None,413.64118030504324,None,1,1,0.6214779100264423,413.64118030504324,None,414.25612921350404,None,None,None,None,,27,001,2023_Jan_23_1608,searchDisc5,2021.2.3,59.99737091474428,
images/exp2b_trial_240_colour1_distractors4_l.png,l,1,1,4,0,,,,,0,131,131,131,,,,,,,,,,,,,,,,,,,,,,,,,,,,,,,,,,,,,,,,,,,414.2725082950201,None,2,0.473225130001083,414.2725082950201,None,,,,,,,,,,,,,,,,None,None,None,,None,None,414.7909772809944,None,1,1,0.5863357390044257,414.7909772809944,None,415.37224401051645,None,None,None,None,,27,001,2023_Jan_23_1608,searchDisc5,2021.2.3,59.99737091474428,
images/exp2b_trial_36_colour1_distractors31_r.png,r,3,1,31,0,,,,,0,132,132,132,,,,,,,,,,,,,,,,,,,,,,,,,,,,,,,,,,,,,,,,,,,415.3894817350083,None,2,0.33825845300452784,415.3894817350083,None,,,,,,,,,,,,,,,,None,None,None,,None,None,415.7726234620204,None,3,1,0.6864002799848095,415.7726234620204,None,416.45619250253077,None,None,None,None,,27,001,2023_Jan_23_1608,searchDisc5,2021.2.3,59.99737091474428,
images/exp2c_trial_260_colour1_distractors31_r.png,r,3,1,31,0,,,,,0,133,133,133,,,,,,,,,,,,,,,,,,,,,,,,,,,,,,,,,,,,,,,,,,,416.47225023200735,None,2,0.3209575250511989,416.47225023200735,None,,,,,,,,,,,,,,,,None,None,None,,None,None,416.83886440400966,None,3,1,0.9028950649662875,416.83886440400966,None,417.73959830352106,None,None,None,None,,27,001,2023_Jan_23_1608,searchDisc5,2021.2.3,59.99737091474428,
images/exp2a_trial_49_colour1_distractors9_l.png,l,1,1,9,0,,,,,0,134,134,134,,,,,,,,,,,,,,,,,,,,,,,,,,,,,,,,,,,,,,,,,,,417.75545220804634,None,2,0.5045167829957791,417.75545220804634,None,,,,,,,,,,,,,,,,None,None,None,,None,None,418.3082273520413,None,1,1,0.8211244519916363,418.3082273520413,None,419.12273321854883,None,None,None,None,,27,001,2023_Jan_23_1608,searchDisc5,2021.2.3,59.99737091474428,
images/exp2c_trial_224_colour1_distractors1_r.png,r,3,1,1,0,,,,,0,135,135,135,,,,,,,,,,,,,,,,,,,,,,,,,,,,,,,,,,,,,,,,,,,419.13872877304675,None,2,0.3880359379691072,419.13872877304675,None,,,,,,,,,,,,,,,,None,None,None,,None,None,419.5748719529947,None,3,1,0.6057289459859021,419.5748719529947,None,420.17303595151753,None,None,None,None,,27,001,2023_Jan_23_1608,searchDisc5,2021.2.3,59.99737091474428,
images/exp1a_trial_108_colour3_distractors9_r.png,r,3,3,9,0,,,,,0,136,136,136,,,,,,,,,,,,,,,,,,,,,,,,,,,,,,,,,,,,,,,,,,,420.1910840860219,None,2,0.3544301399961114,420.1910840860219,None,,,,,,,,,,,,,,,,None,None,None,,None,None,420.5916358450195,None,3,1,0.6369540380546823,420.5916358450195,None,421.2228548555402,None,None,None,None,,27,001,2023_Jan_23_1608,searchDisc5,2021.2.3,59.99737091474428,
images/exp2c_trial_48_colour1_distractors4_l.png,l,1,1,4,0,,,,,0,137,137,137,,,,,,,,,,,,,,,,,,,,,,,,,,,,,,,,,,,,,,,,,,,421.23923652700614,None,2,0.387523488025181,421.23923652700614,None,,,,,,,,,,,,,,,,None,None,None,,None,None,421.67518311802996,None,1,1,0.6223886249936186,421.67518311802996,None,422.2896940905019,None,None,None,None,,27,001,2023_Jan_23_1608,searchDisc5,2021.2.3,59.99737091474428,
images/exp1a_trial_53_colour2_distractors4_l.png,l,1,2,4,0,,,,,0,138,138,138,,,,,,,,,,,,,,,,,,,,,,,,,,,,,,,,,,,,,,,,,,,422.3080189549946,None,2,0.39022963598836213,422.3080189549946,None,,,,,,,,,,,,,,,,None,None,None,,None,None,422.74178462900454,None,1,1,0.6382469729869626,422.74178462900454,None,423.373064149532,None,None,None,None,,27,001,2023_Jan_23_1608,searchDisc5,2021.2.3,59.99737091474428,
images/exp2b_trial_93_colour3_distractors31_l.png,l,1,3,31,0,,,,,0,139,139,139,,,,,,,,,,,,,,,,,,,,,,,,,,,,,,,,,,,,,,,,,,,423.38938477204647,None,2,0.35255795903503895,423.38938477204647,None,,,,,,,,,,,,,,,,None,None,None,,None,None,423.7896292899968,None,1,1,0.5699874350102618,423.7896292899968,None,424.3562793465215,None,None,None,None,,27,001,2023_Jan_23_1608,searchDisc5,2021.2.3,59.99737091474428,
images/exp2a_trial_216_colour2_distractors31_l.png,l,1,2,31,0,,,,,0,140,140,140,,,,,,,,,,,,,,,,,,,,,,,,,,,,,,,,,,,,,,,,,,,424.3725438120309,None,2,0.33793428004719317,424.3725438120309,None,,,,,,,,,,,,,,,,None,None,None,,None,None,424.7564109210507,None,1,1,0.6964955129660666,424.7564109210507,None,425.4563827985083,None,None,None,None,,27,001,2023_Jan_23_1608,searchDisc5,2021.2.3,59.99737091474428,
images/exp2c_trial_150_colour2_distractors9_l.png,l,1,2,9,0,,,,,0,141,141,141,,,,,,,,,,,,,,,,,,,,,,,,,,,,,,,,,,,,,,,,,,,425.47264488000656,None,2,0.339269113028422,425.47264488000656,None,,,,,,,,,,,,,,,,None,None,None,,None,None,425.8555854910519,None,1,1,0.5866477270028554,425.8555854910519,None,426.4396113285446,None,None,None,None,,27,001,2023_Jan_23_1608,searchDisc5,2021.2.3,59.99737091474428,
images/exp2a_trial_96_colour1_distractors1_r.png,r,3,1,1,0,,,,,0,142,142,142,,,,,,,,,,,,,,,,,,,,,,,,,,,,,,,,,,,,,,,,,,,426.4581175140338,None,2,0.33810002700192854,426.4581175140338,None,,,,,,,,,,,,,,,,None,None,None,,None,None,426.8416269349982,None,3,1,0.4895239300094545,426.8416269349982,None,427.3232577305287,None,None,None,None,,27,001,2023_Jan_23_1608,searchDisc5,2021.2.3,59.99737091474428,
images/exp2b_trial_177_colour1_distractors9_l.png,l,1,1,9,0,,,,,0,143,143,143,,,,,,,,,,,,,,,,,,,,,,,,,,,,,,,,,,,,,,,,,,,427.33950060402276,None,2,0.33785746298963204,427.33950060402276,None,,,,,,,,,,,,,,,,None,None,None,,None,None,427.72334280301584,None,1,1,0.7047004800406285,427.72334280301584,None,428.4231837125379,None,None,None,None,,27,001,2023_Jan_23_1608,searchDisc5,2021.2.3,59.99737091474428,
images/exp2b_trial_275_colour1_distractors31_l.png,l,1,1,31,0,,,,,0,144,144,144,,,,,,,,,,,,,,,,,,,,,,,,,,,,,,,,,,,,,,,,,,,428.43912691500736,None,2,0.47125876805512235,428.43912691500736,None,,,,,,,,,,,,,,,,None,None,None,,None,None,428.95632807700895,None,1,1,0.5523216060246341,428.95632807700895,None,429.506487214542,None,None,None,None,,27,001,2023_Jan_23_1608,searchDisc5,2021.2.3,59.99737091474428,
images/exp2b_trial_61_colour3_distractors31_l.png,l,1,3,31,0,,,,,0,145,145,145,,,,,,,,,,,,,,,,,,,,,,,,,,,,,,,,,,,,,,,,,,,429.5226813949994,None,2,0.3383987949928269,429.5226813949994,None,,,,,,,,,,,,,,,,None,None,None,,None,None,429.9057391930255,None,1,1,0.6031983799766749,429.9057391930255,None,430.5065841695294,None,None,None,None,,27,001,2023_Jan_23_1608,searchDisc5,2021.2.3,59.99737091474428,
images/exp2a_trial_35_colour1_distractors19_r.png,r,3,1,19,0,,,,,0,146,146,146,,,,,,,,,,,,,,,,,,,,,,,,,,,,,,,,,,,,,,,,,,,430.52273770503234,None,2,0.5563339900108986,430.52273770503234,None,,,,,,,,,,,,,,,,None,None,None,,None,None,431.12568260502303,None,3,1,0.7186216260306537,431.12568260502303,None,431.84003709653626,None,None,None,None,,27,001,2023_Jan_23_1608,searchDisc5,2021.2.3,59.99737091474428,
images/exp1a_trial_288_colour1_distractors1_r.png,r,3,1,1,0,,,,,0,147,147,147,,,,,,,,,,,,,,,,,,,,,,,,,,,,,,,,,,,,,,,,,,,431.8561176280491,None,2,0.5544531079940498,431.8561176280491,None,,,,,,,,,,,,,,,,None,None,None,,None,None,432.45795588503825,None,3,1,0.5391643940238282,432.45795588503825,None,432.989861695515,None,None,None,None,,27,001,2023_Jan_23_1608,searchDisc5,2021.2.3,59.99737091474428,
images/exp2b_trial_243_colour1_distractors31_l.png,l,1,1,31,0,,,,,0,148,148,148,,,,,,,,,,,,,,,,,,,,,,,,,,,,,,,,,,,,,,,,,,,433.00632747099735,None,2,0.35450764501001686,433.00632747099735,None,,,,,,,,,,,,,,,,None,None,None,,None,None,433.40630785003304,None,1,1,0.6200376729830168,433.40630785003304,None,434.0234192574979,None,None,None,None,,27,001,2023_Jan_23_1608,searchDisc5,2021.2.3,59.99737091474428,
images/exp2b_trial_253_colour3_distractors31_l.png,l,1,3,31,0,,,,,0,149,149,149,,,,,,,,,,,,,,,,,,,,,,,,,,,,,,,,,,,,,,,,,,,434.0393774410477,None,2,0.37083790701581165,434.0393774410477,None,,,,,,,,,,,,,,,,None,None,None,,None,None,434.4583331239992,None,1,1,0.8198714400059544,434.4583331239992,None,435.2732615115354,None,None,None,None,,27,001,2023_Jan_23_1608,searchDisc5,2021.2.3,59.99737091474428,
images/exp2a_trial_100_colour1_distractors31_r.png,r,3,1,31,0,,,,,0,150,150,150,,,,,,,,,,,,,,,,,,,,,,,,,,,,,,,,,,,,,,,,,,,435.2891759159975,None,2,0.3713944879709743,435.2891759159975,None,,,,,,,,,,,,,,,,None,None,None,,None,None,435.70848018705146,None,3,1,0.6357322410331108,435.70848018705146,None,436.33999063849916,None,None,None,None,,27,001,2023_Jan_23_1608,searchDisc5,2021.2.3,59.99737091474428,
images/exp2c_trial_319_colour0_distractors0_l.png,l,1,0,0,0,,,,,0,151,151,151,,,,,,,,,,,,,,,,,,,,,,,,,,,,,,,,,,,,,,,,,,,436.35645169002237,None,2,0.33759570703841746,436.35645169002237,None,,,,,,,,,,,,,,,,None,None,None,,None,None,436.74021316104336,None,1,1,0.5396457059541717,436.74021316104336,None,437.27342134051725,None,None,None,None,,27,001,2023_Jan_23_1608,searchDisc5,2021.2.3,59.99737091474428,
images/exp2b_trial_303_colour1_distractors1_l.png,l,1,1,1,0,,,,,0,152,152,152,,,,,,,,,,,,,,,,,,,,,,,,,,,,,,,,,,,,,,,,,,,437.2895475490368,None,2,0.7541896110051312,437.2895475490368,None,,,,,,,,,,,,,,,,None,None,None,,None,None,438.09202514903154,None,1,1,0.6895853590103798,438.09202514903154,None,438.7734061755007,None,None,None,None,,27,001,2023_Jan_23_1608,searchDisc5,2021.2.3,59.99737091474428,
images/exp2c_trial_41_colour2_distractors31_r.png,r,3,2,31,0,,,,,0,153,153,153,,,,,,,,,,,,,,,,,,,,,,,,,,,,,,,,,,,,,,,,,,,438.7895626810496,None,2,0.43935968703590333,438.7895626810496,None,,,,,,,,,,,,,,,,None,None,None,,None,None,439.2754642700311,None,3,1,0.6178692299872637,439.2754642700311,None,439.89018042252866,None,None,None,None,,27,001,2023_Jan_23_1608,searchDisc5,2021.2.3,59.99737091474428,
images/exp2b_trial_218_colour3_distractors4_l.png,l,1,3,4,0,,,,,0,154,154,154,,,,,,,,,,,,,,,,,,,,,,,,,,,,,,,,,,,,,,,,,,,439.9061751580448,None,2,0.33774913201341406,439.9061751580448,None,,,,,,,,,,,,,,,,None,None,None,,None,None,440.2895101850154,None,1,1,0.6215619069989771,440.2895101850154,None,440.90578801250086,None,None,None,None,,27,001,2023_Jan_23_1608,searchDisc5,2021.2.3,59.99737091474428,
images/exp1a_trial_76_colour3_distractors9_r.png,r,3,3,9,0,,,,,0,155,155,155,,,,,,,,,,,,,,,,,,,,,,,,,,,,,,,,,,,,,,,,,,,440.9226834960282,None,2,0.3390866930130869,440.9226834960282,None,,,,,,,,,,,,,,,,None,None,None,,None,None,441.30670421704417,None,3,1,0.6704554169555195,441.30670421704417,None,441.9734235015465,None,None,None,None,,27,001,2023_Jan_23_1608,searchDisc5,2021.2.3,59.99737091474428,
images/exp2a_trial_169_colour2_distractors31_r.png,r,3,2,31,0,,,,,0,156,156,156,,,,,,,,,,,,,,,,,,,,,,,,,,,,,,,,,,,,,,,,,,,441.989890921046,None,2,0.32152927201241255,441.989890921046,None,,,,,,,,,,,,,,,,None,None,None,,None,None,442.35642172500957,None,3,1,0.7461017250316218,442.35642172500957,None,443.1070183634991,None,None,None,None,,27,001,2023_Jan_23_1608,searchDisc5,2021.2.3,59.99737091474428,
images/exp2c_trial_275_colour1_distractors31_l.png,l,1,1,31,0,,,,,0,157,157,157,,,,,,,,,,,,,,,,,,,,,,,,,,,,,,,,,,,,,,,,,,,443.1232848530053,None,2,0.38676840002881363,443.1232848530053,None,,,,,,,,,,,,,,,,None,None,None,,None,None,443.5589873260469,None,1,1,0.5704465010203421,443.5589873260469,None,444.1234673885163,None,None,None,None,,27,001,2023_Jan_23_1608,searchDisc5,2021.2.3,59.99737091474428,
images/exp2c_trial_110_colour3_distractors31_r.png,r,3,3,31,0,,,,,0,158,158,158,,,,,,,,,,,,,,,,,,,,,,,,,,,,,,,,,,,,,,,,,,,444.14009410201106,None,2,0.3699675750103779,444.14009410201106,None,,,,,,,,,,,,,,,,None,None,None,,None,None,444.558307711035,None,3,1,0.6535703190020286,444.558307711035,None,445.20694970049664,None,None,None,None,,27,001,2023_Jan_23_1608,searchDisc5,2021.2.3,59.99737091474428,
images/exp2a_trial_109_colour3_distractors19_r.png,r,3,3,19,0,,,,,0,159,159,159,,,,,,,,,,,,,,,,,,,,,,,,,,,,,,,,,,,,,,,,,,,445.22302343003685,None,2,0.3712277180165984,445.22302343003685,None,,,,,,,,,,,,,,,,None,None,None,,None,None,445.64227617904544,None,3,1,0.5704229730181396,445.64227617904544,None,446.20714951354313,None,None,None,None,,27,001,2023_Jan_23_1608,searchDisc5,2021.2.3,59.99737091474428,
images/exp1a_trial_73_colour2_distractors31_r.png,r,3,2,31,0,,,,,0,160,160,160,,,,,,,,,,,,,,,,,,,,,,,,,,,,,,,,,,,,,,,,,,,446.22313640703214,None,2,0.5543176059727557,446.22313640703214,None,,,,,,,,,,,,,,,,None,None,None,,None,None,446.8256261590286,None,3,1,0.466047857014928,446.8256261590286,None,447.29029497150333,None,None,None,None,,27,001,2023_Jan_23_1608,searchDisc5,2021.2.3,59.99737091474428,
images/exp1a_trial_24_colour2_distractors31_l.png,l,1,2,31,0,,,,,0,161,161,161,,,,,,,,,,,,,,,,,,,,,,,,,,,,,,,,,,,,,,,,,,,447.30671032104874,None,2,0.48773391102440655,447.30671032104874,None,,,,,,,,,,,,,,,,None,None,None,,None,None,447.84042575303465,None,1,1,0.515871662995778,447.84042575303465,None,448.35637680954534,None,None,None,None,,27,001,2023_Jan_23_1608,searchDisc5,2021.2.3,59.99737091474428,
images/exp2a_trial_144_colour1_distractors4_l.png,l,1,1,4,0,,,,,0,162,162,162,,,,,,,,,,,,,,,,,,,,,,,,,,,,,,,,,,,,,,,,,,,448.37518874101806,None,2,0.39047561696497723,448.37518874101806,None,,,,,,,,,,,,,,,,None,None,None,,None,None,448.8094617880415,None,1,1,0.5204957849928178,448.8094617880415,None,449.3238339804928,None,None,None,None,,27,001,2023_Jan_23_1608,searchDisc5,2021.2.3,59.99737091474428,
images/exp2b_trial_102_colour2_distractors4_r.png,r,3,2,4,0,,,,,0,163,163,163,,,,,,,,,,,,,,,,,,,,,,,,,,,,,,,,,,,,,,,,,,,449.34208213799866,None,2,0.3377124639810063,449.34208213799866,None,,,,,,,,,,,,,,,,None,None,None,,None,None,449.7254669590038,None,3,1,0.5386989350081421,449.7254669590038,None,450.2570173295215,None,None,None,None,,27,001,2023_Jan_23_1608,searchDisc5,2021.2.3,59.99737091474428,
images/exp2a_trial_135_colour2_distractors9_r.png,r,3,2,9,0,,,,,0,164,164,164,,,,,,,,,,,,,,,,,,,,,,,,,,,,,,,,,,,,,,,,,,,450.2754989649984,None,2,0.5737238499568775,450.2754989649984,None,,,,,,,,,,,,,,,,None,None,None,,None,None,450.8905649660155,None,3,1,0.5320503779803403,450.8905649660155,None,451.4237483775476,None,None,None,None,,27,001,2023_Jan_23_1608,searchDisc5,2021.2.3,59.99737091474428,
images/exp2a_trial_166_colour2_distractors4_r.png,r,3,2,4,0,,,,,0,165,165,165,,,,,,,,,,,,,,,,,,,,,,,,,,,,,,,,,,,,,,,,,,,451.4420032740454,None,2,0.3562700800248422,451.4420032740454,None,,,,,,,,,,,,,,,,None,None,None,,None,None,451.8417740589939,None,3,1,0.5847778000170365,451.8417740589939,None,452.42369008449606,None,None,None,None,,27,001,2023_Jan_23_1608,searchDisc5,2021.2.3,59.99737091474428,
images/exp2a_trial_174_colour3_distractors31_r.png,r,3,3,31,0,,,,,0,166,166,166,,,,,,,,,,,,,,,,,,,,,,,,,,,,,,,,,,,,,,,,,,,452.4401073650224,None,2,0.3567434530123137,452.4401073650224,None,,,,,,,,,,,,,,,,None,None,None,,None,None,452.8428530830424,None,3,1,0.6174248860334046,452.8428530830424,None,453.45710047149333,None,None,None,None,,27,001,2023_Jan_23_1608,searchDisc5,2021.2.3,59.99737091474428,
images/exp1a_trial_243_colour1_distractors31_l.png,l,1,1,31,0,,,,,0,167,167,167,,,,,,,,,,,,,,,,,,,,,,,,,,,,,,,,,,,,,,,,,,,453.4735509760212,None,2,0.30455339601030573,453.4735509760212,None,,,,,,,,,,,,,,,,None,None,None,,None,None,453.82364823203534,None,1,1,0.6169174019596539,453.82364823203534,None,454.44055269554957,None,None,None,None,,27,001,2023_Jan_23_1608,searchDisc5,2021.2.3,59.99737091474428,
images/exp2a_trial_151_colour2_distractors19_l.png,l,1,2,19,0,,,,,0,168,168,168,,,,,,,,,,,,,,,,,,,,,,,,,,,,,,,,,,,,,,,,,,,454.45626674301457,None,2,0.2702883119927719,454.45626674301457,None,,,,,,,,,,,,,,,,None,None,None,,None,None,454.77324062300613,None,1,1,0.782781857997179,454.77324062300613,None,455.55711693253835,None,None,None,None,,27,001,2023_Jan_23_1608,searchDisc5,2021.2.3,59.99737091474428,
images/exp2b_trial_26_colour3_distractors4_l.png,l,1,3,4,0,,,,,0,169,169,169,,,,,,,,,,,,,,,,,,,,,,,,,,,,,,,,,,,,,,,,,,,455.573540701007,None,2,0.25630965700838715,455.573540701007,None,,,,,,,,,,,,,,,,None,None,None,,None,None,455.8758553499938,None,1,1,0.6035386609728448,455.8758553499938,None,456.47395328253043,None,None,None,None,,27,001,2023_Jan_23_1608,searchDisc5,2021.2.3,59.99737091474428,
images/exp2a_trial_161_colour1_distractors4_r.png,r,3,1,4,0,,,,,0,170,170,170,,,,,,,,,,,,,,,,,,,,,,,,,,,,,,,,,,,,,,,,,,,456.4919788700063,None,2,0.3203205979662016,456.4919788700063,None,,,,,,,,,,,,,,,,None,None,None,,None,None,456.8573708080221,None,3,1,0.5392910109949298,456.8573708080221,None,457.3907468405203,None,None,None,None,,27,001,2023_Jan_23_1608,searchDisc5,2021.2.3,59.99737091474428,
images/exp2b_trial_208_colour1_distractors4_l.png,l,1,1,4,0,,,,,0,171,171,171,,,,,,,,,,,,,,,,,,,,,,,,,,,,,,,,,,,,,,,,,,,457.4088561240351,None,2,0.28788037097547203,457.4088561240351,None,,,,,,,,,,,,,,,,None,None,None,,None,None,457.7405763560091,None,1,1,0.5067109719966538,457.7405763560091,None,458.2404828325496,None,None,None,None,,27,001,2023_Jan_23_1608,searchDisc5,2021.2.3,59.99737091474428,
images/exp1a_trial_89_colour3_distractors1_l.png,l,1,3,1,0,,,,,0,172,172,172,,,,,,,,,,,,,,,,,,,,,,,,,,,,,,,,,,,,,,,,,,,458.256536608038,None,2,0.27149612602079287,458.256536608038,None,,,,,,,,,,,,,,,,None,None,None,,None,None,458.5737662920146,None,3,0,0.4712107250234112,458.5737662920146,None,459.0406139204977,None,None,None,None,,27,001,2023_Jan_23_1608,searchDisc5,2021.2.3,59.99737091474428,
images/exp2b_trial_223_colour0_distractors0_l.png,l,1,0,0,0,,,,,0,173,173,173,,,,,,,,,,,,,,,,,,,,,,,,,,,,,,,,,,,,,,,,,,,459.05709192104405,None,2,0.5577219600090757,459.05709192104405,None,,,,,,,,,,,,,,,,None,None,None,,None,None,459.6591732140514,None,1,1,0.6360286280396394,459.6591732140514,None,460.2905878105201,None,None,None,None,,27,001,2023_Jan_23_1608,searchDisc5,2021.2.3,59.99737091474428,
images/exp1a_trial_7_colour2_distractors9_r.png,r,3,2,9,0,,,,,0,174,174,174,,,,,,,,,,,,,,,,,,,,,,,,,,,,,,,,,,,,,,,,,,,460.3063828240265,None,2,0.520857335999608,460.3063828240265,None,,,,,,,,,,,,,,,,None,None,None,,None,None,460.8741254210472,None,3,1,0.6376555450260639,460.8741254210472,None,461.5076515565277,None,None,None,None,,27,001,2023_Jan_23_1608,searchDisc5,2021.2.3,59.99737091474428,
images/exp2b_trial_54_colour2_distractors9_l.png,l,1,2,9,0,,,,,0,175,175,175,,,,,,,,,,,,,,,,,,,,,,,,,,,,,,,,,,,,,,,,,,,461.52376271400135,None,2,0.3542785639874637,461.52376271400135,None,,,,,,,,,,,,,,,,None,None,None,,None,None,461.9239751510322,None,1,1,0.4733646519598551,461.9239751510322,None,462.3905256625265,None,None,None,None,,27,001,2023_Jan_23_1608,searchDisc5,2021.2.3,59.99737091474428,
images/exp2c_trial_44_colour3_distractors9_r.png,r,3,3,9,0,,,,,0,176,176,176,,,,,,,,,,,,,,,,,,,,,,,,,,,,,,,,,,,,,,,,,,,462.4065886340104,None,2,0.28608277800958604,462.4065886340104,None,,,,,,,,,,,,,,,,None,None,None,,None,None,462.7402695150231,None,3,1,0.5711385339964181,462.7402695150231,None,463.3074239545502,None,None,None,None,,27,001,2023_Jan_23_1608,searchDisc5,2021.2.3,59.99737091474428,
images/exp2a_trial_122_colour3_distractors4_l.png,l,1,3,4,0,,,,,0,177,177,177,,,,,,,,,,,,,,,,,,,,,,,,,,,,,,,,,,,,,,,,,,,463.3237244070042,None,2,0.28766666899900883,463.3237244070042,None,,,,,,,,,,,,,,,,None,None,None,,None,None,463.6574037190294,None,1,1,0.7888285999651998,463.6574037190294,None,464.4408991945209,None,None,None,None,,27,001,2023_Jan_23_1608,searchDisc5,2021.2.3,59.99737091474428,
images/exp1a_trial_286_colour0_distractors0_r.png,r,3,0,0,0,,,,,0,178,178,178,,,,,,,,,,,,,,,,,,,,,,,,,,,,,,,,,,,,,,,,,,,464.45714694901835,None,2,0.3042436830000952,464.45714694901835,None,,,,,,,,,,,,,,,,None,None,None,,None,None,464.8068033900345,None,3,1,0.5557047839974985,464.8068033900345,None,465.35749068554725,None,None,None,None,,27,001,2023_Jan_23_1608,searchDisc5,2021.2.3,59.99737091474428,
images/exp2c_trial_206_colour3_distractors31_r.png,r,3,3,31,0,,,,,0,179,179,179,,,,,,,,,,,,,,,,,,,,,,,,,,,,,,,,,,,,,,,,,,,465.37385466101114,None,2,0.3212400429765694,465.37385466101114,None,,,,,,,,,,,,,,,,None,None,None,,None,None,465.74086075503146,None,3,1,0.7521215599845164,465.74086075503146,None,466.49022518151907,None,None,None,None,,27,001,2023_Jan_23_1608,searchDisc5,2021.2.3,59.99737091474428,
images/exp2c_trial_192_colour1_distractors1_r.png,r,3,1,1,0,,,,,0,180,180,180,,,,,,,,,,,,,,,,,,,,,,,,,,,,,,,,,,,,,,,,,,,466.50673405401176,None,2,0.2550109349540435,466.50673405401176,None,,,,,,,,,,,,,,,,None,None,None,,None,None,466.8075135750114,None,1,0,0.5726968090166338,466.8075135750114,None,467.37430618052605,None,None,None,None,,27,001,2023_Jan_23_1608,searchDisc5,2021.2.3,59.99737091474428,
images/exp2b_trial_194_colour1_distractors9_r.png,r,3,1,9,0,,,,,0,181,181,181,,,,,,,,,,,,,,,,,,,,,,,,,,,,,,,,,,,,,,,,,,,467.39020760101266,None,2,0.5732841579592787,467.39020760101266,None,,,,,,,,,,,,,,,,None,None,None,,None,None,468.0089012950193,None,3,1,0.5851534620160237,468.0089012950193,None,468.5908113404992,None,None,None,None,,27,001,2023_Jan_23_1608,searchDisc5,2021.2.3,59.99737091474428,
images/exp1a_trial_314_colour3_distractors4_l.png,l,1,3,4,0,,,,,0,182,182,182,,,,,,,,,,,,,,,,,,,,,,,,,,,,,,,,,,,,,,,,,,,468.6070724099991,None,2,0.28771784697892144,468.6070724099991,None,,,,,,,,,,,,,,,,None,None,None,,None,None,468.94072592502926,None,1,1,0.5540287240291946,468.94072592502926,None,469.48994399352233,None,None,None,None,,27,001,2023_Jan_23_1608,searchDisc5,2021.2.3,59.99737091474428,
images/exp1a_trial_87_colour2_distractors19_l.png,l,1,2,19,0,,,,,0,183,183,183,,,,,,,,,,,,,,,,,,,,,,,,,,,,,,,,,,,,,,,,,,,469.50931835203664,None,2,0.27214632398681715,469.50931835203664,None,,,,,,,,,,,,,,,,None,None,None,,None,None,469.82411409303313,None,1,1,0.6508380100131035,469.82411409303313,None,470.4743824235164,None,None,None,None,,27,001,2023_Jan_23_1608,searchDisc5,2021.2.3,59.99737091474428,
images/exp2a_trial_284_colour3_distractors19_l.png,l,1,3,19,0,,,,,0,184,184,184,,,,,,,,,,,,,,,,,,,,,,,,,,,,,,,,,,,,,,,,,,,470.4906871440471,None,2,0.2556952249724418,470.4906871440471,None,,,,,,,,,,,,,,,,None,None,None,,None,None,470.7923656590283,None,1,1,0.5689331280300394,470.7923656590283,None,471.3574977245415,None,None,None,None,,27,001,2023_Jan_23_1608,searchDisc5,2021.2.3,59.99737091474428,
images/exp2c_trial_279_colour2_distractors19_l.png,l,1,2,19,0,,,,,0,185,185,185,,,,,,,,,,,,,,,,,,,,,,,,,,,,,,,,,,,,,,,,,,,471.3741722080158,None,2,0.18898698495468125,471.3741722080158,None,,,,,,,,,,,,,,,,None,None,None,,None,None,471.6097210760345,None,1,1,0.7697666029562242,471.6097210760345,None,472.37441712351284,None,None,None,None,,27,001,2023_Jan_23_1608,searchDisc5,2021.2.3,59.99737091474428,
images/exp2b_trial_219_colour3_distractors9_l.png,l,1,3,9,0,,,,,0,186,186,186,,,,,,,,,,,,,,,,,,,,,,,,,,,,,,,,,,,,,,,,,,,472.3928006979986,None,2,0.1730716360034421,472.3928006979986,None,,,,,,,,,,,,,,,,None,None,None,,None,None,472.6098047910491,None,1,1,0.5535443209810182,472.6098047910491,None,473.1576108455309,None,None,None,None,,27,001,2023_Jan_23_1608,searchDisc5,2021.2.3,59.99737091474428,
images/exp2a_trial_272_colour1_distractors4_l.png,l,1,1,4,0,,,,,0,187,187,187,,,,,,,,,,,,,,,,,,,,,,,,,,,,,,,,,,,,,,,,,,,473.1736016620416,None,2,0.2702780779800378,473.1736016620416,None,,,,,,,,,,,,,,,,None,None,None,,None,None,473.4903454660089,None,1,1,0.6726909159915522,473.4903454660089,None,474.1575824495056,None,None,None,None,,27,001,2023_Jan_23_1608,searchDisc5,2021.2.3,59.99737091474428,
images/exp1a_trial_0_colour1_distractors1_r.png,r,3,1,1,0,,,,,0,188,188,188,,,,,,,,,,,,,,,,,,,,,,,,,,,,,,,,,,,,,,,,,,,474.17347715899814,None,2,0.22284330002730712,474.17347715899814,None,,,,,,,,,,,,,,,,None,None,None,,None,None,474.44080079201376,None,3,1,0.6706619239994325,474.44080079201376,None,475.1077038055053,None,None,None,None,,27,001,2023_Jan_23_1608,searchDisc5,2021.2.3,59.99737091474428,
images/exp2a_trial_259_colour1_distractors19_r.png,r,3,1,19,0,,,,,0,189,189,189,,,,,,,,,,,,,,,,,,,,,,,,,,,,,,,,,,,,,,,,,,,475.1234104980249,None,2,0.3378161399741657,475.1234104980249,None,,,,,,,,,,,,,,,,None,None,None,,None,None,475.507444419025,None,3,1,0.8866692170267925,475.507444419025,None,476.3910145295202,None,None,None,None,,27,001,2023_Jan_23_1608,searchDisc5,2021.2.3,59.99737091474428,
images/exp2b_trial_81_colour1_distractors9_l.png,l,1,1,9,0,,,,,0,190,190,190,,,,,,,,,,,,,,,,,,,,,,,,,,,,,,,,,,,,,,,,,,,476.40697854501195,None,2,0.3047565290471539,476.40697854501195,None,,,,,,,,,,,,,,,,None,None,None,,None,None,476.757273797004,None,1,1,0.7392148729995824,476.757273797004,None,477.49129543553573,None,None,None,None,,27,001,2023_Jan_23_1608,searchDisc5,2021.2.3,59.99737091474428,
images/exp2a_trial_301_colour3_distractors19_r.png,r,3,3,19,0,,,,,0,191,191,191,,,,,,,,,,,,,,,,,,,,,,,,,,,,,,,,,,,,,,,,,,,477.50725385401165,None,2,0.27399035601411015,477.50725385401165,None,,,,,,,,,,,,,,,,None,None,None,,None,None,477.8241828850005,None,3,1,0.533768585009966,477.8241828850005,None,478.35781135550934,None,None,None,None,,27,001,2023_Jan_23_1608,searchDisc5,2021.2.3,59.99737091474428,
images/exp1a_trial_138_colour3_distractors1_r.png,r,3,3,1,0,,,,,0,192,192,192,,,,,,,,,,,,,,,,,,,,,,,,,,,,,,,,,,,,,,,,,,,478.37406729505165,None,2,0.2876348329591565,478.37406729505165,None,,,,,,,,,,,,,,,,None,None,None,,None,None,478.70784506201744,None,3,1,0.5057303269859403,478.70784506201744,None,479.2077632135013,None,None,None,None,,27,001,2023_Jan_23_1608,searchDisc5,2021.2.3,59.99737091474428,
images/exp2a_trial_201_colour2_distractors31_r.png,r,3,2,31,0,,,,,0,193,193,193,,,,,,,,,,,,,,,,,,,,,,,,,,,,,,,,,,,,,,,,,,,479.2243667700095,None,2,0.23800049896817654,479.2243667700095,None,,,,,,,,,,,,,,,,None,None,None,,None,None,479.50756600900786,None,3,1,0.9299963950179517,479.50756600900786,None,480.4411167085171,None,None,None,None,,27,001,2023_Jan_23_1608,searchDisc5,2021.2.3,59.99737091474428,
images/exp2c_trial_284_colour3_distractors19_l.png,l,1,3,19,0,,,,,0,194,194,194,,,,,,,,,,,,,,,,,,,,,,,,,,,,,,,,,,,,,,,,,,,480.45900967001216,None,2,0.2546005519689061,480.45900967001216,None,,,,,,,,,,,,,,,,None,None,None,,None,None,480.7573819850222,None,1,1,0.9723497119848616,480.7573819850222,None,481.72455055651955,None,None,None,None,,27,001,2023_Jan_23_1608,searchDisc5,2021.2.3,59.99737091474428,
images/exp1a_trial_133_colour2_distractors1_r.png,r,3,2,1,0,,,,,0,195,195,195,,,,,,,,,,,,,,,,,,,,,,,,,,,,,,,,,,,,,,,,,,,481.74104737804737,None,2,0.3026859639794566,481.74104737804737,None,,,,,,,,,,,,,,,,None,None,None,,None,None,482.09087253001053,None,3,1,1.0908906299737282,482.09087253001053,None,483.17486188451295,None,None,None,None,,27,001,2023_Jan_23_1608,searchDisc5,2021.2.3,59.99737091474428,
images/exp2b_trial_248_colour2_distractors31_l.png,l,1,2,31,0,,,,,0,196,196,196,,,,,,,,,,,,,,,,,,,,,,,,,,,,,,,,,,,,,,,,,,,483.1905554050463,None,2,0.2688178319949657,483.1905554050463,None,,,,,,,,,,,,,,,,None,None,None,,None,None,483.50740109203616,None,1,1,0.7205475089722313,483.50740109203616,None,484.22477594153025,None,None,None,None,,27,001,2023_Jan_23_1608,searchDisc5,2021.2.3,59.99737091474428,
images/exp2c_trial_47_colour1_distractors1_l.png,l,1,1,1,0,,,,,0,197,197,197,,,,,,,,,,,,,,,,,,,,,,,,,,,,,,,,,,,,,,,,,,,484.2411596100428,None,2,0.2875193810323253,484.2411596100428,None,,,,,,,,,,,,,,,,None,None,None,,None,None,484.5745870140381,None,1,1,0.7075958970235661,484.5745870140381,None,485.27459091054044,None,None,None,None,,27,001,2023_Jan_23_1608,searchDisc5,2021.2.3,59.99737091474428,
images/exp2c_trial_112_colour1_distractors4_l.png,l,1,1,4,0,,,,,0,198,198,198,,,,,,,,,,,,,,,,,,,,,,,,,,,,,,,,,,,,,,,,,,,485.29106314800447,None,2,0.20545111800311133,485.29106314800447,None,,,,,,,,,,,,,,,,None,None,None,,None,None,485.54346057999646,None,1,1,0.5873454050160944,485.54346057999646,None,486.1245788185159,None,None,None,None,,27,001,2023_Jan_23_1608,searchDisc5,2021.2.3,59.99737091474428,
images/exp2a_trial_19_colour1_distractors31_l.png,l,1,1,31,0,,,,,0,199,199,199,,,,,,,,,,,,,,,,,,,,,,,,,,,,,,,,,,,,,,,,,,,486.1410159820225,None,2,0.2225591610185802,486.1410159820225,None,,,,,,,,,,,,,,,,None,None,None,,None,None,486.4080621980247,None,1,1,0.599201725970488,486.4080621980247,None,487.00762945251773,None,None,None,None,,27,001,2023_Jan_23_1608,searchDisc5,2021.2.3,59.99737091474428,
images/exp2b_trial_261_colour2_distractors1_r.png,r,3,2,1,0,,,,,0,200,200,200,,,,,,,,,,,,,,,,,,,,,,,,,,,,,,,,,,,,,,,,,,,487.0237072050222,None,2,0.3550613250117749,487.0237072050222,None,,,,,,,,,,,,,,,,None,None,None,,None,None,487.42672788904747,None,3,1,0.572600818995852,487.42672788904747,None,487.9914037265233,None,None,None,None,,27,001,2023_Jan_23_1608,searchDisc5,2021.2.3,59.99737091474428,
images/exp2c_trial_68_colour1_distractors31_r.png,r,3,1,31,0,,,,,0,201,201,201,,,,,,,,,,,,,,,,,,,,,,,,,,,,,,,,,,,,,,,,,,,488.0077883610502,None,2,0.2878387860255316,488.0077883610502,None,,,,,,,,,,,,,,,,None,None,None,,None,None,488.3408883920056,None,3,1,0.5192175270058215,488.3408883920056,None,488.8579949595267,None,None,None,None,,27,001,2023_Jan_23_1608,searchDisc5,2021.2.3,59.99737091474428,
images/exp2c_trial_2_colour1_distractors9_r.png,r,3,1,9,0,,,,,0,202,202,202,,,,,,,,,,,,,,,,,,,,,,,,,,,,,,,,,,,,,,,,,,,488.87413880904205,None,2,0.22482203698018566,488.87413880904205,None,,,,,,,,,,,,,,,,None,None,None,,None,None,489.1412350750179,None,3,1,0.5513243759633042,489.1412350750179,None,489.69153887151043,None,None,None,None,,27,001,2023_Jan_23_1608,searchDisc5,2021.2.3,59.99737091474428,
images/exp2a_trial_48_colour1_distractors4_l.png,l,1,1,4,0,,,,,0,203,203,203,,,,,,,,,,,,,,,,,,,,,,,,,,,,,,,,,,,,,,,,,,,489.70761490100995,None,2,0.24121913401177153,489.70761490100995,None,,,,,,,,,,,,,,,,None,None,None,,None,None,489.99329892301466,None,1,1,0.5187364110024646,489.99329892301466,None,490.5080697414931,None,None,None,None,,27,001,2023_Jan_23_1608,searchDisc5,2021.2.3,59.99737091474428,
images/exp2c_trial_114_colour1_distractors19_l.png,l,1,1,19,0,,,,,0,204,204,204,,,,,,,,,,,,,,,,,,,,,,,,,,,,,,,,,,,,,,,,,,,490.52657657902455,None,2,0.2376836150069721,490.52657657902455,None,,,,,,,,,,,,,,,,None,None,None,,None,None,490.8075607540086,None,1,1,0.5200206789886579,490.8075607540086,None,491.32476094453597,None,None,None,None,,27,001,2023_Jan_23_1608,searchDisc5,2021.2.3,59.99737091474428,
images/exp2a_trial_220_colour3_distractors19_l.png,l,1,3,19,0,,,,,0,205,205,205,,,,,,,,,,,,,,,,,,,,,,,,,,,,,,,,,,,,,,,,,,,491.3407172530424,None,2,0.2881265979958698,491.3407172530424,None,,,,,,,,,,,,,,,,None,None,None,,None,None,491.67464813101105,None,1,1,0.7533129139919765,491.67464813101105,None,492.42508505850566,None,None,None,None,,27,001,2023_Jan_23_1608,searchDisc5,2021.2.3,59.99737091474428,
images/exp1a_trial_86_colour2_distractors9_l.png,l,1,2,9,0,,,,,0,206,206,206,,,,,,,,,,,,,,,,,,,,,,,,,,,,,,,,,,,,,,,,,,,492.44127732299967,None,2,0.20440359803615138,492.44127732299967,None,,,,,,,,,,,,,,,,None,None,None,,None,None,492.69302965700626,None,1,1,0.6030672279885039,492.69302965700626,None,493.2914869274944,None,None,None,None,,27,001,2023_Jan_23_1608,searchDisc5,2021.2.3,59.99737091474428,
images/exp2b_trial_298_colour3_distractors1_r.png,r,3,3,1,0,,,,,0,207,207,207,,,,,,,,,,,,,,,,,,,,,,,,,,,,,,,,,,,,,,,,,,,493.31005894904956,None,2,0.2712703869910911,493.31005894904956,None,,,,,,,,,,,,,,,,None,None,None,,None,None,493.6248522810056,None,3,1,0.6893078910070471,493.6248522810056,None,494.3082994065015,None,None,None,None,,27,001,2023_Jan_23_1608,searchDisc5,2021.2.3,59.99737091474428,
images/exp2a_trial_290_colour1_distractors9_r.png,r,3,1,9,0,,,,,0,208,208,208,,,,,,,,,,,,,,,,,,,,,,,,,,,,,,,,,,,,,,,,,,,494.3246586280293,None,2,0.2235501329996623,494.3246586280293,None,,,,,,,,,,,,,,,,None,None,None,,None,None,494.5933362560463,None,3,1,0.6689183569978923,494.5933362560463,None,495.25825675450034,None,None,None,None,,27,001,2023_Jan_23_1608,searchDisc5,2021.2.3,59.99737091474428,
images/exp1a_trial_10_colour3_distractors1_r.png,r,3,3,1,0,,,,,0,209,209,209,,,,,,,,,,,,,,,,,,,,,,,,,,,,,,,,,,,,,,,,,,,495.27426691603614,None,2,0.2566413179738447,495.27426691603614,None,,,,,,,,,,,,,,,,None,None,None,,None,None,495.57483893603785,None,3,1,0.6032515860279091,495.57483893603785,None,496.17471689953237,None,None,None,None,,27,001,2023_Jan_23_1608,searchDisc5,2021.2.3,59.99737091474428,
images/exp2b_trial_319_colour0_distractors0_l.png,l,1,0,0,0,,,,,0,210,210,210,,,,,,,,,,,,,,,,,,,,,,,,,,,,,,,,,,,,,,,,,,,496.1905873690266,None,2,0.25690306001342833,496.1905873690266,None,,,,,,,,,,,,,,,,None,None,None,,None,None,496.49363215704216,None,1,1,0.521090449008625,496.49363215704216,None,497.00844231150114,None,None,None,None,,27,001,2023_Jan_23_1608,searchDisc5,2021.2.3,59.99737091474428,
images/exp1a_trial_105_colour2_distractors31_r.png,r,3,2,31,0,,,,,0,211,211,211,,,,,,,,,,,,,,,,,,,,,,,,,,,,,,,,,,,,,,,,,,,497.02442327700555,None,2,0.2729454069631174,497.02442327700555,None,,,,,,,,,,,,,,,,None,None,None,,None,None,497.3436711630202,None,3,1,0.6317583360360004,497.3436711630202,None,497.9743198145414,None,None,None,None,,27,001,2023_Jan_23_1608,searchDisc5,2021.2.3,59.99737091474428,
images/exp1a_trial_9_colour2_distractors31_r.png,r,3,2,31,0,,,,,0,212,212,212,,,,,,,,,,,,,,,,,,,,,,,,,,,,,,,,,,,,,,,,,,,497.99160640803166,None,2,0.25710686296224594,497.99160640803166,None,,,,,,,,,,,,,,,,None,None,None,,None,None,498.2915943720145,None,3,1,0.5477303900406696,498.2915943720145,None,498.8416543065221,None,None,None,None,,27,001,2023_Jan_23_1608,searchDisc5,2021.2.3,59.99737091474428,
images/exp2c_trial_52_colour2_distractors1_l.png,l,1,2,1,0,,,,,0,213,213,213,,,,,,,,,,,,,,,,,,,,,,,,,,,,,,,,,,,,,,,,,,,498.85744104499463,None,2,0.24010211398126557,498.85744104499463,None,,,,,,,,,,,,,,,,None,None,None,,None,None,499.1437304770225,None,1,1,0.5040283129783347,499.1437304770225,None,499.6421403015382,None,None,None,None,,27,001,2023_Jan_23_1608,searchDisc5,2021.2.3,59.99737091474428,
images/exp2b_trial_116_colour2_distractors1_l.png,l,1,2,1,0,,,,,0,214,214,214,,,,,,,,,,,,,,,,,,,,,,,,,,,,,,,,,,,,,,,,,,,499.65832825703546,None,2,0.27080326300347224,499.65832825703546,None,,,,,,,,,,,,,,,,None,None,None,,None,None,499.97457233502064,None,1,1,0.6061777740251273,499.97457233502064,None,500.574973257503,None,None,None,None,,27,001,2023_Jan_23_1608,searchDisc5,2021.2.3,59.99737091474428,
images/exp2a_trial_265_colour2_distractors31_r.png,r,3,2,31,0,,,,,0,215,215,215,,,,,,,,,,,,,,,,,,,,,,,,,,,,,,,,,,,,,,,,,,,500.5915858010412,None,2,0.3711401949985884,500.5915858010412,None,,,,,,,,,,,,,,,,None,None,None,,None,None,501.007522171014,None,3,1,1.82838877098402,501.007522171014,None,502.8417466115323,None,None,None,None,,27,001,2023_Jan_23_1608,searchDisc5,2021.2.3,59.99737091474428,
images/exp2c_trial_135_colour2_distractors9_r.png,r,3,2,9,0,,,,,0,216,216,216,,,,,,,,,,,,,,,,,,,,,,,,,,,,,,,,,,,,,,,,,,,502.8597921190085,None,2,0.27129559899913147,502.8597921190085,None,,,,,,,,,,,,,,,,None,None,None,,None,None,503.17534359300043,None,3,1,0.6217987579875626,503.17534359300043,None,503.7919405185501,None,None,None,None,,27,001,2023_Jan_23_1608,searchDisc5,2021.2.3,59.99737091474428,
images/exp2b_trial_49_colour1_distractors9_l.png,l,1,1,9,0,,,,,0,217,217,217,,,,,,,,,,,,,,,,,,,,,,,,,,,,,,,,,,,,,,,,,,,503.80813777900767,None,2,0.3043065930251032,503.80813777900767,None,,,,,,,,,,,,,,,,None,None,None,,None,None,504.15847170201596,None,1,1,0.6707121779909357,504.15847170201596,None,504.8251230385038,None,None,None,None,,27,001,2023_Jan_23_1608,searchDisc5,2021.2.3,59.99737091474428,
images/exp2b_trial_82_colour1_distractors19_l.png,l,1,1,19,0,,,,,0,218,218,218,,,,,,,,,,,,,,,,,,,,,,,,,,,,,,,,,,,,,,,,,,,504.84320327901514,None,2,0.2880215979530476,504.84320327901514,None,,,,,,,,,,,,,,,,None,None,None,,None,None,505.1751663950272,None,1,1,0.6035827920422889,505.1751663950272,None,505.7751574275433,None,None,None,None,,27,001,2023_Jan_23_1608,searchDisc5,2021.2.3,59.99737091474428,
images/exp2c_trial_108_colour3_distractors9_r.png,r,3,3,9,0,,,,,0,219,219,219,,,,,,,,,,,,,,,,,,,,,,,,,,,,,,,,,,,,,,,,,,,505.79171009303536,None,2,0.2712659680400975,505.79171009303536,None,,,,,,,,,,,,,,,,None,None,None,,None,None,506.1084654740407,None,3,1,0.7879501879797317,506.1084654740407,None,506.89214460954537,None,None,None,None,,27,001,2023_Jan_23_1608,searchDisc5,2021.2.3,59.99737091474428,
images/exp1a_trial_237_colour3_distractors19_r.png,r,3,3,19,0,,,,,0,220,220,220,,,,,,,,,,,,,,,,,,,,,,,,,,,,,,,,,,,,,,,,,,,506.908036206034,None,2,0.2877128430409357,506.908036206034,None,,,,,,,,,,,,,,,,None,None,None,,None,None,507.2421871620463,None,3,1,0.5517688220134005,507.2421871620463,None,507.7920180665213,None,None,None,None,,27,001,2023_Jan_23_1608,searchDisc5,2021.2.3,59.99737091474428,
images/exp1a_trial_180_colour2_distractors1_l.png,l,1,2,1,0,,,,,0,221,221,221,,,,,,,,,,,,,,,,,,,,,,,,,,,,,,,,,,,,,,,,,,,507.80786346801324,None,2,0.2878275260445662,507.80786346801324,None,,,,,,,,,,,,,,,,None,None,None,,None,None,508.14216143701924,None,1,1,0.5058111189864576,508.14216143701924,None,508.6419138935278,None,None,None,None,,27,001,2023_Jan_23_1608,searchDisc5,2021.2.3,59.99737091474428,
images/exp1a_trial_226_colour1_distractors9_r.png,r,3,1,9,0,,,,,0,222,222,222,,,,,,,,,,,,,,,,,,,,,,,,,,,,,,,,,,,,,,,,,,,508.658431185002,None,2,0.33788267301861197,508.658431185002,None,,,,,,,,,,,,,,,,None,None,None,,None,None,509.0419361210079,None,3,1,0.8363123050075956,509.0419361210079,None,509.8752679395373,None,None,None,None,,27,001,2023_Jan_23_1608,searchDisc5,2021.2.3,59.99737091474428,
images/exp1a_trial_210_colour1_distractors19_l.png,l,1,1,19,0,,,,,0,223,223,223,,,,,,,,,,,,,,,,,,,,,,,,,,,,,,,,,,,,,,,,,,,509.89173828600906,None,2,0.28792568697826937,509.89173828600906,None,,,,,,,,,,,,,,,,None,None,None,,None,None,510.2253169750329,None,1,1,2.051541200024076,510.2253169750329,None,512.2756000424968,None,None,None,None,,27,001,2023_Jan_23_1608,searchDisc5,2021.2.3,59.99737091474428,
images/exp2b_trial_252_colour3_distractors19_l.png,l,1,3,19,0,,,,,0,224,224,224,,,,,,,,,,,,,,,,,,,,,,,,,,,,,,,,,,,,,,,,,,,512.2915910560405,None,2,0.3215531470486894,512.2915910560405,None,,,,,,,,,,,,,,,,None,None,None,,None,None,512.6586110890494,None,1,1,0.8534239500295371,512.6586110890494,None,513.5087656365474,None,None,None,None,,27,001,2023_Jan_23_1608,searchDisc5,2021.2.3,59.99737091474428,
