ImageFile,targ_side,correctAnswer,colour,distNo,targetType,trials_2.thisRepN,trials_2.thisTrialN,trials_2.thisN,trials_2.thisIndex,trials.thisRepN,trials.thisTrialN,trials.thisN,trials.thisIndex,text_6.started,text_6.stopped,buttonBox.keys,buttonBox.rt,buttonBox.started,buttonBox.stopped,text_7.started,text_7.stopped,buttonBox_3.keys,buttonBox_3.rt,buttonBox_3.started,buttonBox_3.stopped,text_8.started,text_8.stopped,buttonBox_4.keys,buttonBox_4.rt,buttonBox_4.started,buttonBox_4.stopped,text_9.started,text_9.stopped,buttonBox_5.keys,buttonBox_5.rt,buttonBox_5.started,buttonBox_5.stopped,text_2.started,text_2.stopped,buttonBox_6.keys,buttonBox_6.rt,buttonBox_6.started,buttonBox_6.stopped,text_5.started,text_5.stopped,buttonBox_7.keys,buttonBox_7.rt,image_2.started,image_2.stopped,image_3.started,image_3.stopped,buttonBox_8.keys,buttonBox_8.rt,buttonBox_8.started,buttonBox_8.stopped,polygon.started,polygon.stopped,buttonBox_9.keys,buttonBox_9.rt,buttonBox_9.started,buttonBox_9.stopped,image.started,image.stopped,buttonBox_10.keys,buttonBox_10.corr,buttonBox_10.rt,buttonBox_10.started,buttonBox_10.stopped,text_4.started,text_4.stopped,text.started,text.stopped,buttonBox_11.keys,buttonBox_11.rt,buttonBox_11.started,buttonBox_11.stopped,targetTypeInstruction.started,targetTypeInstruction.stopped,buttonBox_2.keys,buttonBox_2.rt,buttonBox_2.started,buttonBox_2.stopped,dispStimuli.started,dispStimuli.stopped,buttonBox_12.keys,buttonBox_12.corr,buttonBox_12.rt,buttonBox_12.started,buttonBox_12.stopped,breakMessage.started,breakMessage.stopped,buttonBox_13.keys,buttonBox_13.started,buttonBox_13.stopped,buttonBox_13.rt,participant,session,date,expName,psychopyVersion,frameRate,
,,,,,,,,,,,,,,73.18037705001188,None,2,27.159454817010555,73.18037705001188,None,,,,,,,,,,,,,,,,,,,,,,,,,,,,,,,,,,,,,,,,,,,,,,,,,,,,,,,,,,,,,,,,,,,,,,,,,,,,,28,001,2023_Jan_24_1020,searchDisc5,2021.2.3,60.086442511322566,
,,,,,,,,,,,,,,,,,,,,100.32907761604292,None,2,10.931329948012717,100.32907761604292,None,,,,,,,,,,,,,,,,,,,,,,,,,,,,,,,,,,,,,,,,,,,,,,,,,,,,,,,,,,,,,,,,,,,,,,,28,001,2023_Jan_24_1020,searchDisc5,2021.2.3,60.086442511322566,
,,,,,,,,,,,,,,,,,,,,,,,,,,111.26272379502188,None,2,5.331200405955315,111.26272379502188,None,,,,,,,,,,,,,,,,,,,,,,,,,,,,,,,,,,,,,,,,,,,,,,,,,,,,,,,,,,,,,,,,,28,001,2023_Jan_24_1020,searchDisc5,2021.2.3,60.086442511322566,
,,,,,,,,,,,,,,,,,,,,,,,,,,,,,,,,116.59606462303782,None,2,8.033394981990568,116.59606462303782,None,,,,,,,,,,,,,,,,,,,,,,,,,,,,,,,,,,,,,,,,,,,,,,,,,,,,,,,,,,,28,001,2023_Jan_24_1020,searchDisc5,2021.2.3,60.086442511322566,
,,,,,,,,,,,,,,,,,,,,,,,,,,,,,,,,,,,,,,124.63185189000797,None,2,7.499930439982563,125.61524956504581,None,,,,,,,,,,,,,,,,,,,,,,,,,,,,,,,,,,,,,,,,,,,,,,,,,,,,,28,001,2023_Jan_24_1020,searchDisc5,2021.2.3,60.086442511322566,
,,,,,,,,,,,,,,,,,,,,,,,,,,,,,,,,,,,,,,,,,,,,133.11539865401573,None,2,9.848143815994263,,,,,,,,,,,,,,,,,,,,,,,,,,,,,,,,,,,,,,,,,,,,,,,,,28,001,2023_Jan_24_1020,searchDisc5,2021.2.3,60.086442511322566,
,,,,,,,,,,,,,,,,,,,,,,,,,,,,,,,,,,,,,,,,,,,,,,,,145.9638124780031,None,145.9638124780031,None,2,12.76466901198728,145.9638124780031,None,,,,,,,,,,,,,,,,,,,,,,,,,,,,,,,,,,,,,,,,,28,001,2023_Jan_24_1020,searchDisc5,2021.2.3,60.086442511322566,
Practice arrays/exp1a_trial_31_colour0_distractors0_l.png,l,1,,,,0,0,0,15,,,,,,,,,,,,,,,,,,,,,,,,,,,,,,,,,,,,,,,,,,,,,,,158.76401239301777,None,2,5.183176249964163,158.76401239301777,None,163.99973627604777,None,1,1,2.6734107459778897,163.99973627604777,None,166.66454495600192,None,,,,,,,,,,,,,,,,,,,,,,,,,,28,001,2023_Jan_24_1020,searchDisc5,2021.2.3,60.086442511322566,
Practice arrays/exp1a_trial_16_colour1_distractors4_l.png,l,1,,,,0,1,1,13,,,,,,,,,,,,,,,,,,,,,,,,,,,,,,,,,,,,,,,,,,,,,,,168.6661582509987,None,2,4.230670399963856,168.6661582509987,None,172.9474499390344,None,1,1,2.371076622977853,172.9474499390344,None,175.31456577801146,None,,,,,,,,,,,,,,,,,,,,,,,,,,28,001,2023_Jan_24_1020,searchDisc5,2021.2.3,60.086442511322566,
Practice arrays/exp1a_trial_18_colour1_distractors19_l.png,l,1,,,,0,2,2,8,,,,,,,,,,,,,,,,,,,,,,,,,,,,,,,,,,,,,,,,,,,,,,,177.31617452402133,None,2,7.049180802016053,177.31617452402133,None,184.41684003802948,None,3,0,4.015229893033393,184.41684003802948,None,188.43092953803716,None,,,,,,,,,,,,,,,,,,,,,,,,,,28,001,2023_Jan_24_1020,searchDisc5,2021.2.3,60.086442511322566,
Practice arrays/exp1a_trial_25_colour3_distractors1_l.png,l,1,,,,0,3,3,11,,,,,,,,,,,,,,,,,,,,,,,,,,,,,,,,,,,,,,,,,,,,,,,190.43346656905487,None,2,4.364997369993944,190.43346656905487,None,194.8505891750101,None,1,1,1.9342198070371523,194.8505891750101,None,196.78159925702494,None,,,,,,,,,,,,,,,,,,,,,,,,,,28,001,2023_Jan_24_1020,searchDisc5,2021.2.3,60.086442511322566,
Practice arrays/exp1a_trial_27_colour3_distractors9_l.png,l,1,,,,0,4,4,12,,,,,,,,,,,,,,,,,,,,,,,,,,,,,,,,,,,,,,,,,,,,,,,198.7834440320148,None,2,5.049369421962183,198.7834440320148,None,203.88338066800497,None,1,1,1.5983435059897602,203.88338066800497,None,205.48190243402496,None,,,,,,,,,,,,,,,,,,,,,,,,,,28,001,2023_Jan_24_1020,searchDisc5,2021.2.3,60.086442511322566,
Practice arrays/exp1a_trial_30_colour0_distractors0_r.png,r,3,,,,0,5,5,14,,,,,,,,,,,,,,,,,,,,,,,,,,,,,,,,,,,,,,,,,,,,,,,207.48362770903623,None,2,2.3472423590137623,207.48362770903623,None,209.8844315430033,None,3,1,1.3723095810273662,209.8844315430033,None,211.2486988240271,None,,,,,,,,,,,,,,,,,,,,,,,,,,28,001,2023_Jan_24_1020,searchDisc5,2021.2.3,60.086442511322566,
Practice arrays/exp1a_trial_17_colour1_distractors9_l.png,l,1,,,,0,6,6,7,,,,,,,,,,,,,,,,,,,,,,,,,,,,,,,,,,,,,,,,,,,,,,,213.2506041310262,None,2,2.2138636520248838,213.2506041310262,None,215.51774075103458,None,1,1,0.9352514970232733,215.51774075103458,None,216.44902137701865,None,,,,,,,,,,,,,,,,,,,,,,,,,,28,001,2023_Jan_24_1020,searchDisc5,2021.2.3,60.086442511322566,
Practice arrays/exp1a_trial_0_colour1_distractors1_r.png,r,3,,,,0,7,7,0,,,,,,,,,,,,,,,,,,,,,,,,,,,,,,,,,,,,,,,,,,,,,,,218.4509067730396,None,2,2.7304301490075886,218.4509067730396,None,221.23210640600882,None,3,1,1.671388262999244,221.23210640600882,None,222.89899280300597,None,,,,,,,,,,,,,,,,,,,,,,,,,,28,001,2023_Jan_24_1020,searchDisc5,2021.2.3,60.086442511322566,
Practice arrays/exp1a_trial_7_colour2_distractors9_r.png,r,3,,,,0,8,8,2,,,,,,,,,,,,,,,,,,,,,,,,,,,,,,,,,,,,,,,,,,,,,,,224.90077487804228,None,2,0.047137705027125776,224.90077487804228,None,224.99946584604913,None,3,1,1.335813665005844,224.99946584604913,None,226.33243127301103,None,,,,,,,,,,,,,,,,,,,,,,,,,,28,001,2023_Jan_24_1020,searchDisc5,2021.2.3,60.086442511322566,
Practice arrays/exp1a_trial_12_colour3_distractors9_r.png,r,3,,,,0,9,9,5,,,,,,,,,,,,,,,,,,,,,,,,,,,,,,,,,,,,,,,,,,,,,,,228.3343849320081,None,2,0.6136321779922582,228.3343849320081,None,228.99905566801317,None,3,1,0.8509115899796598,228.99905566801317,None,229.84921684704022,None,,,,,,,,,,,,,,,,,,,,,,,,,,28,001,2023_Jan_24_1020,searchDisc5,2021.2.3,60.086442511322566,
Practice arrays/exp1a_trial_21_colour2_distractors4_l.png,l,1,,,,0,10,10,9,,,,,,,,,,,,,,,,,,,,,,,,,,,,,,,,,,,,,,,,,,,,,,,231.85105649899924,None,2,0.697123215009924,231.85105649899924,None,232.60179251001682,None,1,1,0.7527322589885443,232.60179251001682,None,233.34935811400646,None,,,,,,,,,,,,,,,,,,,,,,,,,,28,001,2023_Jan_24_1020,searchDisc5,2021.2.3,60.086442511322566,
Practice arrays/exp1a_trial_23_colour2_distractors19_l.png,l,1,,,,0,11,11,10,,,,,,,,,,,,,,,,,,,,,,,,,,,,,,,,,,,,,,,,,,,,,,,235.35100921802223,None,2,0.8470891829929315,235.35100921802223,None,236.25129947601818,None,1,1,1.2002961239777505,236.25129947601818,None,237.44933763501467,None,,,,,,,,,,,,,,,,,,,,,,,,,,28,001,2023_Jan_24_1020,searchDisc5,2021.2.3,60.086442511322566,
Practice arrays/exp1a_trial_10_colour3_distractors1_r.png,r,3,,,,0,12,12,4,,,,,,,,,,,,,,,,,,,,,,,,,,,,,,,,,,,,,,,,,,,,,,,239.45158991101198,None,2,1.2806993040139787,239.45158991101198,None,240.78318167704856,None,3,1,1.02169588097604,240.78318167704856,None,241.7996085699997,None,,,,,,,,,,,,,,,,,,,,,,,,,,28,001,2023_Jan_24_1020,searchDisc5,2021.2.3,60.086442511322566,
Practice arrays/exp1a_trial_14_colour3_distractors31_r.png,r,3,,,,0,13,13,6,,,,,,,,,,,,,,,,,,,,,,,,,,,,,,,,,,,,,,,,,,,,,,,243.80119335005293,None,2,1.6330241240211762,243.80119335005293,None,245.48315278004156,None,3,1,0.7476545860408805,245.48315278004156,None,246.23323168500792,None,,,,,,,,,,,,,,,,,,,,,,,,,,28,001,2023_Jan_24_1020,searchDisc5,2021.2.3,60.086442511322566,
Practice arrays/exp1a_trial_1_colour1_distractors4_r.png,r,3,,,,0,14,14,1,,,,,,,,,,,,,,,,,,,,,,,,,,,,,,,,,,,,,,,,,,,,,,,248.23465963103808,None,2,0.8827328030019999,248.23465963103808,None,249.1678759380011,None,3,1,0.8345825680298731,249.1678759380011,None,249.9998054150492,None,,,,,,,,,,,,,,,,,,,,,,,,,,28,001,2023_Jan_24_1020,searchDisc5,2021.2.3,60.086442511322566,
Practice arrays/exp1a_trial_8_colour2_distractors19_r.png,r,3,,,,0,15,15,3,,,,,,,,,,,,,,,,,,,,,,,,,,,,,,,,,,,,,,,,,,,,,,,252.00159008899936,None,2,0.7325479590217583,252.00159008899936,None,252.7829018830089,None,3,1,0.7648389079840854,252.7829018830089,None,253.54997402004665,None,,,,,,,,,,,,,,,,,,,,,,,,,,28,001,2023_Jan_24_1020,searchDisc5,2021.2.3,60.086442511322566,
,,,,,,,,,,,,,,,,,,,,,,,,,,,,,,,,,,,,,,,,,,,,,,,,,,,,,,,,,,,,,,,,,,,,,,,255.63487131003058,None,2,21.31487046397524,256.61858255404513,None,,,,,,,,,,,,,,,,,,,,28,001,2023_Jan_24_1020,searchDisc5,2021.2.3,60.086442511322566,
images/exp2b_trial_303_colour1_distractors1_l.png,l,1,1,1,0,,,,,0,0,0,0,,,,,,,,,,,,,,,,,,,,,,,,,,,,,,,,,,,,,,,,,,,289.0670437790104,None,2,0.11464150599204004,289.0670437790104,None,,,,,,,,,,,,,,,,278.5526996520348,None,2,8.531427382025868,280.5358702520025,None,289.2457686390262,None,1,1,1.411429859988857,289.2457686390262,None,290.6675290224491,None,None,None,None,,28,001,2023_Jan_24_1020,searchDisc5,2021.2.3,60.086442511322566,
images/exp2a_trial_290_colour1_distractors9_r.png,r,3,1,9,0,,,,,0,1,1,1,,,,,,,,,,,,,,,,,,,,,,,,,,,,,,,,,,,,,,,,,,,290.6855380500201,None,2,4.622656030987855,290.6855380500201,None,,,,,,,,,,,,,,,,None,None,None,,None,None,295.3506260070135,None,3,1,1.152571601967793,295.3506260070135,None,296.50096063223316,None,None,None,None,,28,001,2023_Jan_24_1020,searchDisc5,2021.2.3,60.086442511322566,
images/exp2c_trial_152_colour2_distractors31_l.png,l,1,2,31,0,,,,,0,2,2,2,,,,,,,,,,,,,,,,,,,,,,,,,,,,,,,,,,,,,,,,,,,296.51912019902375,None,2,2.2364535719971173,296.51912019902375,None,,,,,,,,,,,,,,,,None,None,None,,None,None,298.8033398940461,None,1,1,0.701170768996235,298.8033398940461,None,299.50103639125007,None,None,None,None,,28,001,2023_Jan_24_1020,searchDisc5,2021.2.3,60.086442511322566,
images/exp2c_trial_252_colour3_distractors19_l.png,l,1,3,19,0,,,,,0,3,3,3,,,,,,,,,,,,,,,,,,,,,,,,,,,,,,,,,,,,,,,,,,,299.51904161804123,None,2,1.7361809780122712,299.51904161804123,None,,,,,,,,,,,,,,,,None,None,None,,None,None,301.301388092048,None,1,1,0.7706555349868722,301.301388092048,None,302.06764188822706,None,None,None,None,,28,001,2023_Jan_24_1020,searchDisc5,2021.2.3,60.086442511322566,
images/exp1a_trial_307_colour1_distractors31_l.png,l,1,1,31,0,,,,,0,4,4,4,,,,,,,,,,,,,,,,,,,,,,,,,,,,,,,,,,,,,,,,,,,302.0864203500096,None,2,2.35268916800851,302.0864203500096,None,,,,,,,,,,,,,,,,None,None,None,,None,None,304.4863713890081,None,1,1,0.9984346409910358,304.4863713890081,None,305.4844899982039,None,None,None,None,,28,001,2023_Jan_24_1020,searchDisc5,2021.2.3,60.086442511322566,
images/exp1a_trial_39_colour2_distractors9_r.png,r,3,2,9,0,,,,,0,5,5,5,,,,,,,,,,,,,,,,,,,,,,,,,,,,,,,,,,,,,,,,,,,305.5011735660373,None,2,2.253480595012661,305.5011735660373,None,,,,,,,,,,,,,,,,None,None,None,,None,None,307.80167902004905,None,3,1,0.8022123950067908,307.80167902004905,None,308.6014911062142,None,None,None,None,,28,001,2023_Jan_24_1020,searchDisc5,2021.2.3,60.086442511322566,
images/exp2c_trial_311_colour2_distractors19_l.png,l,1,2,19,0,,,,,0,6,6,6,,,,,,,,,,,,,,,,,,,,,,,,,,,,,,,,,,,,,,,,,,,308.61778572702315,None,2,2.503321385011077,308.61778572702315,None,,,,,,,,,,,,,,,,None,None,None,,None,None,311.16832779400283,None,1,1,0.7522523020161316,311.16832779400283,None,311.9182169032341,None,None,None,None,,28,001,2023_Jan_24_1020,searchDisc5,2021.2.3,60.086442511322566,
images/exp2c_trial_2_colour1_distractors9_r.png,r,3,1,9,0,,,,,0,7,7,7,,,,,,,,,,,,,,,,,,,,,,,,,,,,,,,,,,,,,,,,,,,311.93410398002015,None,2,2.3562346709659323,311.93410398002015,None,,,,,,,,,,,,,,,,None,None,None,,None,None,314.33733760903124,None,3,1,0.7676692419918254,314.33733760903124,None,315.10135650623704,None,None,None,None,,28,001,2023_Jan_24_1020,searchDisc5,2021.2.3,60.086442511322566,
images/exp2b_trial_292_colour1_distractors31_r.png,r,3,1,31,0,,,,,0,8,8,8,,,,,,,,,,,,,,,,,,,,,,,,,,,,,,,,,,,,,,,,,,,315.12009108799975,None,2,1.8229927739594132,315.12009108799975,None,,,,,,,,,,,,,,,,None,None,None,,None,None,316.9869747570483,None,3,1,1.1313461249810643,316.9869747570483,None,318.1180997292453,None,None,None,None,,28,001,2023_Jan_24_1020,searchDisc5,2021.2.3,60.086442511322566,
images/exp1a_trial_117_colour2_distractors4_l.png,l,1,2,4,0,,,,,0,9,9,9,,,,,,,,,,,,,,,,,,,,,,,,,,,,,,,,,,,,,,,,,,,318.13483770703897,None,2,2.2588529780041426,318.13483770703897,None,,,,,,,,,,,,,,,,None,None,None,,None,None,320.4375727529987,None,1,1,0.9318900009966455,320.4375727529987,None,321.36799476721205,None,None,None,None,,28,001,2023_Jan_24_1020,searchDisc5,2021.2.3,60.086442511322566,
images/exp2a_trial_108_colour3_distractors9_r.png,r,3,3,9,0,,,,,0,10,10,10,,,,,,,,,,,,,,,,,,,,,,,,,,,,,,,,,,,,,,,,,,,321.3869190720143,None,2,3.604665963037405,321.3869190720143,None,,,,,,,,,,,,,,,,None,None,None,,None,None,325.03534608799964,None,3,1,0.7866514609777369,325.03534608799964,None,325.8186516952177,None,None,None,None,,28,001,2023_Jan_24_1020,searchDisc5,2021.2.3,60.086442511322566,
images/exp2c_trial_168_colour2_distractors19_r.png,r,3,2,19,0,,,,,0,11,11,11,,,,,,,,,,,,,,,,,,,,,,,,,,,,,,,,,,,,,,,,,,,325.83523489604704,None,2,2.670702366041951,325.83523489604704,None,,,,,,,,,,,,,,,,None,None,None,,None,None,328.55227783101145,None,3,1,0.8853646030183882,328.55227783101145,None,329.43510188622747,None,None,None,None,,28,001,2023_Jan_24_1020,searchDisc5,2021.2.3,60.086442511322566,
images/exp2c_trial_248_colour2_distractors31_l.png,l,1,2,31,0,,,,,0,12,12,12,,,,,,,,,,,,,,,,,,,,,,,,,,,,,,,,,,,,,,,,,,,329.4519248770084,None,2,2.5558169159921817,329.4519248770084,None,,,,,,,,,,,,,,,,None,None,None,,None,None,332.0522496449994,None,1,1,0.8326100610429421,332.0522496449994,None,332.88444603823007,None,None,None,None,,28,001,2023_Jan_24_1020,searchDisc5,2021.2.3,60.086442511322566,
images/exp2a_trial_228_colour1_distractors31_r.png,r,3,1,31,0,,,,,0,13,13,13,,,,,,,,,,,,,,,,,,,,,,,,,,,,,,,,,,,,,,,,,,,332.90153491304955,None,2,3.2550574699998833,332.90153491304955,None,,,,,,,,,,,,,,,,None,None,None,,None,None,336.2044839870068,None,3,1,1.0175578230409883,336.2044839870068,None,337.2186156702286,None,None,None,None,,28,001,2023_Jan_24_1020,searchDisc5,2021.2.3,60.086442511322566,
images/exp2a_trial_65_colour1_distractors4_r.png,r,3,1,4,0,,,,,0,14,14,14,,,,,,,,,,,,,,,,,,,,,,,,,,,,,,,,,,,,,,,,,,,337.23508273402695,None,2,2.304371344973333,337.23508273402695,None,,,,,,,,,,,,,,,,None,None,None,,None,None,339.5858941960032,None,3,1,0.8042285920237191,339.5858941960032,None,340.3855829112057,None,None,None,None,,28,001,2023_Jan_24_1020,searchDisc5,2021.2.3,60.086442511322566,
images/exp1a_trial_89_colour3_distractors1_l.png,l,1,3,1,0,,,,,0,15,15,15,,,,,,,,,,,,,,,,,,,,,,,,,,,,,,,,,,,,,,,,,,,340.4022225830122,None,2,2.5873087279614992,340.4022225830122,None,,,,,,,,,,,,,,,,None,None,None,,None,None,343.03773357201135,None,1,1,0.7041994539904408,343.03773357201135,None,343.7355290882464,None,None,None,None,,28,001,2023_Jan_24_1020,searchDisc5,2021.2.3,60.086442511322566,
images/exp2b_trial_38_colour2_distractors4_r.png,r,3,2,4,0,,,,,0,16,16,16,,,,,,,,,,,,,,,,,,,,,,,,,,,,,,,,,,,,,,,,,,,343.75147285399726,None,2,2.387346201983746,343.75147285399726,None,,,,,,,,,,,,,,,,None,None,None,,None,None,346.18740749103017,None,3,1,0.5541432420141064,346.18740749103017,None,346.7358106751984,None,None,None,None,,28,001,2023_Jan_24_1020,searchDisc5,2021.2.3,60.086442511322566,
images/exp2c_trial_219_colour3_distractors9_l.png,l,1,3,9,0,,,,,0,17,17,17,,,,,,,,,,,,,,,,,,,,,,,,,,,,,,,,,,,,,,,,,,,346.752474058012,None,2,2.3541518569691107,346.752474058012,None,,,,,,,,,,,,,,,,None,None,None,,None,None,349.1539547840366,None,1,1,0.6704284999868833,349.1539547840366,None,349.8190588792262,None,None,None,None,,28,001,2023_Jan_24_1020,searchDisc5,2021.2.3,60.086442511322566,
images/exp1a_trial_154_colour3_distractors4_l.png,l,1,3,4,0,,,,,0,18,18,18,,,,,,,,,,,,,,,,,,,,,,,,,,,,,,,,,,,,,,,,,,,349.8353818540345,None,2,1.6867885389947332,349.8353818540345,None,,,,,,,,,,,,,,,,None,None,None,,None,None,351.56892651104135,None,1,1,0.5870378619874828,351.56892651104135,None,352.1524432282371,None,None,None,None,,28,001,2023_Jan_24_1020,searchDisc5,2021.2.3,60.086442511322566,
images/exp2b_trial_235_colour3_distractors4_r.png,r,3,3,4,0,,,,,0,19,19,19,,,,,,,,,,,,,,,,,,,,,,,,,,,,,,,,,,,,,,,,,,,352.1688555730507,None,2,1.80443059199024,352.1688555730507,None,,,,,,,,,,,,,,,,None,None,None,,None,None,354.0186744850362,None,3,1,0.6372169909882359,354.0186744850362,None,354.6524433202052,None,None,None,None,,28,001,2023_Jan_24_1020,searchDisc5,2021.2.3,60.086442511322566,
images/exp2a_trial_30_colour0_distractors0_r.png,r,3,0,0,0,,,,,0,20,20,20,,,,,,,,,,,,,,,,,,,,,,,,,,,,,,,,,,,,,,,,,,,354.66919121402316,None,2,1.8733293110271916,354.66919121402316,None,,,,,,,,,,,,,,,,None,None,None,,None,None,356.58791004202794,None,3,1,0.66902959800791,356.58791004202794,None,357.25253649021613,None,None,None,None,,28,001,2023_Jan_24_1020,searchDisc5,2021.2.3,60.086442511322566,
images/exp2a_trial_47_colour1_distractors1_l.png,l,1,1,1,0,,,,,0,21,21,21,,,,,,,,,,,,,,,,,,,,,,,,,,,,,,,,,,,,,,,,,,,357.26904738205485,None,2,1.970968260022346,357.26904738205485,None,,,,,,,,,,,,,,,,None,None,None,,None,None,359.287887160026,None,1,1,0.9044940010062419,359.287887160026,None,360.18596103124435,None,None,None,None,,28,001,2023_Jan_24_1020,searchDisc5,2021.2.3,60.086442511322566,
images/exp2c_trial_93_colour3_distractors31_l.png,l,1,3,31,0,,,,,0,22,22,22,,,,,,,,,,,,,,,,,,,,,,,,,,,,,,,,,,,,,,,,,,,360.2024826540146,None,2,2.121222325018607,360.2024826540146,None,,,,,,,,,,,,,,,,None,None,None,,None,None,362.36967352201464,None,1,1,1.31779187702341,362.36967352201464,None,363.68611123919834,None,None,None,None,,28,001,2023_Jan_24_1020,searchDisc5,2021.2.3,60.086442511322566,
images/exp2a_trial_78_colour3_distractors31_r.png,r,3,3,31,0,,,,,0,23,23,23,,,,,,,,,,,,,,,,,,,,,,,,,,,,,,,,,,,,,,,,,,,363.70272417902015,None,2,1.9210754000232555,363.70272417902015,None,,,,,,,,,,,,,,,,None,None,None,,None,None,365.6694733379991,None,3,1,0.7487069680355489,365.6694733379991,None,366.4188924442336,None,None,None,None,,28,001,2023_Jan_24_1020,searchDisc5,2021.2.3,60.086442511322566,
images/exp1a_trial_170_colour3_distractors1_r.png,r,3,3,1,0,,,,,0,24,24,24,,,,,,,,,,,,,,,,,,,,,,,,,,,,,,,,,,,,,,,,,,,366.4364979410311,None,2,1.7382468709838577,366.4364979410311,None,,,,,,,,,,,,,,,,None,None,None,,None,None,368.2195464920369,None,3,1,1.1034409730345942,368.2195464920369,None,369.3187114352535,None,None,None,None,,28,001,2023_Jan_24_1020,searchDisc5,2021.2.3,60.086442511322566,
images/exp2b_trial_183_colour2_distractors19_l.png,l,1,2,19,0,,,,,0,25,25,25,,,,,,,,,,,,,,,,,,,,,,,,,,,,,,,,,,,,,,,,,,,369.3361892470275,None,2,2.1551742529845797,369.3361892470275,None,,,,,,,,,,,,,,,,None,None,None,,None,None,371.53641696902923,None,1,1,0.8517836030223407,371.53641696902923,None,372.38627142320036,None,None,None,None,,28,001,2023_Jan_24_1020,searchDisc5,2021.2.3,60.086442511322566,
images/exp2a_trial_215_colour2_distractors19_l.png,l,1,2,19,0,,,,,0,26,26,26,,,,,,,,,,,,,,,,,,,,,,,,,,,,,,,,,,,,,,,,,,,372.4026063460042,None,2,1.9543064389727078,372.4026063460042,None,,,,,,,,,,,,,,,,None,None,None,,None,None,374.4028190210229,None,1,1,1.5304800660233013,374.4028190210229,None,375.9363045532431,None,None,None,None,,28,001,2023_Jan_24_1020,searchDisc5,2021.2.3,60.086442511322566,
images/exp2b_trial_113_colour1_distractors9_l.png,l,1,1,9,0,,,,,0,27,27,27,,,,,,,,,,,,,,,,,,,,,,,,,,,,,,,,,,,,,,,,,,,375.9527268570382,None,2,1.7562061159987934,375.9527268570382,None,,,,,,,,,,,,,,,,None,None,None,,None,None,377.7532936280477,None,1,1,0.9846251929993741,377.7532936280477,None,378.73613072222213,None,None,None,None,,28,001,2023_Jan_24_1020,searchDisc5,2021.2.3,60.086442511322566,
images/exp2c_trial_147_colour1_distractors31_l.png,l,1,1,31,0,,,,,0,28,28,28,,,,,,,,,,,,,,,,,,,,,,,,,,,,,,,,,,,,,,,,,,,378.75513800099725,None,2,1.3376761360559613,378.75513800099725,None,,,,,,,,,,,,,,,,None,None,None,,None,None,380.1367400640156,None,1,1,0.7508932040072978,380.1367400640156,None,380.8859145202499,None,None,None,None,,28,001,2023_Jan_24_1020,searchDisc5,2021.2.3,60.086442511322566,
images/exp2a_trial_10_colour3_distractors1_r.png,r,3,3,1,0,,,,,0,29,29,29,,,,,,,,,,,,,,,,,,,,,,,,,,,,,,,,,,,,,,,,,,,380.9031781820231,None,2,1.588488849985879,380.9031781820231,None,,,,,,,,,,,,,,,,None,None,None,,None,None,382.5365612010355,None,3,1,1.0709765719948336,382.5365612010355,None,383.60319798923445,None,None,None,None,,28,001,2023_Jan_24_1020,searchDisc5,2021.2.3,60.086442511322566,
images/exp2b_trial_193_colour1_distractors4_r.png,r,3,1,4,0,,,,,0,30,30,30,,,,,,,,,,,,,,,,,,,,,,,,,,,,,,,,,,,,,,,,,,,383.61945373401977,None,2,1.2213153169723228,383.61945373401977,None,,,,,,,,,,,,,,,,None,None,None,,None,None,384.8889494520263,None,3,1,0.9707534809713252,384.8889494520263,None,385.85340096022117,None,None,None,None,,28,001,2023_Jan_24_1020,searchDisc5,2021.2.3,60.086442511322566,
images/exp2b_trial_270_colour3_distractors31_r.png,r,3,3,31,0,,,,,0,31,31,31,,,,,,,,,,,,,,,,,,,,,,,,,,,,,,,,,,,,,,,,,,,385.86996256699786,None,2,1.8710154820000753,385.86996256699786,None,,,,,,,,,,,,,,,,None,None,None,,None,None,387.7868722230196,None,3,1,1.1025357950129546,387.7868722230196,None,388.88685634424326,None,None,None,None,,28,001,2023_Jan_24_1020,searchDisc5,2021.2.3,60.086442511322566,
images/exp2c_trial_130_colour1_distractors9_r.png,r,3,1,9,0,,,,,0,32,32,32,,,,,,,,,,,,,,,,,,,,,,,,,,,,,,,,,,,,,,,,,,,388.9034543680027,None,2,1.3398974310257472,388.9034543680027,None,,,,,,,,,,,,,,,,None,None,None,,None,None,390.2869572020136,None,3,1,1.0670216690050438,390.2869572020136,None,391.35332403320933,None,None,None,None,,28,001,2023_Jan_24_1020,searchDisc5,2021.2.3,60.086442511322566,
images/exp1a_trial_192_colour1_distractors1_r.png,r,3,1,1,0,,,,,0,33,33,33,,,,,,,,,,,,,,,,,,,,,,,,,,,,,,,,,,,,,,,,,,,391.3701549300458,None,2,2.0250581180443987,391.3701549300458,None,,,,,,,,,,,,,,,,None,None,None,,None,None,393.4393545820494,None,3,1,0.8001258909935132,393.4393545820494,None,394.23688537220585,None,None,None,None,,28,001,2023_Jan_24_1020,searchDisc5,2021.2.3,60.086442511322566,
images/exp2c_trial_224_colour1_distractors1_r.png,r,3,1,1,0,,,,,0,34,34,34,,,,,,,,,,,,,,,,,,,,,,,,,,,,,,,,,,,,,,,,,,,394.25329937803326,None,2,1.2545492249773815,394.25329937803326,None,,,,,,,,,,,,,,,,None,None,None,,None,None,395.5553118370008,None,3,1,1.1556737310020253,395.5553118370008,None,396.7035839931981,None,None,None,None,,28,001,2023_Jan_24_1020,searchDisc5,2021.2.3,60.086442511322566,
images/exp2b_trial_79_colour1_distractors1_l.png,l,1,1,1,0,,,,,0,35,35,35,,,,,,,,,,,,,,,,,,,,,,,,,,,,,,,,,,,,,,,,,,,396.7201402190258,None,2,1.221081088995561,396.7201402190258,None,,,,,,,,,,,,,,,,None,None,None,,None,None,397.98924941400765,None,1,1,1.0045384830445983,397.98924941400765,None,398.98703113623776,None,None,None,None,,28,001,2023_Jan_24_1020,searchDisc5,2021.2.3,60.086442511322566,
images/exp1a_trial_52_colour2_distractors1_l.png,l,1,2,1,0,,,,,0,36,36,36,,,,,,,,,,,,,,,,,,,,,,,,,,,,,,,,,,,,,,,,,,,399.00327031104825,None,2,3.206697907007765,399.00327031104825,None,,,,,,,,,,,,,,,,None,None,None,,None,None,402.25565987004666,None,1,1,0.6190949890296906,402.25565987004666,None,402.8703403152234,None,None,None,None,,28,001,2023_Jan_24_1020,searchDisc5,2021.2.3,60.086442511322566,
images/exp1a_trial_298_colour3_distractors1_r.png,r,3,3,1,0,,,,,0,37,37,37,,,,,,,,,,,,,,,,,,,,,,,,,,,,,,,,,,,,,,,,,,,402.8871416260372,None,2,1.8209630490164272,402.8871416260372,None,,,,,,,,,,,,,,,,None,None,None,,None,None,404.75343405804597,None,3,1,1.204148301971145,404.75343405804597,None,405.9538393312308,None,None,None,None,,28,001,2023_Jan_24_1020,searchDisc5,2021.2.3,60.086442511322566,
images/exp2b_trial_279_colour2_distractors19_l.png,l,1,2,19,0,,,,,0,38,38,38,,,,,,,,,,,,,,,,,,,,,,,,,,,,,,,,,,,,,,,,,,,405.97035253205104,None,2,1.5546039690379985,405.97035253205104,None,,,,,,,,,,,,,,,,None,None,None,,None,None,407.57282252801815,None,1,1,0.8012782300356776,407.57282252801815,None,408.3701300572196,None,None,None,None,,28,001,2023_Jan_24_1020,searchDisc5,2021.2.3,60.086442511322566,
images/exp1a_trial_10_colour3_distractors1_r.png,r,3,3,1,0,,,,,0,39,39,39,,,,,,,,,,,,,,,,,,,,,,,,,,,,,,,,,,,,,,,,,,,408.38660482602427,None,2,1.5051593870157376,408.38660482602427,None,,,,,,,,,,,,,,,,None,None,None,,None,None,409.93948026001453,None,3,1,0.9699757379712537,409.93948026001453,None,410.9039490832423,None,None,None,None,,28,001,2023_Jan_24_1020,searchDisc5,2021.2.3,60.086442511322566,
images/exp2a_trial_119_colour2_distractors19_l.png,l,1,2,19,0,,,,,0,40,40,40,,,,,,,,,,,,,,,,,,,,,,,,,,,,,,,,,,,,,,,,,,,410.9204854860436,None,2,0.7709461060003377,410.9204854860436,None,,,,,,,,,,,,,,,,None,None,None,,None,None,411.74211666104384,None,1,1,0.7291861049598083,411.74211666104384,None,412.47097067023276,None,None,None,None,,28,001,2023_Jan_24_1020,searchDisc5,2021.2.3,60.086442511322566,
images/exp2a_trial_183_colour2_distractors19_l.png,l,1,2,19,0,,,,,0,41,41,41,,,,,,,,,,,,,,,,,,,,,,,,,,,,,,,,,,,,,,,,,,,412.4871796220541,None,2,0.7376612079679035,412.4871796220541,None,,,,,,,,,,,,,,,,None,None,None,,None,None,413.27374526904896,None,1,1,1.1640087849809788,413.27374526904896,None,414.4374601022049,None,None,None,None,,28,001,2023_Jan_24_1020,searchDisc5,2021.2.3,60.086442511322566,
images/exp2c_trial_101_colour2_distractors1_r.png,r,3,2,1,0,,,,,0,42,42,42,,,,,,,,,,,,,,,,,,,,,,,,,,,,,,,,,,,,,,,,,,,414.4538230470498,None,2,4.25617617595708,414.4538230470498,None,,,,,,,,,,,,,,,,None,None,None,,None,None,418.7546344050206,None,3,1,0.9045392830157652,418.7546344050206,None,419.6543944272038,None,None,None,None,,28,001,2023_Jan_24_1020,searchDisc5,2021.2.3,60.086442511322566,
images/exp2c_trial_153_colour3_distractors1_l.png,l,1,3,1,0,,,,,0,43,43,43,,,,,,,,,,,,,,,,,,,,,,,,,,,,,,,,,,,,,,,,,,,419.67013925203355,None,2,3.0071152129676193,419.67013925203355,None,,,,,,,,,,,,,,,,None,None,None,,None,None,422.72286513005383,None,1,1,0.8337771549704485,422.72286513005383,None,423.5543211082171,None,None,None,None,,28,001,2023_Jan_24_1020,searchDisc5,2021.2.3,60.086442511322566,
images/exp2c_trial_162_colour1_distractors9_r.png,r,3,1,9,0,,,,,0,44,44,44,,,,,,,,,,,,,,,,,,,,,,,,,,,,,,,,,,,,,,,,,,,423.57116469502216,None,2,2.17060653102817,423.57116469502216,None,,,,,,,,,,,,,,,,None,None,None,,None,None,425.7901412490173,None,3,1,0.6532736730296165,425.7901412490173,None,426.4379613152181,None,None,None,None,,28,001,2023_Jan_24_1020,searchDisc5,2021.2.3,60.086442511322566,
images/exp2b_trial_118_colour2_distractors9_l.png,l,1,2,9,0,,,,,0,45,45,45,,,,,,,,,,,,,,,,,,,,,,,,,,,,,,,,,,,,,,,,,,,426.45454635005444,None,2,1.7894324559601955,426.45454635005444,None,,,,,,,,,,,,,,,,None,None,None,,None,None,428.2901661430369,None,1,1,0.6511344889877364,428.2901661430369,None,428.9378147222509,None,None,None,None,,28,001,2023_Jan_24_1020,searchDisc5,2021.2.3,60.086442511322566,
images/exp2b_trial_52_colour2_distractors1_l.png,l,1,2,1,0,,,,,0,46,46,46,,,,,,,,,,,,,,,,,,,,,,,,,,,,,,,,,,,,,,,,,,,428.95451927703107,None,2,1.9898816850036383,428.95451927703107,None,,,,,,,,,,,,,,,,None,None,None,,None,None,430.9899451500387,None,1,1,1.4188881600275636,430.9899451500387,None,432.40442309121715,None,None,None,None,,28,001,2023_Jan_24_1020,searchDisc5,2021.2.3,60.086442511322566,
images/exp2b_trial_3_colour1_distractors19_r.png,r,3,1,19,0,,,,,0,47,47,47,,,,,,,,,,,,,,,,,,,,,,,,,,,,,,,,,,,,,,,,,,,432.4212684020167,None,2,4.406682749046013,432.4212684020167,None,,,,,,,,,,,,,,,,None,None,None,,None,None,436.8737123180181,None,3,1,0.932775329973083,436.8737123180181,None,437.8040641612082,None,None,None,None,,28,001,2023_Jan_24_1020,searchDisc5,2021.2.3,60.086442511322566,
images/exp2b_trial_197_colour2_distractors1_r.png,r,3,2,1,0,,,,,0,48,48,48,,,,,,,,,,,,,,,,,,,,,,,,,,,,,,,,,,,,,,,,,,,437.8229898230056,None,2,1.8748636869713664,437.8229898230056,None,,,,,,,,,,,,,,,,None,None,None,,None,None,439.7400297600543,None,3,1,0.8506203239667229,439.7400297600543,None,440.58808247425475,None,None,None,None,,28,001,2023_Jan_24_1020,searchDisc5,2021.2.3,60.086442511322566,
images/exp2c_trial_226_colour1_distractors9_r.png,r,3,1,9,0,,,,,0,49,49,49,,,,,,,,,,,,,,,,,,,,,,,,,,,,,,,,,,,,,,,,,,,440.60434829903534,None,2,1.9407531180186197,440.60434829903534,None,,,,,,,,,,,,,,,,None,None,None,,None,None,442.5901835030527,None,3,1,0.7825703349662945,442.5901835030527,None,443.3716273952217,None,None,None,None,,28,001,2023_Jan_24_1020,searchDisc5,2021.2.3,60.086442511322566,
images/exp2c_trial_136_colour2_distractors19_r.png,r,3,2,19,0,,,,,0,50,50,50,,,,,,,,,,,,,,,,,,,,,,,,,,,,,,,,,,,,,,,,,,,443.38808846403845,None,2,1.8528470419696532,443.38808846403845,None,,,,,,,,,,,,,,,,None,None,None,,None,None,445.2883838179987,None,3,1,0.6672449530451559,445.2883838179987,None,445.95497569523866,None,None,None,None,,28,001,2023_Jan_24_1020,searchDisc5,2021.2.3,60.086442511322566,
images/exp2a_trial_25_colour3_distractors1_l.png,l,1,3,1,0,,,,,0,51,51,51,,,,,,,,,,,,,,,,,,,,,,,,,,,,,,,,,,,,,,,,,,,445.9736436890089,None,2,1.6726961819804274,445.9736436890089,None,,,,,,,,,,,,,,,,None,None,None,,None,None,447.68816992401844,None,1,1,0.8871485500130802,447.68816992401844,None,448.57190246822427,None,None,None,None,,28,001,2023_Jan_24_1020,searchDisc5,2021.2.3,60.086442511322566,
images/exp2c_trial_112_colour1_distractors4_l.png,l,1,1,4,0,,,,,0,52,52,52,,,,,,,,,,,,,,,,,,,,,,,,,,,,,,,,,,,,,,,,,,,448.58829163503833,None,2,3.270867498998996,448.58829163503833,None,,,,,,,,,,,,,,,,None,None,None,,None,None,451.9075388479978,None,1,1,0.8197866970440373,451.9075388479978,None,452.7218439702468,None,None,None,None,,28,001,2023_Jan_24_1020,searchDisc5,2021.2.3,60.086442511322566,
images/exp1a_trial_238_colour3_distractors31_r.png,r,3,3,31,0,,,,,0,53,53,53,,,,,,,,,,,,,,,,,,,,,,,,,,,,,,,,,,,,,,,,,,,452.73839052504627,None,2,3.2876749580027536,452.73839052504627,None,,,,,,,,,,,,,,,,None,None,None,,None,None,456.0721561399987,None,3,1,0.799120306968689,456.0721561399987,None,456.8718847442127,None,None,None,None,,28,001,2023_Jan_24_1020,searchDisc5,2021.2.3,60.086442511322566,
images/exp1a_trial_182_colour2_distractors9_l.png,l,1,2,9,0,,,,,0,54,54,54,,,,,,,,,,,,,,,,,,,,,,,,,,,,,,,,,,,,,,,,,,,456.8883505590493,None,2,2.1044663839857094,456.8883505590493,None,,,,,,,,,,,,,,,,None,None,None,,None,None,459.03871149301995,None,1,1,1.568005584005732,459.03871149301995,None,460.60524137924074,None,None,None,None,,28,001,2023_Jan_24_1020,searchDisc5,2021.2.3,60.086442511322566,
images/exp2c_trial_37_colour2_distractors1_r.png,r,3,2,1,0,,,,,0,55,55,55,,,,,,,,,,,,,,,,,,,,,,,,,,,,,,,,,,,,,,,,,,,460.6218778010225,None,2,1.6206051799817942,460.6218778010225,None,,,,,,,,,,,,,,,,None,None,None,,None,None,462.28813954401994,None,3,1,0.8726292949868366,462.28813954401994,None,463.1553046472312,None,None,None,None,,28,001,2023_Jan_24_1020,searchDisc5,2021.2.3,60.086442511322566,
images/exp1a_trial_118_colour2_distractors9_l.png,l,1,2,9,0,,,,,0,56,56,56,,,,,,,,,,,,,,,,,,,,,,,,,,,,,,,,,,,,,,,,,,,463.1722988880356,None,2,1.8710907939821482,463.1722988880356,None,,,,,,,,,,,,,,,,None,None,None,,None,None,465.0910323280259,None,1,1,1.1682981789926998,465.0910323280259,None,466.2553880122199,None,None,None,None,,28,001,2023_Jan_24_1020,searchDisc5,2021.2.3,60.086442511322566,
images/exp1a_trial_234_colour3_distractors1_r.png,r,3,3,1,0,,,,,0,57,57,57,,,,,,,,,,,,,,,,,,,,,,,,,,,,,,,,,,,,,,,,,,,466.27173081302317,None,2,2.4066842279862612,466.27173081302317,None,,,,,,,,,,,,,,,,None,None,None,,None,None,468.7226002080133,None,3,1,0.6333857740391977,468.7226002080133,None,469.3556125022063,None,None,None,None,,28,001,2023_Jan_24_1020,searchDisc5,2021.2.3,60.086442511322566,
images/exp1a_trial_281_colour3_distractors1_l.png,l,1,3,1,0,,,,,0,58,58,58,,,,,,,,,,,,,,,,,,,,,,,,,,,,,,,,,,,,,,,,,,,469.37210382003104,None,2,2.2898731459863484,469.37210382003104,None,,,,,,,,,,,,,,,,None,None,None,,None,None,471.707750193018,None,1,1,1.019797153014224,471.707750193018,None,472.72222054424344,None,None,None,None,,28,001,2023_Jan_24_1020,searchDisc5,2021.2.3,60.086442511322566,
images/exp2c_trial_253_colour3_distractors31_l.png,l,1,3,31,0,,,,,0,59,59,59,,,,,,,,,,,,,,,,,,,,,,,,,,,,,,,,,,,,,,,,,,,472.74080968805356,None,2,2.1545057549956255,472.74080968805356,None,,,,,,,,,,,,,,,,None,None,None,,None,None,474.9391946400283,None,1,1,0.9185426430194639,474.9391946400283,None,475.8553159312054,None,None,None,None,,28,001,2023_Jan_24_1020,searchDisc5,2021.2.3,60.086442511322566,
images/exp2b_trial_157_colour3_distractors31_l.png,l,1,3,31,0,,,,,0,60,60,60,,,,,,,,,,,,,,,,,,,,,,,,,,,,,,,,,,,,,,,,,,,475.8720263840514,None,2,2.4544118840130977,475.8720263840514,None,,,,,,,,,,,,,,,,None,None,None,,None,None,478.3726047180244,None,1,1,0.7214905580040067,478.3726047180244,None,479.0892812492151,None,None,None,None,,28,001,2023_Jan_24_1020,searchDisc5,2021.2.3,60.086442511322566,
images/exp2a_trial_44_colour3_distractors9_r.png,r,3,3,9,0,,,,,0,61,61,61,,,,,,,,,,,,,,,,,,,,,,,,,,,,,,,,,,,,,,,,,,,479.10784366203006,None,2,2.8015080960467458,479.10784366203006,None,,,,,,,,,,,,,,,,None,None,None,,None,None,481.9560707240016,None,3,1,0.8387583299772814,481.9560707240016,None,482.78930801322565,None,None,None,None,,28,001,2023_Jan_24_1020,searchDisc5,2021.2.3,60.086442511322566,
images/exp2a_trial_220_colour3_distractors19_l.png,l,1,3,19,0,,,,,0,62,62,62,,,,,,,,,,,,,,,,,,,,,,,,,,,,,,,,,,,,,,,,,,,482.8060801390093,None,2,2.4684891999932006,482.8060801390093,None,,,,,,,,,,,,,,,,None,None,None,,None,None,485.3228291380219,None,1,1,0.7664156219689175,485.3228291380219,None,486.0893442352011,None,None,None,None,,28,001,2023_Jan_24_1020,searchDisc5,2021.2.3,60.086442511322566,
images/exp2b_trial_301_colour3_distractors19_r.png,r,3,3,19,0,,,,,0,63,63,63,,,,,,,,,,,,,,,,,,,,,,,,,,,,,,,,,,,,,,,,,,,486.10610097902827,None,2,1.9895196679863147,486.10610097902827,None,,,,,,,,,,,,,,,,None,None,None,,None,None,488.1412826840533,None,3,1,0.9336044190567918,488.1412826840533,None,489.0728333942301,None,None,None,None,,28,001,2023_Jan_24_1020,searchDisc5,2021.2.3,60.086442511322566,
images/exp2b_trial_271_colour1_distractors1_l.png,l,1,1,1,0,,,,,0,64,64,64,,,,,,,,,,,,,,,,,,,,,,,,,,,,,,,,,,,,,,,,,,,489.0912979390123,None,2,1.78783609502716,489.0912979390123,None,,,,,,,,,,,,,,,,None,None,None,,None,None,490.92520922404947,None,1,1,0.7720618950552307,490.92520922404947,None,491.68967673322766,None,None,None,None,,28,001,2023_Jan_24_1020,searchDisc5,2021.2.3,60.086442511322566,
images/exp2a_trial_54_colour2_distractors9_l.png,l,1,2,9,0,,,,,0,65,65,65,,,,,,,,,,,,,,,,,,,,,,,,,,,,,,,,,,,,,,,,,,,491.7085986910388,None,2,4.454276364995167,491.7085986910388,None,,,,,,,,,,,,,,,,None,None,None,,None,None,496.2061206190265,None,1,1,0.9150811780127697,496.2061206190265,None,497.12305887725086,None,None,None,None,,28,001,2023_Jan_24_1020,searchDisc5,2021.2.3,60.086442511322566,
images/exp2a_trial_253_colour3_distractors31_l.png,l,1,3,31,0,,,,,0,66,66,66,,,,,,,,,,,,,,,,,,,,,,,,,,,,,,,,,,,,,,,,,,,497.1395621120464,None,2,3.0377595059690066,497.1395621120464,None,,,,,,,,,,,,,,,,None,None,None,,None,None,500.2228767880006,None,1,1,1.3848788090399466,500.2228767880006,None,501.606437067216,None,None,None,None,,28,001,2023_Jan_24_1020,searchDisc5,2021.2.3,60.086442511322566,
images/exp2b_trial_314_colour3_distractors4_l.png,l,1,3,4,0,,,,,0,67,67,67,,,,,,,,,,,,,,,,,,,,,,,,,,,,,,,,,,,,,,,,,,,501.62315281602787,None,2,1.7708609699620865,501.62315281602787,None,,,,,,,,,,,,,,,,None,None,None,,None,None,503.44005837402074,None,1,1,0.7051578639657237,503.44005837402074,None,504.13981125323915,None,None,None,None,,28,001,2023_Jan_24_1020,searchDisc5,2021.2.3,60.086442511322566,
images/exp2c_trial_12_colour3_distractors9_r.png,r,3,3,9,0,,,,,0,68,68,68,,,,,,,,,,,,,,,,,,,,,,,,,,,,,,,,,,,,,,,,,,,504.15636683400953,None,2,3.2058719590422697,504.15636683400953,None,,,,,,,,,,,,,,,,None,None,None,,None,None,507.4065590380342,None,3,1,1.019288139010314,507.4065590380342,None,508.423503418226,None,None,None,None,,28,001,2023_Jan_24_1020,searchDisc5,2021.2.3,60.086442511322566,
images/exp2b_trial_305_colour1_distractors9_l.png,l,1,1,9,0,,,,,0,69,69,69,,,,,,,,,,,,,,,,,,,,,,,,,,,,,,,,,,,,,,,,,,,508.4400688240421,None,2,1.9225599890341982,508.4400688240421,None,,,,,,,,,,,,,,,,None,None,None,,None,None,510.4088723800378,None,1,1,0.7690719829988666,510.4088723800378,None,511.1738201532338,None,None,None,None,,28,001,2023_Jan_24_1020,searchDisc5,2021.2.3,60.086442511322566,
images/exp2b_trial_60_colour3_distractors19_l.png,l,1,3,19,0,,,,,0,70,70,70,,,,,,,,,,,,,,,,,,,,,,,,,,,,,,,,,,,,,,,,,,,511.192460891034,None,2,2.6204243319807574,511.192460891034,None,,,,,,,,,,,,,,,,None,None,None,,None,None,513.8570313170203,None,1,1,0.9032956539886072,513.8570313170203,None,514.7567407692026,None,None,None,None,,28,001,2023_Jan_24_1020,searchDisc5,2021.2.3,60.086442511322566,
images/exp2c_trial_272_colour1_distractors4_l.png,l,1,1,4,0,,,,,0,71,71,71,,,,,,,,,,,,,,,,,,,,,,,,,,,,,,,,,,,,,,,,,,,514.7733534970321,None,2,2.273054361983668,514.7733534970321,None,,,,,,,,,,,,,,,,None,None,None,,None,None,517.0923221670091,None,1,1,0.9700335859670304,517.0923221670091,None,518.0569064482173,None,None,None,None,,28,001,2023_Jan_24_1020,searchDisc5,2021.2.3,60.086442511322566,
images/exp2b_trial_128_colour1_distractors1_r.png,r,3,1,1,0,,,,,0,72,72,72,,,,,,,,,,,,,,,,,,,,,,,,,,,,,,,,,,,,,,,,,,,518.0732373000355,None,2,1.8375977510004304,518.0732373000355,None,,,,,,,,,,,,,,,,None,None,None,,None,None,519.9571494570118,None,3,1,0.7388679549912922,519.9571494570118,None,520.6902549482242,None,None,None,None,,28,001,2023_Jan_24_1020,searchDisc5,2021.2.3,60.086442511322566,
images/exp2a_trial_204_colour3_distractors9_r.png,r,3,3,9,0,,,,,0,73,73,73,,,,,,,,,,,,,,,,,,,,,,,,,,,,,,,,,,,,,,,,,,,520.7068892850075,None,2,1.5563298049964942,520.7068892850075,None,,,,,,,,,,,,,,,,None,None,None,,None,None,522.3086190080503,None,3,1,0.7015802380046807,522.3086190080503,None,523.0068894292402,None,None,None,None,,28,001,2023_Jan_24_1020,searchDisc5,2021.2.3,60.086442511322566,
images/exp2a_trial_57_colour3_distractors1_l.png,l,1,3,1,0,,,,,0,74,74,74,,,,,,,,,,,,,,,,,,,,,,,,,,,,,,,,,,,,,,,,,,,523.0235893659992,None,2,1.9709248840226792,523.0235893659992,None,,,,,,,,,,,,,,,,None,None,None,,None,None,525.0404652150464,None,1,1,0.5887445269618183,525.0404652150464,None,525.6236614502326,None,None,None,None,,28,001,2023_Jan_24_1020,searchDisc5,2021.2.3,60.086442511322566,
images/exp2b_trial_175_colour1_distractors1_l.png,l,1,1,1,0,,,,,0,75,75,75,,,,,,,,,,,,,,,,,,,,,,,,,,,,,,,,,,,,,,,,,,,525.6402946360176,None,2,1.65662813000381,525.6402946360176,None,,,,,,,,,,,,,,,,None,None,None,,None,None,527.3422788470052,None,1,1,0.5203156939824112,527.3422788470052,None,527.8573283331992,None,None,None,None,,28,001,2023_Jan_24_1020,searchDisc5,2021.2.3,60.086442511322566,
images/exp2b_trial_187_colour3_distractors9_l.png,l,1,3,9,0,,,,,0,76,76,76,,,,,,,,,,,,,,,,,,,,,,,,,,,,,,,,,,,,,,,,,,,527.8752479500254,None,2,1.5373215920408256,527.8752479500254,None,,,,,,,,,,,,,,,,None,None,None,,None,None,529.457727273053,None,1,1,0.6371117050293833,529.457727273053,None,530.0904556332447,None,None,None,None,,28,001,2023_Jan_24_1020,searchDisc5,2021.2.3,60.086442511322566,
images/exp2c_trial_95_colour0_distractors0_l.png,l,1,0,0,0,,,,,0,77,77,77,,,,,,,,,,,,,,,,,,,,,,,,,,,,,,,,,,,,,,,,,,,530.107163555047,None,2,1.5543561819940805,530.107163555047,None,,,,,,,,,,,,,,,,None,None,None,,None,None,531.7078481100034,None,1,1,0.7059135020244867,531.7078481100034,None,532.4073491402145,None,None,None,None,,28,001,2023_Jan_24_1020,searchDisc5,2021.2.3,60.086442511322566,
images/exp2b_trial_33_colour1_distractors4_r.png,r,3,1,4,0,,,,,0,78,78,78,,,,,,,,,,,,,,,,,,,,,,,,,,,,,,,,,,,,,,,,,,,532.4239129380439,None,2,1.6545786269707605,532.4239129380439,None,,,,,,,,,,,,,,,,None,None,None,,None,None,534.1261166970362,None,3,1,0.7725909540313296,534.1261166970362,None,534.8905731822073,None,None,None,None,,28,001,2023_Jan_24_1020,searchDisc5,2021.2.3,60.086442511322566,
images/exp1a_trial_62_colour0_distractors0_r.png,r,3,0,0,0,,,,,0,79,79,79,,,,,,,,,,,,,,,,,,,,,,,,,,,,,,,,,,,,,,,,,,,534.9092699920293,None,2,1.6381180849857628,534.9092699920293,None,,,,,,,,,,,,,,,,None,None,None,,None,None,536.5910422270535,None,3,1,0.8865408980054781,536.5910422270535,None,537.4740815462486,None,None,None,None,,28,001,2023_Jan_24_1020,searchDisc5,2021.2.3,60.086442511322566,
images/exp2a_trial_8_colour2_distractors19_r.png,r,3,2,19,0,,,,,0,80,80,80,,,,,,,,,,,,,,,,,,,,,,,,,,,,,,,,,,,,,,,,,,,537.4907985660248,None,2,1.5747908700141124,537.4907985660248,None,,,,,,,,,,,,,,,,None,None,None,,None,None,539.1144881120417,None,3,1,1.3593634570133872,539.1144881120417,None,540.4735408922483,None,None,None,None,,28,001,2023_Jan_24_1020,searchDisc5,2021.2.3,60.086442511322566,
images/exp1a_trial_242_colour1_distractors19_l.png,l,1,1,19,0,,,,,0,81,81,81,,,,,,,,,,,,,,,,,,,,,,,,,,,,,,,,,,,,,,,,,,,540.4910359150381,None,2,1.7065212589805014,540.4910359150381,None,,,,,,,,,,,,,,,,None,None,None,,None,None,542.2434054080513,None,1,1,1.0492273590061814,542.2434054080513,None,543.2911548112228,None,None,None,None,,28,001,2023_Jan_24_1020,searchDisc5,2021.2.3,60.086442511322566,
images/exp2c_trial_302_colour3_distractors31_r.png,r,3,3,31,0,,,,,0,82,82,82,,,,,,,,,,,,,,,,,,,,,,,,,,,,,,,,,,,,,,,,,,,543.3073763380526,None,2,1.7542371950112283,543.3073763380526,None,,,,,,,,,,,,,,,,None,None,None,,None,None,545.1078144110506,None,3,1,0.8350279699661769,545.1078144110506,None,545.9410841522098,None,None,None,None,,28,001,2023_Jan_24_1020,searchDisc5,2021.2.3,60.086442511322566,
images/exp2b_trial_308_colour2_distractors1_l.png,l,1,2,1,0,,,,,0,83,83,83,,,,,,,,,,,,,,,,,,,,,,,,,,,,,,,,,,,,,,,,,,,545.9590063409996,None,2,1.505919658986386,545.9590063409996,None,,,,,,,,,,,,,,,,None,None,None,,None,None,547.5097128710477,None,1,1,0.5724235820234753,547.5097128710477,None,548.0744349632354,None,None,None,None,,28,001,2023_Jan_24_1020,searchDisc5,2021.2.3,60.086442511322566,
images/exp2a_trial_18_colour1_distractors19_l.png,l,1,1,19,0,,,,,0,84,84,84,,,,,,,,,,,,,,,,,,,,,,,,,,,,,,,,,,,,,,,,,,,548.0910724180285,None,2,1.4705035329679959,548.0910724180285,None,,,,,,,,,,,,,,,,None,None,None,,None,None,549.6100531250122,None,1,1,0.7004966990207322,549.6100531250122,None,550.3078406812332,None,None,None,None,,28,001,2023_Jan_24_1020,searchDisc5,2021.2.3,60.086442511322566,
images/exp1a_trial_311_colour2_distractors19_l.png,l,1,2,19,0,,,,,0,85,85,85,,,,,,,,,,,,,,,,,,,,,,,,,,,,,,,,,,,,,,,,,,,550.324645484041,None,2,1.637686975998804,550.324645484041,None,,,,,,,,,,,,,,,,None,None,None,,None,None,552.0099263570155,None,1,1,0.8330603010253981,552.0099263570155,None,552.8406527862011,None,None,None,None,,28,001,2023_Jan_24_1020,searchDisc5,2021.2.3,60.086442511322566,
images/exp2a_trial_53_colour2_distractors4_l.png,l,1,2,4,0,,,,,0,86,86,86,,,,,,,,,,,,,,,,,,,,,,,,,,,,,,,,,,,,,,,,,,,552.8582493920112,None,2,1.4215704280068167,552.8582493920112,None,,,,,,,,,,,,,,,,None,None,None,,None,None,554.3242759770365,None,1,1,0.7702089569647796,554.3242759770365,None,555.0911695132439,None,None,None,None,,28,001,2023_Jan_24_1020,searchDisc5,2021.2.3,60.086442511322566,
images/exp1a_trial_25_colour3_distractors1_l.png,l,1,3,1,0,,,,,0,87,87,87,,,,,,,,,,,,,,,,,,,,,,,,,,,,,,,,,,,,,,,,,,,555.1079006360378,None,2,1.6542195830261335,555.1079006360378,None,,,,,,,,,,,,,,,,None,None,None,,None,None,556.8080900010536,None,1,1,0.8054492910159752,556.8080900010536,None,557.608147045254,None,None,None,None,,28,001,2023_Jan_24_1020,searchDisc5,2021.2.3,60.086442511322566,
images/exp2b_trial_107_colour3_distractors4_r.png,r,3,3,4,0,,,,,0,88,88,88,,,,,,,,,,,,,,,,,,,,,,,,,,,,,,,,,,,,,,,,,,,557.6248470210121,None,2,1.306126089009922,557.6248470210121,None,,,,,,,,,,,,,,,,None,None,None,,None,None,558.9745731310104,None,3,1,0.9863373090047389,558.9745731310104,None,559.9584349722194,None,None,None,None,,28,001,2023_Jan_24_1020,searchDisc5,2021.2.3,60.086442511322566,
images/exp2a_trial_292_colour1_distractors31_r.png,r,3,1,31,0,,,,,0,89,89,89,,,,,,,,,,,,,,,,,,,,,,,,,,,,,,,,,,,,,,,,,,,559.9747658480192,None,2,1.5395487239584327,559.9747658480192,None,,,,,,,,,,,,,,,,None,None,None,,None,None,561.5602381229983,None,3,1,0.8677724999724887,561.5602381229983,None,562.424890385248,None,None,None,None,,28,001,2023_Jan_24_1020,searchDisc5,2021.2.3,60.086442511322566,
images/exp2c_trial_64_colour1_distractors1_r.png,r,3,1,1,0,,,,,0,90,90,90,,,,,,,,,,,,,,,,,,,,,,,,,,,,,,,,,,,,,,,,,,,562.4412587910192,None,2,1.7370865939883515,562.4412587910192,None,,,,,,,,,,,,,,,,None,None,None,,None,None,564.2251670350088,None,3,1,1.2544456030009314,564.2251670350088,None,565.4749694212281,None,None,None,None,,28,001,2023_Jan_24_1020,searchDisc5,2021.2.3,60.086442511322566,
images/exp1a_trial_137_colour2_distractors31_r.png,r,3,2,31,0,,,,,0,91,91,91,,,,,,,,,,,,,,,,,,,,,,,,,,,,,,,,,,,,,,,,,,,565.4915629150346,None,2,1.7532801799825393,565.4915629150346,None,,,,,,,,,,,,,,,,None,None,None,,None,None,567.2916286620311,None,3,1,1.2644032600219361,567.2916286620311,None,568.5577700562484,None,None,None,None,,28,001,2023_Jan_24_1020,searchDisc5,2021.2.3,60.086442511322566,
images/exp1a_trial_30_colour0_distractors0_r.png,r,3,0,0,0,,,,,0,92,92,92,,,,,,,,,,,,,,,,,,,,,,,,,,,,,,,,,,,,,,,,,,,568.5748448070372,None,2,1.4549524719477631,568.5748448070372,None,,,,,,,,,,,,,,,,None,None,None,,None,None,570.075328607054,None,3,1,0.7207640000269748,570.075328607054,None,570.7916484602086,None,None,None,None,,28,001,2023_Jan_24_1020,searchDisc5,2021.2.3,60.086442511322566,
images/exp1a_trial_3_colour1_distractors19_r.png,r,3,1,19,0,,,,,0,93,93,93,,,,,,,,,,,,,,,,,,,,,,,,,,,,,,,,,,,,,,,,,,,570.8082729250309,None,2,1.4542605970054865,570.8082729250309,None,,,,,,,,,,,,,,,,None,None,None,,None,None,572.3107259650133,None,3,1,0.7672557249898091,572.3107259650133,None,573.0751863452082,None,None,None,None,,28,001,2023_Jan_24_1020,searchDisc5,2021.2.3,60.086442511322566,
images/exp1a_trial_54_colour2_distractors9_l.png,l,1,2,9,0,,,,,0,94,94,94,,,,,,,,,,,,,,,,,,,,,,,,,,,,,,,,,,,,,,,,,,,573.0938106640242,None,2,1.3377341729938053,573.0938106640242,None,,,,,,,,,,,,,,,,None,None,None,,None,None,574.4751254640287,None,1,1,0.7024036099901423,574.4751254640287,None,575.1751532492402,None,None,None,None,,28,001,2023_Jan_24_1020,searchDisc5,2021.2.3,60.086442511322566,
images/exp1a_trial_100_colour1_distractors31_r.png,r,3,1,31,0,,,,,0,95,95,95,,,,,,,,,,,,,,,,,,,,,,,,,,,,,,,,,,,,,,,,,,,575.1918849150534,None,2,1.2708265539840795,575.1918849150534,None,,,,,,,,,,,,,,,,None,None,None,,None,None,576.5107336070505,None,3,1,0.748300893988926,576.5107336070505,None,577.258519377216,None,None,None,None,,28,001,2023_Jan_24_1020,searchDisc5,2021.2.3,60.086442511322566,
images/exp2c_trial_201_colour2_distractors31_r.png,r,3,2,31,0,,,,,0,96,96,96,,,,,,,,,,,,,,,,,,,,,,,,,,,,,,,,,,,,,,,,,,,577.2751776270452,None,2,1.123075254028663,577.2751776270452,None,,,,,,,,,,,,,,,,None,None,None,,None,None,578.4444163250155,None,3,1,0.8165727680316195,578.4444163250155,None,579.2585773852246,None,None,None,None,,28,001,2023_Jan_24_1020,searchDisc5,2021.2.3,60.086442511322566,
images/exp2a_trial_40_colour2_distractors19_r.png,r,3,2,19,0,,,,,0,97,97,97,,,,,,,,,,,,,,,,,,,,,,,,,,,,,,,,,,,,,,,,,,,579.2751732140314,None,2,1.489874853985384,579.2751732140314,None,,,,,,,,,,,,,,,,None,None,None,,None,None,580.8084812910529,None,1,0,0.7772187550435774,580.8084812910529,None,581.5919616732339,None,None,None,None,,28,001,2023_Jan_24_1020,searchDisc5,2021.2.3,60.086442511322566,
images/exp2b_trial_110_colour3_distractors31_r.png,r,3,3,31,0,,,,,0,98,98,98,,,,,,,,,,,,,,,,,,,,,,,,,,,,,,,,,,,,,,,,,,,581.6105916600209,None,2,1.4380707630189136,581.6105916600209,None,,,,,,,,,,,,,,,,None,None,None,,None,None,583.0936041070381,None,3,1,0.7185375040280633,583.0936041070381,None,583.8086797692289,None,None,None,None,,28,001,2023_Jan_24_1020,searchDisc5,2021.2.3,60.086442511322566,
images/exp1a_trial_53_colour2_distractors4_l.png,l,1,2,4,0,,,,,0,99,99,99,,,,,,,,,,,,,,,,,,,,,,,,,,,,,,,,,,,,,,,,,,,583.8249753889977,None,2,1.4045306670013815,583.8249753889977,None,,,,,,,,,,,,,,,,None,None,None,,None,None,585.2749188130256,None,1,1,0.7694100609514862,585.2749188130256,None,586.0419758162519,None,None,None,None,,28,001,2023_Jan_24_1020,searchDisc5,2021.2.3,60.086442511322566,
images/exp1a_trial_247_colour2_distractors19_l.png,l,1,2,19,0,,,,,0,100,100,100,,,,,,,,,,,,,,,,,,,,,,,,,,,,,,,,,,,,,,,,,,,586.0586820660392,None,2,2.1710042480262928,586.0586820660392,None,,,,,,,,,,,,,,,,None,None,None,,None,None,588.2780557540245,None,1,1,0.7001526359817944,588.2780557540245,None,588.9755192092329,None,None,None,None,,28,001,2023_Jan_24_1020,searchDisc5,2021.2.3,60.086442511322566,
images/exp2c_trial_4_colour1_distractors31_r.png,r,3,1,31,0,,,,,0,101,101,101,,,,,,,,,,,,,,,,,,,,,,,,,,,,,,,,,,,,,,,,,,,588.9918496460305,None,2,1.4537423560395837,588.9918496460305,None,,,,,,,,,,,,,,,,None,None,None,,None,None,590.4944095720421,None,3,1,0.7515934110269882,590.4944095720421,None,591.2422294842021,None,None,None,None,,28,001,2023_Jan_24_1020,searchDisc5,2021.2.3,60.086442511322566,
images/exp2a_trial_109_colour3_distractors19_r.png,r,3,3,19,0,,,,,0,102,102,102,,,,,,,,,,,,,,,,,,,,,,,,,,,,,,,,,,,,,,,,,,,591.2588440219988,None,2,1.1877779280184768,591.2588440219988,None,,,,,,,,,,,,,,,,None,None,None,,None,None,592.4924272120115,None,3,1,0.6542826890363358,592.4924272120115,None,593.1422288482485,None,None,None,None,,28,001,2023_Jan_24_1020,searchDisc5,2021.2.3,60.086442511322566,
images/exp2b_trial_25_colour3_distractors1_l.png,l,1,3,1,0,,,,,0,103,103,103,,,,,,,,,,,,,,,,,,,,,,,,,,,,,,,,,,,,,,,,,,,593.1589619690203,None,2,1.2543706570286304,593.1589619690203,None,,,,,,,,,,,,,,,,None,None,None,,None,None,594.4605969120166,None,1,1,0.6862471480271779,594.4605969120166,None,595.142235493235,None,None,None,None,,28,001,2023_Jan_24_1020,searchDisc5,2021.2.3,60.086442511322566,
images/exp2b_trial_82_colour1_distractors19_l.png,l,1,1,19,0,,,,,0,104,104,104,,,,,,,,,,,,,,,,,,,,,,,,,,,,,,,,,,,,,,,,,,,595.1610130530316,None,2,1.5872376679908484,595.1610130530316,None,,,,,,,,,,,,,,,,None,None,None,,None,None,596.7944141670014,None,1,1,0.6705520140239969,596.7944141670014,None,597.4592355752305,None,None,None,None,,28,001,2023_Jan_24_1020,searchDisc5,2021.2.3,60.086442511322566,
images/exp1a_trial_161_colour1_distractors4_r.png,r,3,1,4,0,,,,,0,105,105,105,,,,,,,,,,,,,,,,,,,,,,,,,,,,,,,,,,,,,,,,,,,597.4759254430537,None,2,1.537323702010326,597.4759254430537,None,,,,,,,,,,,,,,,,None,None,None,,None,None,599.0596528280294,None,3,1,0.6706431559869088,599.0596528280294,None,599.7257650752493,None,None,None,None,,28,001,2023_Jan_24_1020,searchDisc5,2021.2.3,60.086442511322566,
images/exp2b_trial_202_colour3_distractors1_r.png,r,3,3,1,0,,,,,0,106,106,106,,,,,,,,,,,,,,,,,,,,,,,,,,,,,,,,,,,,,,,,,,,599.7419980010018,None,2,1.7545951689826325,599.7419980010018,None,,,,,,,,,,,,,,,,None,None,None,,None,None,601.5422353730537,None,3,1,1.3882563340011984,601.5422353730537,None,602.9259619502176,None,None,None,None,,28,001,2023_Jan_24_1020,searchDisc5,2021.2.3,60.086442511322566,
images/exp2a_trial_266_colour3_distractors1_r.png,r,3,3,1,0,,,,,0,107,107,107,,,,,,,,,,,,,,,,,,,,,,,,,,,,,,,,,,,,,,,,,,,602.94263451203,None,2,1.820912313007284,602.94263451203,None,,,,,,,,,,,,,,,,None,None,None,,None,None,604.8113552440191,None,3,1,0.723030582012143,604.8113552440191,None,605.5260572892206,None,None,None,None,,28,001,2023_Jan_24_1020,searchDisc5,2021.2.3,60.086442511322566,
images/exp1a_trial_43_colour3_distractors4_r.png,r,3,3,4,0,,,,,0,108,108,108,,,,,,,,,,,,,,,,,,,,,,,,,,,,,,,,,,,,,,,,,,,605.5422875970253,None,2,2.371389318956062,605.5422875970253,None,,,,,,,,,,,,,,,,None,None,None,,None,None,607.9617029130459,None,3,1,0.9525166950188577,607.9617029130459,None,608.9094046512095,None,None,None,None,,28,001,2023_Jan_24_1020,searchDisc5,2021.2.3,60.086442511322566,
images/exp2c_trial_51_colour1_distractors31_l.png,l,1,1,31,0,,,,,0,109,109,109,,,,,,,,,,,,,,,,,,,,,,,,,,,,,,,,,,,,,,,,,,,608.9260098400409,None,2,4.087637591001112,608.9260098400409,None,,,,,,,,,,,,,,,,None,None,None,,None,None,613.0617395710433,None,1,1,0.8181364540359937,613.0617395710433,None,613.8761814742523,None,None,None,None,,28,001,2023_Jan_24_1020,searchDisc5,2021.2.3,60.086442511322566,
images/exp1a_trial_90_colour3_distractors4_l.png,l,1,3,4,0,,,,,0,110,110,110,,,,,,,,,,,,,,,,,,,,,,,,,,,,,,,,,,,,,,,,,,,613.892482922005,None,2,2.5733756640111096,613.892482922005,None,,,,,,,,,,,,,,,,None,None,None,,None,None,616.5119465520256,None,1,1,0.786202070012223,616.5119465520256,None,617.2930041572021,None,None,None,None,,28,001,2023_Jan_24_1020,searchDisc5,2021.2.3,60.086442511322566,
images/exp1a_trial_272_colour1_distractors4_l.png,l,1,1,4,0,,,,,0,111,111,111,,,,,,,,,,,,,,,,,,,,,,,,,,,,,,,,,,,,,,,,,,,617.30970793101,None,2,1.870883319992572,617.30970793101,None,,,,,,,,,,,,,,,,None,None,None,,None,None,619.2283152640448,None,1,1,0.6731812530197203,619.2283152640448,None,619.8930612442258,None,None,None,None,,28,001,2023_Jan_24_1020,searchDisc5,2021.2.3,60.086442511322566,
images/exp2a_trial_249_colour3_distractors1_l.png,l,1,3,1,0,,,,,0,112,112,112,,,,,,,,,,,,,,,,,,,,,,,,,,,,,,,,,,,,,,,,,,,619.9093587539974,None,2,3.9865441489964724,619.9093587539974,None,,,,,,,,,,,,,,,,None,None,None,,None,None,623.9454599870369,None,1,1,0.5051611780072562,623.9454599870369,None,624.4431759062048,None,None,None,None,,28,001,2023_Jan_24_1020,searchDisc5,2021.2.3,60.086442511322566,
images/exp1a_trial_11_colour3_distractors4_r.png,r,3,3,4,0,,,,,0,113,113,113,,,,,,,,,,,,,,,,,,,,,,,,,,,,,,,,,,,,,,,,,,,624.4597749030218,None,2,2.486865933984518,624.4597749030218,None,,,,,,,,,,,,,,,,None,None,None,,None,None,626.9933519590413,None,3,1,1.1869043879560195,626.9933519590413,None,628.1768471012532,None,None,None,None,,28,001,2023_Jan_24_1020,searchDisc5,2021.2.3,60.086442511322566,
images/exp2a_trial_152_colour2_distractors31_l.png,l,1,2,31,0,,,,,0,114,114,114,,,,,,,,,,,,,,,,,,,,,,,,,,,,,,,,,,,,,,,,,,,628.1934487930266,None,2,0.7706943689845502,628.1934487930266,None,,,,,,,,,,,,,,,,None,None,None,,None,None,629.0152260240284,None,1,1,1.128335265966598,629.0152260240284,None,630.1432786862191,None,None,None,None,,28,001,2023_Jan_24_1020,searchDisc5,2021.2.3,60.086442511322566,
images/exp2c_trial_194_colour1_distractors9_r.png,r,3,1,9,0,,,,,0,115,115,115,,,,,,,,,,,,,,,,,,,,,,,,,,,,,,,,,,,,,,,,,,,630.1594468990224,None,2,2.9402326960116625,630.1594468990224,None,,,,,,,,,,,,,,,,None,None,None,,None,None,633.1436720870552,None,3,1,0.6845069730188698,633.1436720870552,None,633.8267806032148,None,None,None,None,,28,001,2023_Jan_24_1020,searchDisc5,2021.2.3,60.086442511322566,
images/exp2b_trial_248_colour2_distractors31_l.png,l,1,2,31,0,,,,,0,116,116,116,,,,,,,,,,,,,,,,,,,,,,,,,,,,,,,,,,,,,,,,,,,633.8435336800176,None,2,2.3043436800362542,633.8435336800176,None,,,,,,,,,,,,,,,,None,None,None,,None,None,636.195586972055,None,1,1,1.101199180004187,636.195586972055,None,637.2934349261981,None,None,None,None,,28,001,2023_Jan_24_1020,searchDisc5,2021.2.3,60.086442511322566,
images/exp2a_trial_31_colour0_distractors0_l.png,l,1,0,0,0,,,,,0,117,117,117,,,,,,,,,,,,,,,,,,,,,,,,,,,,,,,,,,,,,,,,,,,637.3101897320012,None,2,2.0064768469892442,637.3101897320012,None,,,,,,,,,,,,,,,,None,None,None,,None,None,639.3625542080263,None,1,1,0.7354086340055801,639.3625542080263,None,640.0929587952036,None,None,None,None,,28,001,2023_Jan_24_1020,searchDisc5,2021.2.3,60.086442511322566,
images/exp2b_trial_306_colour1_distractors19_l.png,l,1,1,19,0,,,,,0,118,118,118,,,,,,,,,,,,,,,,,,,,,,,,,,,,,,,,,,,,,,,,,,,640.1102173890104,None,2,0.7568393800174817,640.1102173890104,None,,,,,,,,,,,,,,,,None,None,None,,None,None,640.9121198230423,None,1,1,0.8173413670156151,640.9121198230423,None,641.7269650942238,None,None,None,None,,28,001,2023_Jan_24_1020,searchDisc5,2021.2.3,60.086442511322566,
images/exp2a_trial_311_colour2_distractors19_l.png,l,1,2,19,0,,,,,0,119,119,119,,,,,,,,,,,,,,,,,,,,,,,,,,,,,,,,,,,,,,,,,,,641.7432021830464,None,2,1.2211852759937756,641.7432021830464,None,,,,,,,,,,,,,,,,None,None,None,,None,None,643.0124064480187,None,1,1,0.8473634700058028,643.0124064480187,None,643.8606090442103,None,None,None,None,,28,001,2023_Jan_24_1020,searchDisc5,2021.2.3,60.086442511322566,
images/exp1a_trial_36_colour1_distractors31_r.png,r,3,1,31,0,,,,,0,120,120,120,,,,,,,,,,,,,,,,,,,,,,,,,,,,,,,,,,,,,,,,,,,643.8771860290435,None,2,1.956695787026547,643.8771860290435,None,,,,,,,,,,,,,,,,None,None,None,,None,None,645.8809598820517,None,3,1,0.9797189320088364,645.8809598820517,None,646.8604666522064,None,None,None,None,,28,001,2023_Jan_24_1020,searchDisc5,2021.2.3,60.086442511322566,
images/exp2c_trial_235_colour3_distractors4_r.png,r,3,3,4,0,,,,,0,121,121,121,,,,,,,,,,,,,,,,,,,,,,,,,,,,,,,,,,,,,,,,,,,646.8772808090434,None,2,1.4875563659588806,646.8772808090434,None,,,,,,,,,,,,,,,,None,None,None,,None,None,648.4128211740172,None,3,1,0.9537046160548925,648.4128211740172,None,649.3605441082094,None,None,None,None,,28,001,2023_Jan_24_1020,searchDisc5,2021.2.3,60.086442511322566,
images/exp2a_trial_138_colour3_distractors1_r.png,r,3,3,1,0,,,,,0,122,122,122,,,,,,,,,,,,,,,,,,,,,,,,,,,,,,,,,,,,,,,,,,,649.3770309910178,None,2,1.4876702839974314,649.3770309910178,None,,,,,,,,,,,,,,,,None,None,None,,None,None,650.9121786880423,None,3,1,0.8050838019698858,650.9121786880423,None,651.7108457592025,None,None,None,None,,28,001,2023_Jan_24_1020,searchDisc5,2021.2.3,60.086442511322566,
images/exp2c_trial_46_colour3_distractors31_r.png,r,3,3,31,0,,,,,0,123,123,123,,,,,,,,,,,,,,,,,,,,,,,,,,,,,,,,,,,,,,,,,,,651.7273999500321,None,2,1.1895548150059767,651.7273999500321,None,,,,,,,,,,,,,,,,None,None,None,,None,None,652.9603741180035,None,3,1,0.7173214899958111,652.9603741180035,None,653.6773109172412,None,None,None,None,,28,001,2023_Jan_24_1020,searchDisc5,2021.2.3,60.086442511322566,
images/exp1a_trial_35_colour1_distractors19_r.png,r,3,1,19,0,,,,,0,124,124,124,,,,,,,,,,,,,,,,,,,,,,,,,,,,,,,,,,,,,,,,,,,653.6935818430502,None,2,1.220534869004041,653.6935818430502,None,,,,,,,,,,,,,,,,None,None,None,,None,None,654.9608695610077,None,3,1,1.0177654380095191,654.9608695610077,None,655.9774602762249,None,None,None,None,,28,001,2023_Jan_24_1020,searchDisc5,2021.2.3,60.086442511322566,
images/exp2a_trial_182_colour2_distractors9_l.png,l,1,2,9,0,,,,,0,125,125,125,,,,,,,,,,,,,,,,,,,,,,,,,,,,,,,,,,,,,,,,,,,655.9940356890438,None,2,1.1375902419677004,655.9940356890438,None,,,,,,,,,,,,,,,,None,None,None,,None,None,657.1798489990178,None,3,0,0.7496555430116132,657.1798489990178,None,657.9266446242167,None,None,None,None,,28,001,2023_Jan_24_1020,searchDisc5,2021.2.3,60.086442511322566,
images/exp1a_trial_18_colour1_distractors19_l.png,l,1,1,19,0,,,,,0,126,126,126,,,,,,,,,,,,,,,,,,,,,,,,,,,,,,,,,,,,,,,,,,,657.9438739310135,None,2,1.2046372079639696,657.9438739310135,None,,,,,,,,,,,,,,,,None,None,None,,None,None,659.1944091660553,None,1,1,0.6833582879626192,659.1944091660553,None,659.8778570581984,None,None,None,None,,28,001,2023_Jan_24_1020,searchDisc5,2021.2.3,60.086442511322566,
images/exp2c_trial_157_colour3_distractors31_l.png,l,1,3,31,0,,,,,0,127,127,127,,,,,,,,,,,,,,,,,,,,,,,,,,,,,,,,,,,,,,,,,,,659.8944666390307,None,2,1.0706594769726507,659.8944666390307,None,,,,,,,,,,,,,,,,None,None,None,,None,None,661.0131296650507,None,1,1,0.7681938179885037,661.0131296650507,None,661.7775013022532,None,None,None,None,,28,001,2023_Jan_24_1020,searchDisc5,2021.2.3,60.086442511322566,
images/exp1a_trial_243_colour1_distractors31_l.png,l,1,1,31,0,,,,,0,128,128,128,,,,,,,,,,,,,,,,,,,,,,,,,,,,,,,,,,,,,,,,,,,661.7957477340242,None,2,1.1378972089732997,661.7957477340242,None,,,,,,,,,,,,,,,,None,None,None,,None,None,662.977754808031,None,1,1,0.9170513080316596,662.977754808031,None,663.8944216602307,None,None,None,None,,28,001,2023_Jan_24_1020,searchDisc5,2021.2.3,60.086442511322566,
images/exp2c_trial_274_colour1_distractors19_l.png,l,1,1,19,0,,,,,0,129,129,129,,,,,,,,,,,,,,,,,,,,,,,,,,,,,,,,,,,,,,,,,,,663.912921264011,None,2,1.2693159299669787,663.912921264011,None,,,,,,,,,,,,,,,,None,None,None,,None,None,665.2291497490369,None,1,1,1.0021626289817505,665.2291497490369,None,666.227739384229,None,None,None,None,,28,001,2023_Jan_24_1020,searchDisc5,2021.2.3,60.086442511322566,
images/exp2c_trial_239_colour1_distractors1_l.png,l,1,1,1,0,,,,,0,130,130,130,,,,,,,,,,,,,,,,,,,,,,,,,,,,,,,,,,,,,,,,,,,666.2443430370186,None,2,1.1398144870181568,666.2443430370186,None,,,,,,,,,,,,,,,,None,None,None,,None,None,667.4293547130073,None,1,1,1.0531580310198478,667.4293547130073,None,668.4779585262353,None,None,None,None,,28,001,2023_Jan_24_1020,searchDisc5,2021.2.3,60.086442511322566,
images/exp1a_trial_128_colour1_distractors1_r.png,r,3,1,1,0,,,,,0,131,131,131,,,,,,,,,,,,,,,,,,,,,,,,,,,,,,,,,,,,,,,,,,,668.4945619770442,None,2,1.306194995995611,668.4945619770442,None,,,,,,,,,,,,,,,,None,None,None,,None,None,669.8466820760514,None,3,1,1.219022071978543,669.8466820760514,None,671.0610918212391,None,None,None,None,,28,001,2023_Jan_24_1020,searchDisc5,2021.2.3,60.086442511322566,
images/exp2c_trial_271_colour1_distractors1_l.png,l,1,1,1,0,,,,,0,132,132,132,,,,,,,,,,,,,,,,,,,,,,,,,,,,,,,,,,,,,,,,,,,671.0778022770537,None,2,1.5400003080139868,671.0778022770537,None,,,,,,,,,,,,,,,,None,None,None,,None,None,672.6636585370288,None,1,1,0.8032037419616245,672.6636585370288,None,673.461456568219,None,None,None,None,,28,001,2023_Jan_24_1020,searchDisc5,2021.2.3,60.086442511322566,
images/exp2c_trial_215_colour2_distractors19_l.png,l,1,2,19,0,,,,,0,133,133,133,,,,,,,,,,,,,,,,,,,,,,,,,,,,,,,,,,,,,,,,,,,673.4778227560455,None,2,1.2061681339982897,673.4778227560455,None,,,,,,,,,,,,,,,,None,None,None,,None,None,674.7282170660328,None,1,1,0.8671228209859692,674.7282170660328,None,675.5945958212309,None,None,None,None,,28,001,2023_Jan_24_1020,searchDisc5,2021.2.3,60.086442511322566,
images/exp2c_trial_67_colour1_distractors19_r.png,r,3,1,19,0,,,,,0,134,134,134,,,,,,,,,,,,,,,,,,,,,,,,,,,,,,,,,,,,,,,,,,,675.6132654430112,None,2,1.3878196900477633,675.6132654430112,None,,,,,,,,,,,,,,,,None,None,None,,None,None,677.0448886800441,None,3,1,1.1021203760174103,677.0448886800441,None,678.1441555052355,None,None,None,None,,28,001,2023_Jan_24_1020,searchDisc5,2021.2.3,60.086442511322566,
images/exp1a_trial_129_colour1_distractors4_r.png,r,3,1,4,0,,,,,0,135,135,135,,,,,,,,,,,,,,,,,,,,,,,,,,,,,,,,,,,,,,,,,,,678.1606714930385,None,2,1.6383035049657337,678.1606714930385,None,,,,,,,,,,,,,,,,None,None,None,,None,None,679.8451335030259,None,3,1,1.2211233209818602,679.8451335030259,None,681.0614654762379,None,None,None,None,,28,001,2023_Jan_24_1020,searchDisc5,2021.2.3,60.086442511322566,
images/exp1a_trial_114_colour1_distractors19_l.png,l,1,1,19,0,,,,,0,136,136,136,,,,,,,,,,,,,,,,,,,,,,,,,,,,,,,,,,,,,,,,,,,681.0781459100544,None,2,1.2707346699899063,681.0781459100544,None,,,,,,,,,,,,,,,,None,None,None,,None,None,682.3970766440034,None,1,1,1.0002585379988886,682.3970766440034,None,683.394166743214,None,None,None,None,,28,001,2023_Jan_24_1020,searchDisc5,2021.2.3,60.086442511322566,
images/exp1a_trial_233_colour2_distractors31_r.png,r,3,2,31,0,,,,,0,137,137,137,,,,,,,,,,,,,,,,,,,,,,,,,,,,,,,,,,,,,,,,,,,683.4113993020146,None,2,1.188453689974267,683.4113993020146,None,,,,,,,,,,,,,,,,None,None,None,,None,None,684.6449594520382,None,3,1,1.2987797709647566,684.6449594520382,None,685.9449203172175,None,None,None,None,,28,001,2023_Jan_24_1020,searchDisc5,2021.2.3,60.086442511322566,
images/exp2a_trial_222_colour0_distractors0_r.png,r,3,0,0,0,,,,,0,138,138,138,,,,,,,,,,,,,,,,,,,,,,,,,,,,,,,,,,,,,,,,,,,685.961579290044,None,2,1.1896390920155682,685.961579290044,None,,,,,,,,,,,,,,,,None,None,None,,None,None,687.1974113010219,None,3,1,1.0528921009972692,687.1974113010219,None,688.2449059892155,None,None,None,None,,28,001,2023_Jan_24_1020,searchDisc5,2021.2.3,60.086442511322566,
images/exp2c_trial_151_colour2_distractors19_l.png,l,1,2,19,0,,,,,0,139,139,139,,,,,,,,,,,,,,,,,,,,,,,,,,,,,,,,,,,,,,,,,,,688.2616301920498,None,2,1.3869999710004777,688.2616301920498,None,,,,,,,,,,,,,,,,None,None,None,,None,None,689.6952613670146,None,1,1,0.9534646549727768,689.6952613670146,None,690.6449093462492,None,None,None,None,,28,001,2023_Jan_24_1020,searchDisc5,2021.2.3,60.086442511322566,
images/exp2c_trial_190_colour0_distractors0_r.png,r,3,0,0,0,,,,,0,140,140,140,,,,,,,,,,,,,,,,,,,,,,,,,,,,,,,,,,,,,,,,,,,690.6636306390283,None,2,1.0542368769529276,690.6636306390283,None,,,,,,,,,,,,,,,,None,None,None,,None,None,691.7639537310461,None,3,1,0.7219191400217824,691.7639537310461,None,692.4783954602375,None,None,None,None,,28,001,2023_Jan_24_1020,searchDisc5,2021.2.3,60.086442511322566,
images/exp2b_trial_212_colour2_distractors1_l.png,l,1,2,1,0,,,,,0,141,141,141,,,,,,,,,,,,,,,,,,,,,,,,,,,,,,,,,,,,,,,,,,,692.494824488007,None,2,1.38919546501711,692.494824488007,None,,,,,,,,,,,,,,,,None,None,None,,None,None,693.9286651360453,None,1,1,0.7041572179878131,693.9286651360453,None,694.6286172052554,None,None,None,None,,28,001,2023_Jan_24_1020,searchDisc5,2021.2.3,60.086442511322566,
images/exp1a_trial_81_colour1_distractors9_l.png,l,1,1,9,0,,,,,0,142,142,142,,,,,,,,,,,,,,,,,,,,,,,,,,,,,,,,,,,,,,,,,,,694.6450438520405,None,2,1.2371415369561873,694.6450438520405,None,,,,,,,,,,,,,,,,None,None,None,,None,None,695.9286847860203,None,1,1,0.7354178039822727,695.9286847860203,None,696.6612818172492,None,None,None,None,,28,001,2023_Jan_24_1020,searchDisc5,2021.2.3,60.086442511322566,
images/exp2a_trial_170_colour3_distractors1_r.png,r,3,3,1,0,,,,,0,143,143,143,,,,,,,,,,,,,,,,,,,,,,,,,,,,,,,,,,,,,,,,,,,696.6785809780122,None,2,1.5878086910233833,696.6785809780122,None,,,,,,,,,,,,,,,,None,None,None,,None,None,698.3139460610109,None,3,1,1.0555067469831556,698.3139460610109,None,699.3620195712487,None,None,None,None,,28,001,2023_Jan_24_1020,searchDisc5,2021.2.3,60.086442511322566,
images/exp2a_trial_185_colour3_distractors1_l.png,l,1,3,1,0,,,,,0,144,144,144,,,,,,,,,,,,,,,,,,,,,,,,,,,,,,,,,,,,,,,,,,,699.3784802550217,None,2,1.4043013050104491,699.3784802550217,None,,,,,,,,,,,,,,,,None,None,None,,None,None,700.8286639050348,None,1,1,0.7710110580082983,700.8286639050348,None,701.5952182922105,None,None,None,None,,28,001,2023_Jan_24_1020,searchDisc5,2021.2.3,60.086442511322566,
images/exp1a_trial_145_colour1_distractors9_l.png,l,1,1,9,0,,,,,0,145,145,145,,,,,,,,,,,,,,,,,,,,,,,,,,,,,,,,,,,,,,,,,,,701.6114675520221,None,2,1.3568467859877273,701.6114675520221,None,,,,,,,,,,,,,,,,None,None,None,,None,None,703.0143700379995,None,1,1,0.9008165919804014,703.0143700379995,None,703.9119787262229,None,None,None,None,,28,001,2023_Jan_24_1020,searchDisc5,2021.2.3,60.086442511322566,
images/exp2c_trial_291_colour1_distractors19_r.png,r,3,1,19,0,,,,,0,146,146,146,,,,,,,,,,,,,,,,,,,,,,,,,,,,,,,,,,,,,,,,,,,703.9286753190099,None,2,1.1044185180217028,703.9286753190099,None,,,,,,,,,,,,,,,,None,None,None,,None,None,705.0809927300434,None,3,1,0.8714833069825545,705.0809927300434,None,705.9455675892008,None,None,None,None,,28,001,2023_Jan_24_1020,searchDisc5,2021.2.3,60.086442511322566,
images/exp1a_trial_194_colour1_distractors9_r.png,r,3,1,9,0,,,,,0,147,147,147,,,,,,,,,,,,,,,,,,,,,,,,,,,,,,,,,,,,,,,,,,,705.9619858050137,None,2,1.418878446042072,705.9619858050137,None,,,,,,,,,,,,,,,,None,None,None,,None,None,707.4284727820195,None,3,1,1.3024633550085127,707.4284727820195,None,708.7285640212416,None,None,None,None,,28,001,2023_Jan_24_1020,searchDisc5,2021.2.3,60.086442511322566,
images/exp2a_trial_316_colour3_distractors19_l.png,l,1,3,19,0,,,,,0,148,148,148,,,,,,,,,,,,,,,,,,,,,,,,,,,,,,,,,,,,,,,,,,,708.7454454150284,None,2,1.1567186049651355,708.7454454150284,None,,,,,,,,,,,,,,,,None,None,None,,None,None,709.9477120510419,None,1,1,0.7512166720116511,709.9477120510419,None,710.6954917742463,None,None,None,None,,28,001,2023_Jan_24_1020,searchDisc5,2021.2.3,60.086442511322566,
images/exp2a_trial_226_colour1_distractors9_r.png,r,3,1,9,0,,,,,0,149,149,149,,,,,,,,,,,,,,,,,,,,,,,,,,,,,,,,,,,,,,,,,,,710.7120831000502,None,2,1.3695046229986474,710.7120831000502,None,,,,,,,,,,,,,,,,None,None,None,,None,None,712.1292637180304,None,3,1,0.9038656129851006,712.1292637180304,None,713.0290323622233,None,None,None,None,,28,001,2023_Jan_24_1020,searchDisc5,2021.2.3,60.086442511322566,
images/exp2c_trial_117_colour2_distractors4_l.png,l,1,2,4,0,,,,,0,150,150,150,,,,,,,,,,,,,,,,,,,,,,,,,,,,,,,,,,,,,,,,,,,713.0455283950432,None,2,0.7375874510034919,713.0455283950432,None,,,,,,,,,,,,,,,,None,None,None,,None,None,713.8308960000286,None,1,1,0.6046855099848472,713.8308960000286,None,714.4290839962254,None,None,None,None,,28,001,2023_Jan_24_1020,searchDisc5,2021.2.3,60.086442511322566,
images/exp2a_trial_276_colour2_distractors1_l.png,l,1,2,1,0,,,,,0,151,151,151,,,,,,,,,,,,,,,,,,,,,,,,,,,,,,,,,,,,,,,,,,,714.4475625470513,None,2,1.7878235150128603,714.4475625470513,None,,,,,,,,,,,,,,,,None,None,None,,None,None,716.2814171790378,None,1,1,0.939632399007678,716.2814171790378,None,717.2123922592203,None,None,None,None,,28,001,2023_Jan_24_1020,searchDisc5,2021.2.3,60.086442511322566,
images/exp2c_trial_230_colour2_distractors4_r.png,r,3,2,4,0,,,,,0,152,152,152,,,,,,,,,,,,,,,,,,,,,,,,,,,,,,,,,,,,,,,,,,,717.2289699160028,None,2,2.118878039007541,717.2289699160028,None,,,,,,,,,,,,,,,,None,None,None,,None,None,719.3956989270519,None,3,1,0.9231644499814138,719.3956989270519,None,720.3125842632202,None,None,None,None,,28,001,2023_Jan_24_1020,searchDisc5,2021.2.3,60.086442511322566,
images/exp2b_trial_206_colour3_distractors31_r.png,r,3,3,31,0,,,,,0,153,153,153,,,,,,,,,,,,,,,,,,,,,,,,,,,,,,,,,,,,,,,,,,,720.328901800036,None,2,1.3380480449995957,720.328901800036,None,,,,,,,,,,,,,,,,None,None,None,,None,None,721.7120866680052,None,3,1,0.7331636949675158,721.7120866680052,None,722.4459032232465,None,None,None,None,,28,001,2023_Jan_24_1020,searchDisc5,2021.2.3,60.086442511322566,
images/exp2c_trial_238_colour3_distractors31_r.png,r,3,3,31,0,,,,,0,154,154,154,,,,,,,,,,,,,,,,,,,,,,,,,,,,,,,,,,,,,,,,,,,722.4624901200295,None,2,1.1211200100369751,722.4624901200295,None,,,,,,,,,,,,,,,,None,None,None,,None,None,723.6315346690244,None,3,1,1.0859507349669002,723.6315346690244,None,724.712696911249,None,None,None,None,,28,001,2023_Jan_24_1020,searchDisc5,2021.2.3,60.086442511322566,
images/exp2a_trial_181_colour2_distractors4_l.png,l,1,2,4,0,,,,,0,155,155,155,,,,,,,,,,,,,,,,,,,,,,,,,,,,,,,,,,,,,,,,,,,724.7292942730128,None,2,1.1868131119990721,724.7292942730128,None,,,,,,,,,,,,,,,,None,None,None,,None,None,725.9622667140211,None,1,1,0.637688276998233,725.9622667140211,None,726.5955294902145,None,None,None,None,,28,001,2023_Jan_24_1020,searchDisc5,2021.2.3,60.086442511322566,
images/exp2c_trial_205_colour3_distractors19_r.png,r,3,3,19,0,,,,,0,156,156,156,,,,,,,,,,,,,,,,,,,,,,,,,,,,,,,,,,,,,,,,,,,726.6126661860035,None,2,2.1031221310258843,726.6126661860035,None,,,,,,,,,,,,,,,,None,None,None,,None,None,728.7624389810371,None,3,1,0.9024029140127823,728.7624389810371,None,729.6622963422036,None,None,None,None,,28,001,2023_Jan_24_1020,searchDisc5,2021.2.3,60.086442511322566,
images/exp2b_trial_214_colour2_distractors9_l.png,l,1,2,9,0,,,,,0,157,157,157,,,,,,,,,,,,,,,,,,,,,,,,,,,,,,,,,,,,,,,,,,,729.6793929960113,None,2,1.3065539870294742,729.6793929960113,None,,,,,,,,,,,,,,,,None,None,None,,None,None,731.0289315000409,None,1,1,0.7010076869628392,731.0289315000409,None,731.7294742152502,None,None,None,None,,28,001,2023_Jan_24_1020,searchDisc5,2021.2.3,60.086442511322566,
images/exp2b_trial_191_colour0_distractors0_l.png,l,1,0,0,0,,,,,0,158,158,158,,,,,,,,,,,,,,,,,,,,,,,,,,,,,,,,,,,,,,,,,,,731.7480817830074,None,2,1.5208331419853494,731.7480817830074,None,,,,,,,,,,,,,,,,None,None,None,,None,None,733.3128665820113,None,1,1,0.5743089509778656,733.3128665820113,None,733.8797020582191,None,None,None,None,,28,001,2023_Jan_24_1020,searchDisc5,2021.2.3,60.086442511322566,
images/exp2a_trial_79_colour1_distractors1_l.png,l,1,1,1,0,,,,,0,159,159,159,,,,,,,,,,,,,,,,,,,,,,,,,,,,,,,,,,,,,,,,,,,733.8962834040285,None,2,1.504250233003404,733.8962834040285,None,,,,,,,,,,,,,,,,None,None,None,,None,None,735.4482495830161,None,1,1,0.802500982012134,735.4482495830161,None,736.2462325462315,None,None,None,None,,28,001,2023_Jan_24_1020,searchDisc5,2021.2.3,60.086442511322566,
images/exp2c_trial_177_colour1_distractors9_l.png,l,1,1,9,0,,,,,0,160,160,160,,,,,,,,,,,,,,,,,,,,,,,,,,,,,,,,,,,,,,,,,,,736.2626498280442,None,2,1.2919345409609377,736.2626498280442,None,,,,,,,,,,,,,,,,None,None,None,,None,None,737.5985460940283,None,1,1,0.5329944609547965,737.5985460940283,None,738.1298665172129,None,None,None,None,,28,001,2023_Jan_24_1020,searchDisc5,2021.2.3,60.086442511322566,
images/exp2a_trial_81_colour1_distractors9_l.png,l,1,1,9,0,,,,,0,161,161,161,,,,,,,,,,,,,,,,,,,,,,,,,,,,,,,,,,,,,,,,,,,738.1463661600137,None,2,1.654241867014207,738.1463661600137,None,,,,,,,,,,,,,,,,None,None,None,,None,None,739.848566249013,None,1,1,0.6371721180039458,739.848566249013,None,740.4798007282137,None,None,None,None,,28,001,2023_Jan_24_1020,searchDisc5,2021.2.3,60.086442511322566,
images/exp2b_trial_21_colour2_distractors4_l.png,l,1,2,4,0,,,,,0,162,162,162,,,,,,,,,,,,,,,,,,,,,,,,,,,,,,,,,,,,,,,,,,,740.4957327700104,None,2,1.5042797990026884,740.4957327700104,None,,,,,,,,,,,,,,,,None,None,None,,None,None,742.0485003380454,None,1,1,0.8708677969989367,742.0485003380454,None,742.9130738112202,None,None,None,None,,28,001,2023_Jan_24_1020,searchDisc5,2021.2.3,60.086442511322566,
images/exp2b_trial_302_colour3_distractors31_r.png,r,3,3,31,0,,,,,0,163,163,163,,,,,,,,,,,,,,,,,,,,,,,,,,,,,,,,,,,,,,,,,,,742.92994051805,None,2,1.6042732420028187,742.92994051805,None,,,,,,,,,,,,,,,,None,None,None,,None,None,744.5801238990389,None,3,1,0.6850973549881019,744.5801238990389,None,745.2631331792276,None,None,None,None,,28,001,2023_Jan_24_1020,searchDisc5,2021.2.3,60.086442511322566,
images/exp1a_trial_273_colour1_distractors9_l.png,l,1,1,9,0,,,,,0,164,164,164,,,,,,,,,,,,,,,,,,,,,,,,,,,,,,,,,,,,,,,,,,,745.2795436790329,None,2,1.0753147379728034,745.2795436790329,None,,,,,,,,,,,,,,,,None,None,None,,None,None,746.3985508379992,None,1,1,0.5823238510056399,746.3985508379992,None,746.9804750782263,None,None,None,None,,28,001,2023_Jan_24_1020,searchDisc5,2021.2.3,60.086442511322566,
images/exp2a_trial_297_colour2_distractors31_r.png,r,3,2,31,0,,,,,0,165,165,165,,,,,,,,,,,,,,,,,,,,,,,,,,,,,,,,,,,,,,,,,,,746.9965666680364,None,2,2.6078689210116863,746.9965666680364,None,,,,,,,,,,,,,,,,None,None,None,,None,None,749.6652269050246,None,3,1,1.0405529319541529,749.6652269050246,None,750.6966284662543,None,None,None,None,,28,001,2023_Jan_24_1020,searchDisc5,2021.2.3,60.086442511322566,
images/exp1a_trial_112_colour1_distractors4_l.png,l,1,1,4,0,,,,,0,166,166,166,,,,,,,,,,,,,,,,,,,,,,,,,,,,,,,,,,,,,,,,,,,750.7147127780481,None,2,1.489538434019778,750.7147127780481,None,,,,,,,,,,,,,,,,None,None,None,,None,None,752.2488909680396,None,1,1,1.1017640680074692,752.2488909680396,None,753.34700604424,None,None,None,None,,28,001,2023_Jan_24_1020,searchDisc5,2021.2.3,60.086442511322566,
images/exp2b_trial_162_colour1_distractors9_r.png,r,3,1,9,0,,,,,0,167,167,167,,,,,,,,,,,,,,,,,,,,,,,,,,,,,,,,,,,,,,,,,,,753.36552574503,None,2,1.0896351609844714,753.36552574503,None,,,,,,,,,,,,,,,,None,None,None,,None,None,754.4993593190447,None,3,1,0.8854615979944356,754.4993593190447,None,755.3802758742298,None,None,None,None,,28,001,2023_Jan_24_1020,searchDisc5,2021.2.3,60.086442511322566,
images/exp2a_trial_269_colour3_distractors19_r.png,r,3,3,19,0,,,,,0,168,168,168,,,,,,,,,,,,,,,,,,,,,,,,,,,,,,,,,,,,,,,,,,,755.3970486460021,None,2,1.3242956470348872,755.3970486460021,None,,,,,,,,,,,,,,,,None,None,None,,None,None,756.7659941620077,None,3,1,1.032288461981807,756.7659941620077,None,757.7967901742144,None,None,None,None,,28,001,2023_Jan_24_1020,searchDisc5,2021.2.3,60.086442511322566,
images/exp2c_trial_228_colour1_distractors31_r.png,r,3,1,31,0,,,,,0,169,169,169,,,,,,,,,,,,,,,,,,,,,,,,,,,,,,,,,,,,,,,,,,,757.8131502110045,None,2,1.6900102170184255,757.8131502110045,None,,,,,,,,,,,,,,,,None,None,None,,None,None,759.5492389790015,None,3,1,0.7489091559546068,759.5492389790015,None,760.2970695412426,None,None,None,None,,28,001,2023_Jan_24_1020,searchDisc5,2021.2.3,60.086442511322566,
images/exp2c_trial_141_colour3_distractors19_r.png,r,3,3,19,0,,,,,0,170,170,170,,,,,,,,,,,,,,,,,,,,,,,,,,,,,,,,,,,,,,,,,,,760.3135112440214,None,2,1.9055325249792077,760.3135112440214,None,,,,,,,,,,,,,,,,None,None,None,,None,None,762.2641565220547,None,3,1,1.4020240170066245,762.2641565220547,None,763.663771016238,None,None,None,None,,28,001,2023_Jan_24_1020,searchDisc5,2021.2.3,60.086442511322566,
images/exp2b_trial_74_colour3_distractors1_r.png,r,3,3,1,0,,,,,0,171,171,171,,,,,,,,,,,,,,,,,,,,,,,,,,,,,,,,,,,,,,,,,,,763.6802491900162,None,2,1.2707393459859304,763.6802491900162,None,,,,,,,,,,,,,,,,None,None,None,,None,None,764.9969083280303,None,3,1,1.122571618994698,764.9969083280303,None,766.1139528262487,None,None,None,None,,28,001,2023_Jan_24_1020,searchDisc5,2021.2.3,60.086442511322566,
images/exp2c_trial_148_colour2_distractors1_l.png,l,1,2,1,0,,,,,0,172,172,172,,,,,,,,,,,,,,,,,,,,,,,,,,,,,,,,,,,,,,,,,,,766.1308311240282,None,2,1.1719741149572656,766.1308311240282,None,,,,,,,,,,,,,,,,None,None,None,,None,None,767.3470931519987,None,1,1,1.1191221719491296,767.3470931519987,None,768.4638220792461,None,None,None,None,,28,001,2023_Jan_24_1020,searchDisc5,2021.2.3,60.086442511322566,
images/exp2b_trial_277_colour2_distractors4_l.png,l,1,2,4,0,,,,,0,173,173,173,,,,,,,,,,,,,,,,,,,,,,,,,,,,,,,,,,,,,,,,,,,768.4826357840211,None,2,1.3541170330136083,768.4826357840211,None,,,,,,,,,,,,,,,,None,None,None,,None,None,769.8807326030219,None,1,1,0.8379722869722173,769.8807326030219,None,770.7138776482374,None,None,None,None,,28,001,2023_Jan_24_1020,searchDisc5,2021.2.3,60.086442511322566,
images/exp2b_trial_261_colour2_distractors1_r.png,r,3,2,1,0,,,,,0,174,174,174,,,,,,,,,,,,,,,,,,,,,,,,,,,,,,,,,,,,,,,,,,,770.729907400033,None,2,0.6876717620179988,770.729907400033,None,,,,,,,,,,,,,,,,None,None,None,,None,None,771.4641323020332,None,3,1,0.8548356770188548,771.4641323020332,None,772.3133522621996,None,None,None,None,,28,001,2023_Jan_24_1020,searchDisc5,2021.2.3,60.086442511322566,
images/exp2c_trial_247_colour2_distractors19_l.png,l,1,2,19,0,,,,,0,175,175,175,,,,,,,,,,,,,,,,,,,,,,,,,,,,,,,,,,,,,,,,,,,772.3304311680258,None,2,1.8042364409775473,772.3304311680258,None,,,,,,,,,,,,,,,,None,None,None,,None,None,774.1808638690272,None,1,1,1.2522943210205995,774.1808638690272,None,775.4307558752538,None,None,None,None,,28,001,2023_Jan_24_1020,searchDisc5,2021.2.3,60.086442511322566,
images/exp2c_trial_28_colour3_distractors19_l.png,l,1,3,19,0,,,,,0,176,176,176,,,,,,,,,,,,,,,,,,,,,,,,,,,,,,,,,,,,,,,,,,,775.4494422990247,None,2,1.4731193489860743,775.4494422990247,None,,,,,,,,,,,,,,,,None,None,None,,None,None,776.9663831790094,None,1,1,0.7840599199989811,776.9663831790094,None,777.7475064642553,None,None,None,None,,28,001,2023_Jan_24_1020,searchDisc5,2021.2.3,60.086442511322566,
images/exp2b_trial_304_colour1_distractors4_l.png,l,1,1,4,0,,,,,0,177,177,177,,,,,,,,,,,,,,,,,,,,,,,,,,,,,,,,,,,,,,,,,,,777.7640805360279,None,2,1.4374678599997424,777.7640805360279,None,,,,,,,,,,,,,,,,None,None,None,,None,None,779.2472301450325,None,1,1,0.740411911974661,779.2472301450325,None,779.9809275072242,None,None,None,None,,28,001,2023_Jan_24_1020,searchDisc5,2021.2.3,60.086442511322566,
images/exp1a_trial_253_colour3_distractors31_l.png,l,1,3,31,0,,,,,0,178,178,178,,,,,,,,,,,,,,,,,,,,,,,,,,,,,,,,,,,,,,,,,,,779.9967231870396,None,2,1.4216605229885317,779.9967231870396,None,,,,,,,,,,,,,,,,None,None,None,,None,None,781.4676439120085,None,1,1,0.7646260460023768,781.4676439120085,None,782.2311385462002,None,None,None,None,,28,001,2023_Jan_24_1020,searchDisc5,2021.2.3,60.086442511322566,
images/exp1a_trial_14_colour3_distractors31_r.png,r,3,3,31,0,,,,,0,179,179,179,,,,,,,,,,,,,,,,,,,,,,,,,,,,,,,,,,,,,,,,,,,782.2474785890081,None,2,1.2374300069641322,782.2474785890081,None,,,,,,,,,,,,,,,,None,None,None,,None,None,783.531040825008,None,3,1,1.1308478050050326,783.531040825008,None,784.6637389622105,None,None,None,None,,28,001,2023_Jan_24_1020,searchDisc5,2021.2.3,60.086442511322566,
images/exp2c_trial_195_colour1_distractors19_r.png,r,3,1,19,0,,,,,0,180,180,180,,,,,,,,,,,,,,,,,,,,,,,,,,,,,,,,,,,,,,,,,,,784.6804922480369,None,2,3.388054237002507,784.6804922480369,None,,,,,,,,,,,,,,,,None,None,None,,None,None,788.1144172880449,None,3,1,1.002424106001854,788.1144172880449,None,789.1144052652002,None,None,None,None,,28,001,2023_Jan_24_1020,searchDisc5,2021.2.3,60.086442511322566,
images/exp2a_trial_291_colour1_distractors19_r.png,r,3,1,19,0,,,,,0,181,181,181,,,,,,,,,,,,,,,,,,,,,,,,,,,,,,,,,,,,,,,,,,,789.1310567430337,None,2,1.421131701034028,789.1310567430337,None,,,,,,,,,,,,,,,,None,None,None,,None,None,790.5980812920025,None,3,1,0.9186710309586488,790.5980812920025,None,791.5146069382375,None,None,None,None,,28,001,2023_Jan_24_1020,searchDisc5,2021.2.3,60.086442511322566,
images/exp2a_trial_72_colour2_distractors19_r.png,r,3,2,19,0,,,,,0,182,182,182,,,,,,,,,,,,,,,,,,,,,,,,,,,,,,,,,,,,,,,,,,,791.5330178080476,None,2,1.6732693910016678,791.5330178080476,None,,,,,,,,,,,,,,,,None,None,None,,None,None,793.2475259850034,None,3,1,0.679393936006818,793.2475259850034,None,793.9311225472542,None,None,None,None,,28,001,2023_Jan_24_1020,searchDisc5,2021.2.3,60.086442511322566,
images/exp2a_trial_84_colour2_distractors1_l.png,l,1,2,1,0,,,,,0,183,183,183,,,,,,,,,,,,,,,,,,,,,,,,,,,,,,,,,,,,,,,,,,,793.9475724980002,None,2,1.6565837720409036,793.9475724980002,None,,,,,,,,,,,,,,,,None,None,None,,None,None,795.6497756490135,None,1,1,0.7861162420012988,795.6497756490135,None,796.4314531692129,None,None,None,None,,28,001,2023_Jan_24_1020,searchDisc5,2021.2.3,60.086442511322566,
images/exp2a_trial_137_colour2_distractors31_r.png,r,3,2,31,0,,,,,0,184,184,184,,,,,,,,,,,,,,,,,,,,,,,,,,,,,,,,,,,,,,,,,,,796.4472024910501,None,2,1.4046994800446555,796.4472024910501,None,,,,,,,,,,,,,,,,None,None,None,,None,None,797.8982148320065,None,3,1,0.8775106730172411,797.8982148320065,None,798.7807830432488,None,None,None,None,,28,001,2023_Jan_24_1020,searchDisc5,2021.2.3,60.086442511322566,
images/exp2c_trial_88_colour2_distractors31_l.png,l,1,2,31,0,,,,,0,185,185,185,,,,,,,,,,,,,,,,,,,,,,,,,,,,,,,,,,,,,,,,,,,798.797285092005,None,2,1.6383140860125422,798.797285092005,None,,,,,,,,,,,,,,,,None,None,None,,None,None,800.4836927560391,None,1,1,0.9014792880043387,800.4836927560391,None,801.3813698502548,None,None,None,None,,28,001,2023_Jan_24_1020,searchDisc5,2021.2.3,60.086442511322566,
images/exp2a_trial_199_colour2_distractors9_r.png,r,3,2,9,0,,,,,0,186,186,186,,,,,,,,,,,,,,,,,,,,,,,,,,,,,,,,,,,,,,,,,,,801.3979718600167,None,2,1.7711633970029652,801.3979718600167,None,,,,,,,,,,,,,,,,None,None,None,,None,None,803.2146813540021,None,3,1,0.783995262987446,803.2146813540021,None,803.9983502592135,None,None,None,None,,28,001,2023_Jan_24_1020,searchDisc5,2021.2.3,60.086442511322566,
images/exp1a_trial_290_colour1_distractors9_r.png,r,3,1,9,0,,,,,0,187,187,187,,,,,,,,,,,,,,,,,,,,,,,,,,,,,,,,,,,,,,,,,,,804.0170777580352,None,2,2.4707222820143215,804.0170777580352,None,,,,,,,,,,,,,,,,None,None,None,,None,None,806.531749204034,None,3,1,0.7026847170200199,806.531749204034,None,807.231577505247,None,None,None,None,,28,001,2023_Jan_24_1020,searchDisc5,2021.2.3,60.086442511322566,
images/exp1a_trial_171_colour3_distractors4_r.png,r,3,3,4,0,,,,,0,188,188,188,,,,,,,,,,,,,,,,,,,,,,,,,,,,,,,,,,,,,,,,,,,807.250238217006,None,2,2.6045004070037976,807.250238217006,None,,,,,,,,,,,,,,,,None,None,None,,None,None,809.8987528990256,None,3,1,1.5538234270061366,809.8987528990256,None,811.4485229642072,None,None,None,None,,28,001,2023_Jan_24_1020,searchDisc5,2021.2.3,60.086442511322566,
images/exp1a_trial_151_colour2_distractors19_l.png,l,1,2,19,0,,,,,0,189,189,189,,,,,,,,,,,,,,,,,,,,,,,,,,,,,,,,,,,,,,,,,,,811.4663949660026,None,2,1.65617425495293,811.4663949660026,None,,,,,,,,,,,,,,,,None,None,None,,None,None,813.1673569130362,None,1,1,0.9653957389527932,813.1673569130362,None,814.1317235112132,None,None,None,None,,28,001,2023_Jan_24_1020,searchDisc5,2021.2.3,60.086442511322566,
images/exp2b_trial_298_colour3_distractors1_r.png,r,3,3,1,0,,,,,0,190,190,190,,,,,,,,,,,,,,,,,,,,,,,,,,,,,,,,,,,,,,,,,,,814.1483844340546,None,2,1.6911018430255353,814.1483844340546,None,,,,,,,,,,,,,,,,None,None,None,,None,None,815.8839522670023,None,3,1,0.6350087120081298,815.8839522670023,None,816.5150790172105,None,None,None,None,,28,001,2023_Jan_24_1020,searchDisc5,2021.2.3,60.086442511322566,
images/exp2c_trial_137_colour2_distractors31_r.png,r,3,2,31,0,,,,,0,191,191,191,,,,,,,,,,,,,,,,,,,,,,,,,,,,,,,,,,,,,,,,,,,816.5318229540135,None,2,1.754585237998981,816.5318229540135,None,,,,,,,,,,,,,,,,None,None,None,,None,None,818.3323114730301,None,3,1,0.6844495330005884,818.3323114730301,None,819.0153109982551,None,None,None,None,,28,001,2023_Jan_24_1020,searchDisc5,2021.2.3,60.086442511322566,
images/exp2b_trial_198_colour2_distractors4_r.png,r,3,2,4,0,,,,,0,192,192,192,,,,,,,,,,,,,,,,,,,,,,,,,,,,,,,,,,,,,,,,,,,819.0318938850542,None,2,0.922902088961564,819.0318938850542,None,,,,,,,,,,,,,,,,None,None,None,,None,None,820.0009442120208,None,3,1,0.8022216240060516,820.0009442120208,None,820.7986282632395,None,None,None,None,,28,001,2023_Jan_24_1020,searchDisc5,2021.2.3,60.086442511322566,
images/exp2b_trial_209_colour1_distractors9_l.png,l,1,1,9,0,,,,,0,193,193,193,,,,,,,,,,,,,,,,,,,,,,,,,,,,,,,,,,,,,,,,,,,820.8153411410167,None,2,0.9899307109881192,820.8153411410167,None,,,,,,,,,,,,,,,,None,None,None,,None,None,821.8488298250013,None,1,1,0.9681693019811064,821.8488298250013,None,822.8153146212047,None,None,None,None,,28,001,2023_Jan_24_1020,searchDisc5,2021.2.3,60.086442511322566,
images/exp1a_trial_197_colour2_distractors1_r.png,r,3,2,1,0,,,,,0,194,194,194,,,,,,,,,,,,,,,,,,,,,,,,,,,,,,,,,,,,,,,,,,,822.8320000550011,None,2,1.255895562004298,822.8320000550011,None,,,,,,,,,,,,,,,,None,None,None,,None,None,824.1317863770528,None,3,1,1.2371310570160858,824.1317863770528,None,825.3653770542063,None,None,None,None,,28,001,2023_Jan_24_1020,searchDisc5,2021.2.3,60.086442511322566,
images/exp2a_trial_314_colour3_distractors4_l.png,l,1,3,4,0,,,,,0,195,195,195,,,,,,,,,,,,,,,,,,,,,,,,,,,,,,,,,,,,,,,,,,,825.3822596270475,None,2,1.1044750770088285,825.3822596270475,None,,,,,,,,,,,,,,,,None,None,None,,None,None,826.5342718810425,None,1,1,0.7374394760117866,826.5342718810425,None,827.2649987962271,None,None,None,None,,28,001,2023_Jan_24_1020,searchDisc5,2021.2.3,60.086442511322566,
images/exp2a_trial_141_colour3_distractors19_r.png,r,3,3,19,0,,,,,0,196,196,196,,,,,,,,,,,,,,,,,,,,,,,,,,,,,,,,,,,,,,,,,,,827.2812757530482,None,2,1.805089354980737,827.2812757530482,None,,,,,,,,,,,,,,,,None,None,None,,None,None,829.1326966880006,None,3,1,0.9853029229561798,829.1326966880006,None,830.1155434091983,None,None,None,None,,28,001,2023_Jan_24_1020,searchDisc5,2021.2.3,60.086442511322566,
images/exp2b_trial_125_colour3_distractors31_l.png,l,1,3,31,0,,,,,0,197,197,197,,,,,,,,,,,,,,,,,,,,,,,,,,,,,,,,,,,,,,,,,,,830.1322243890027,None,2,1.53777388605522,830.1322243890027,None,,,,,,,,,,,,,,,,None,None,None,,None,None,831.7161766700447,None,1,1,1.234694513026625,831.7161766700447,None,832.9491322672169,None,None,None,None,,28,001,2023_Jan_24_1020,searchDisc5,2021.2.3,60.086442511322566,
images/exp2a_trial_155_colour3_distractors9_l.png,l,1,3,9,0,,,,,0,198,198,198,,,,,,,,,,,,,,,,,,,,,,,,,,,,,,,,,,,,,,,,,,,832.96564600704,None,2,0.7562598999938928,832.96564600704,None,,,,,,,,,,,,,,,,None,None,None,,None,None,833.7676985210273,None,1,1,0.7514739459729753,833.7676985210273,None,834.5156785632192,None,None,None,None,,28,001,2023_Jan_24_1020,searchDisc5,2021.2.3,60.086442511322566,
images/exp1a_trial_79_colour1_distractors1_l.png,l,1,1,1,0,,,,,0,199,199,199,,,,,,,,,,,,,,,,,,,,,,,,,,,,,,,,,,,,,,,,,,,834.532365749008,None,2,2.821008705999702,834.532365749008,None,,,,,,,,,,,,,,,,None,None,None,,None,None,837.3992992300191,None,1,1,0.7062222920358181,837.3992992300191,None,838.0992598752549,None,None,None,None,,28,001,2023_Jan_24_1020,searchDisc5,2021.2.3,60.086442511322566,
images/exp2b_trial_131_colour1_distractors19_r.png,r,3,1,19,0,,,,,0,200,200,200,,,,,,,,,,,,,,,,,,,,,,,,,,,,,,,,,,,,,,,,,,,838.1161101460457,None,2,1.5529681000043638,838.1161101460457,None,,,,,,,,,,,,,,,,None,None,None,,None,None,839.718218591006,None,3,1,1.0196351290214807,839.718218591006,None,840.7326328282419,None,None,None,None,,28,001,2023_Jan_24_1020,searchDisc5,2021.2.3,60.086442511322566,
images/exp2a_trial_41_colour2_distractors31_r.png,r,3,2,31,0,,,,,0,201,201,201,,,,,,,,,,,,,,,,,,,,,,,,,,,,,,,,,,,,,,,,,,,840.7492009940324,None,2,1.487574669008609,840.7492009940324,None,,,,,,,,,,,,,,,,None,None,None,,None,None,842.2888805120019,None,3,1,0.7606554930098355,842.2888805120019,None,843.0493122212414,None,None,None,None,,28,001,2023_Jan_24_1020,searchDisc5,2021.2.3,60.086442511322566,
images/exp1a_trial_32_colour1_distractors1_r.png,r,3,1,1,0,,,,,0,202,202,202,,,,,,,,,,,,,,,,,,,,,,,,,,,,,,,,,,,,,,,,,,,843.0658938860288,None,2,1.471173205995001,843.0658938860288,None,,,,,,,,,,,,,,,,None,None,None,,None,None,844.5822982780519,None,3,1,0.671230458014179,844.5822982780519,None,845.2491504022095,None,None,None,None,,28,001,2023_Jan_24_1020,searchDisc5,2021.2.3,60.086442511322566,
images/exp2b_trial_129_colour1_distractors4_r.png,r,3,1,4,0,,,,,0,203,203,203,,,,,,,,,,,,,,,,,,,,,,,,,,,,,,,,,,,,,,,,,,,845.2655873850454,None,2,1.488038884010166,845.2655873850454,None,,,,,,,,,,,,,,,,None,None,None,,None,None,846.8015401730081,None,3,1,0.6042075229925103,846.8015401730081,None,847.3995689722418,None,None,None,None,,28,001,2023_Jan_24_1020,searchDisc5,2021.2.3,60.086442511322566,
images/exp2b_trial_145_colour1_distractors9_l.png,l,1,1,9,0,,,,,0,204,204,204,,,,,,,,,,,,,,,,,,,,,,,,,,,,,,,,,,,,,,,,,,,847.4180723120226,None,2,1.3211240639793687,847.4180723120226,None,,,,,,,,,,,,,,,,None,None,None,,None,None,848.7822792890365,None,1,1,0.8873290190240368,848.7822792890365,None,849.666294908215,None,None,None,None,,28,001,2023_Jan_24_1020,searchDisc5,2021.2.3,60.086442511322566,
images/exp1a_trial_228_colour1_distractors31_r.png,r,3,1,31,0,,,,,0,205,205,205,,,,,,,,,,,,,,,,,,,,,,,,,,,,,,,,,,,,,,,,,,,849.682360683044,None,2,1.2207857549656183,849.682360683044,None,,,,,,,,,,,,,,,,None,None,None,,None,None,850.9515361110098,None,3,1,0.5974686740082689,850.9515361110098,None,851.5488530062197,None,None,None,None,,28,001,2023_Jan_24_1020,searchDisc5,2021.2.3,60.086442511322566,
images/exp2b_trial_40_colour2_distractors19_r.png,r,3,2,19,0,,,,,0,206,206,206,,,,,,,,,,,,,,,,,,,,,,,,,,,,,,,,,,,,,,,,,,,851.5659420030424,None,2,1.3385329199954867,851.5659420030424,None,,,,,,,,,,,,,,,,None,None,None,,None,None,852.9494973510155,None,3,1,0.6690980219864286,852.9494973510155,None,853.6161808342498,None,None,None,None,,28,001,2023_Jan_24_1020,searchDisc5,2021.2.3,60.086442511322566,
images/exp2a_trial_240_colour1_distractors4_l.png,l,1,1,4,0,,,,,0,207,207,207,,,,,,,,,,,,,,,,,,,,,,,,,,,,,,,,,,,,,,,,,,,853.6330766580068,None,2,1.6731032579555176,853.6330766580068,None,,,,,,,,,,,,,,,,None,None,None,,None,None,855.3497355330037,None,1,1,0.5189298799959943,855.3497355330037,None,855.8656952322402,None,None,None,None,,28,001,2023_Jan_24_1020,searchDisc5,2021.2.3,60.086442511322566,
images/exp2b_trial_17_colour1_distractors9_l.png,l,1,1,9,0,,,,,0,208,208,208,,,,,,,,,,,,,,,,,,,,,,,,,,,,,,,,,,,,,,,,,,,855.8825043539982,None,2,1.4882257799617946,855.8825043539982,None,,,,,,,,,,,,,,,,None,None,None,,None,None,857.4187675350113,None,1,1,0.6197246939991601,857.4187675350113,None,858.0330744272272,None,None,None,None,,28,001,2023_Jan_24_1020,searchDisc5,2021.2.3,60.086442511322566,
images/exp2b_trial_181_colour2_distractors4_l.png,l,1,2,4,0,,,,,0,209,209,209,,,,,,,,,,,,,,,,,,,,,,,,,,,,,,,,,,,,,,,,,,,858.0494219630491,None,2,1.6545077460468747,858.0494219630491,None,,,,,,,,,,,,,,,,None,None,None,,None,None,859.7501653890358,None,1,1,0.4539801359642297,859.7501653890358,None,860.1997203412524,None,None,None,None,,28,001,2023_Jan_24_1020,searchDisc5,2021.2.3,60.086442511322566,
images/exp2b_trial_103_colour2_distractors9_r.png,r,3,2,9,0,,,,,0,210,210,210,,,,,,,,,,,,,,,,,,,,,,,,,,,,,,,,,,,,,,,,,,,860.2162174550467,None,2,1.5876923099858686,860.2162174550467,None,,,,,,,,,,,,,,,,None,None,None,,None,None,861.850215033046,None,3,1,0.5703220650320873,861.850215033046,None,862.4166009602544,None,None,None,None,,28,001,2023_Jan_24_1020,searchDisc5,2021.2.3,60.086442511322566,
images/exp2a_trial_98_colour1_distractors9_r.png,r,3,1,9,0,,,,,0,211,211,211,,,,,,,,,,,,,,,,,,,,,,,,,,,,,,,,,,,,,,,,,,,862.4332902250462,None,2,1.5874503160011955,862.4332902250462,None,,,,,,,,,,,,,,,,None,None,None,,None,None,864.0686472040252,None,3,1,0.6868504250305705,864.0686472040252,None,864.7499527751992,None,None,None,None,,28,001,2023_Jan_24_1020,searchDisc5,2021.2.3,60.086442511322566,
images/exp1a_trial_149_colour2_distractors4_l.png,l,1,2,4,0,,,,,0,212,212,212,,,,,,,,,,,,,,,,,,,,,,,,,,,,,,,,,,,,,,,,,,,864.7685212890501,None,2,1.654585066018626,864.7685212890501,None,,,,,,,,,,,,,,,,None,None,None,,None,None,866.4662666460499,None,1,1,0.5537915540044196,866.4662666460499,None,867.0164620412455,None,None,None,None,,28,001,2023_Jan_24_1020,searchDisc5,2021.2.3,60.086442511322566,
images/exp1a_trial_265_colour2_distractors31_r.png,r,3,2,31,0,,,,,0,213,213,213,,,,,,,,,,,,,,,,,,,,,,,,,,,,,,,,,,,,,,,,,,,867.0330671460251,None,2,1.6377587649622,867.0330671460251,None,,,,,,,,,,,,,,,,None,None,None,,None,None,868.7184322950197,None,3,1,0.7480897940113209,868.7184322950197,None,869.4662083792558,None,None,None,None,,28,001,2023_Jan_24_1020,searchDisc5,2021.2.3,60.086442511322566,
images/exp1a_trial_207_colour1_distractors1_l.png,l,1,1,1,0,,,,,0,214,214,214,,,,,,,,,,,,,,,,,,,,,,,,,,,,,,,,,,,,,,,,,,,869.4831623690552,None,2,3.2213727019843645,869.4831623690552,None,,,,,,,,,,,,,,,,None,None,None,,None,None,872.7503383910516,None,1,1,0.8384287250228226,872.7503383910516,None,873.5833474512386,None,None,None,None,,28,001,2023_Jan_24_1020,searchDisc5,2021.2.3,60.086442511322566,
images/exp2a_trial_161_colour1_distractors4_r.png,r,3,1,4,0,,,,,0,215,215,215,,,,,,,,,,,,,,,,,,,,,,,,,,,,,,,,,,,,,,,,,,,873.5998746040277,None,2,2.004455239046365,873.5998746040277,None,,,,,,,,,,,,,,,,None,None,None,,None,None,875.6497313569998,None,3,1,0.8538696640171111,875.6497313569998,None,876.5002635662153,None,None,None,None,,28,001,2023_Jan_24_1020,searchDisc5,2021.2.3,60.086442511322566,
images/exp1a_trial_38_colour2_distractors4_r.png,r,3,2,4,0,,,,,0,216,216,216,,,,,,,,,,,,,,,,,,,,,,,,,,,,,,,,,,,,,,,,,,,876.5169005750213,None,2,2.3395662190159783,876.5169005750213,None,,,,,,,,,,,,,,,,None,None,None,,None,None,878.9026596490294,None,3,1,0.7339398710173555,878.9026596490294,None,879.633127439249,None,None,None,None,,28,001,2023_Jan_24_1020,searchDisc5,2021.2.3,60.086442511322566,
images/exp2c_trial_178_colour1_distractors19_l.png,l,1,1,19,0,,,,,0,217,217,217,,,,,,,,,,,,,,,,,,,,,,,,,,,,,,,,,,,,,,,,,,,879.6502161960234,None,2,1.488157087995205,879.6502161960234,None,,,,,,,,,,,,,,,,None,None,None,,None,None,881.1859403530252,None,1,1,0.619654847017955,881.1859403530252,None,881.8004487492202,None,None,None,None,,28,001,2023_Jan_24_1020,searchDisc5,2021.2.3,60.086442511322566,
images/exp1a_trial_24_colour2_distractors31_l.png,l,1,2,31,0,,,,,0,218,218,218,,,,,,,,,,,,,,,,,,,,,,,,,,,,,,,,,,,,,,,,,,,881.8171525970101,None,2,1.6209993850206956,881.8171525970101,None,,,,,,,,,,,,,,,,None,None,None,,None,None,883.4832935690065,None,1,1,0.7981767369783483,883.4832935690065,None,884.2832696732424,None,None,None,None,,28,001,2023_Jan_24_1020,searchDisc5,2021.2.3,60.086442511322566,
images/exp2c_trial_92_colour3_distractors19_l.png,l,1,3,19,0,,,,,0,219,219,219,,,,,,,,,,,,,,,,,,,,,,,,,,,,,,,,,,,,,,,,,,,884.2998328750255,None,2,1.0882202759967186,884.2998328750255,None,,,,,,,,,,,,,,,,None,None,None,,None,None,885.4340369560523,None,3,0,0.9018024769611657,885.4340369560523,None,886.333207082242,None,None,None,None,,28,001,2023_Jan_24_1020,searchDisc5,2021.2.3,60.086442511322566,
images/exp2a_trial_158_colour0_distractors0_r.png,r,3,0,0,0,,,,,0,220,220,220,,,,,,,,,,,,,,,,,,,,,,,,,,,,,,,,,,,,,,,,,,,886.3504511670326,None,2,1.255161364970263,886.3504511670326,None,,,,,,,,,,,,,,,,None,None,None,,None,None,887.6530965400161,None,1,0,0.7718069520196877,887.6530965400161,None,888.4173275062407,None,None,None,None,,28,001,2023_Jan_24_1020,searchDisc5,2021.2.3,60.086442511322566,
images/exp1a_trial_96_colour1_distractors1_r.png,r,3,1,1,0,,,,,0,221,221,221,,,,,,,,,,,,,,,,,,,,,,,,,,,,,,,,,,,,,,,,,,,888.4358138910029,None,2,1.2565653079655021,888.4358138910029,None,,,,,,,,,,,,,,,,None,None,None,,None,None,889.7362446500338,None,3,1,0.8202798089478165,889.7362446500338,None,890.5508803032047,None,None,None,None,,28,001,2023_Jan_24_1020,searchDisc5,2021.2.3,60.086442511322566,
images/exp2c_trial_225_colour1_distractors4_r.png,r,3,1,4,0,,,,,0,222,222,222,,,,,,,,,,,,,,,,,,,,,,,,,,,,,,,,,,,,,,,,,,,890.5671049940283,None,2,1.536727692000568,890.5671049940283,None,,,,,,,,,,,,,,,,None,None,None,,None,None,892.1510445300373,None,3,1,0.7049842659616843,892.1510445300373,None,892.8504418672004,None,None,None,None,,28,001,2023_Jan_24_1020,searchDisc5,2021.2.3,60.086442511322566,
images/exp2c_trial_44_colour3_distractors9_r.png,r,3,3,9,0,,,,,0,223,223,223,,,,,,,,,,,,,,,,,,,,,,,,,,,,,,,,,,,,,,,,,,,892.8668626190047,None,2,1.2376677140127867,892.8668626190047,None,,,,,,,,,,,,,,,,None,None,None,,None,None,894.150240826013,None,3,1,1.2717671630089171,894.150240826013,None,895.4175922002236,None,None,None,None,,28,001,2023_Jan_24_1020,searchDisc5,2021.2.3,60.086442511322566,
images/exp2a_trial_39_colour2_distractors9_r.png,r,3,2,9,0,,,,,0,224,224,224,,,,,,,,,,,,,,,,,,,,,,,,,,,,,,,,,,,,,,,,,,,895.4355278510484,None,2,1.0696193740004674,895.4355278510484,None,,,,,,,,,,,,,,,,None,None,None,,None,None,896.5531088580028,None,3,1,0.8999078130000271,896.5531088580028,None,897.450600651215,None,None,None,None,,28,001,2023_Jan_24_1020,searchDisc5,2021.2.3,60.086442511322566,
images/exp2b_trial_36_colour1_distractors31_r.png,r,3,1,31,0,,,,,0,225,225,225,,,,,,,,,,,,,,,,,,,,,,,,,,,,,,,,,,,,,,,,,,,897.467065852019,None,2,0.9212429009494372,897.467065852019,None,,,,,,,,,,,,,,,,None,None,None,,None,None,898.4359559020377,None,1,0,1.4363453750265762,898.4359559020377,None,899.867573702248,None,None,None,None,,28,001,2023_Jan_24_1020,searchDisc5,2021.2.3,60.086442511322566,
