ImageFile,targ_side,correctAnswer,colour,distNo,targetType,trials_2.thisRepN,trials_2.thisTrialN,trials_2.thisN,trials_2.thisIndex,trials.thisRepN,trials.thisTrialN,trials.thisN,trials.thisIndex,text_6.started,text_6.stopped,buttonBox.keys,buttonBox.rt,buttonBox.started,buttonBox.stopped,text_7.started,text_7.stopped,buttonBox_3.keys,buttonBox_3.rt,buttonBox_3.started,buttonBox_3.stopped,text_8.started,text_8.stopped,buttonBox_4.keys,buttonBox_4.rt,buttonBox_4.started,buttonBox_4.stopped,text_9.started,text_9.stopped,buttonBox_5.keys,buttonBox_5.rt,buttonBox_5.started,buttonBox_5.stopped,text_2.started,text_2.stopped,buttonBox_6.keys,buttonBox_6.rt,buttonBox_6.started,buttonBox_6.stopped,text_5.started,text_5.stopped,buttonBox_7.keys,buttonBox_7.rt,image_2.started,image_2.stopped,image_3.started,image_3.stopped,buttonBox_8.keys,buttonBox_8.rt,buttonBox_8.started,buttonBox_8.stopped,polygon.started,polygon.stopped,buttonBox_9.keys,buttonBox_9.rt,buttonBox_9.started,buttonBox_9.stopped,image.started,image.stopped,buttonBox_10.keys,buttonBox_10.corr,buttonBox_10.rt,buttonBox_10.started,buttonBox_10.stopped,text_4.started,text_4.stopped,text.started,text.stopped,buttonBox_11.keys,buttonBox_11.rt,buttonBox_11.started,buttonBox_11.stopped,targetTypeInstruction.started,targetTypeInstruction.stopped,buttonBox_2.keys,buttonBox_2.rt,buttonBox_2.started,buttonBox_2.stopped,dispStimuli.started,dispStimuli.stopped,buttonBox_12.keys,buttonBox_12.corr,buttonBox_12.rt,buttonBox_12.started,buttonBox_12.stopped,breakMessage.started,breakMessage.stopped,buttonBox_13.keys,buttonBox_13.started,buttonBox_13.stopped,buttonBox_13.rt,participant,session,date,expName,psychopyVersion,frameRate,
,,,,,,,,,,,,,,11.354434133012546,None,2,41.57182690699119,11.354434133012546,None,,,,,,,,,,,,,,,,,,,,,,,,,,,,,,,,,,,,,,,,,,,,,,,,,,,,,,,,,,,,,,,,,,,,,,,,,,,,,2,001,2023_Jan_18_1003,searchDisc5,2021.2.3,59.9996096398467,
,,,,,,,,,,,,,,,,,,,,52.919794284011004,None,2,50.14881081401836,52.919794284011004,None,,,,,,,,,,,,,,,,,,,,,,,,,,,,,,,,,,,,,,,,,,,,,,,,,,,,,,,,,,,,,,,,,,,,,,,2,001,2023_Jan_18_1003,searchDisc5,2021.2.3,59.9996096398467,
,,,,,,,,,,,,,,,,,,,,,,,,,,103.07086842501303,None,2,23.63174782099668,103.07086842501303,None,,,,,,,,,,,,,,,,,,,,,,,,,,,,,,,,,,,,,,,,,,,,,,,,,,,,,,,,,,,,,,,,,2,001,2023_Jan_18_1003,searchDisc5,2021.2.3,59.9996096398467,
,,,,,,,,,,,,,,,,,,,,,,,,,,,,,,,,126.70429133900325,None,2,10.781281005009077,126.70429133900325,None,,,,,,,,,,,,,,,,,,,,,,,,,,,,,,,,,,,,,,,,,,,,,,,,,,,,,,,,,,,2,001,2023_Jan_18_1003,searchDisc5,2021.2.3,59.9996096398467,
,,,,,,,,,,,,,,,,,,,,,,,,,,,,,,,,,,,,,,137.48848296300275,None,2,8.964931863010861,138.4738307140069,None,,,,,,,,,,,,,,,,,,,,,,,,,,,,,,,,,,,,,,,,,,,,,,,,,,,,,2,001,2023_Jan_18_1003,searchDisc5,2021.2.3,59.9996096398467,
,,,,,,,,,,,,,,,,,,,,,,,,,,,,,,,,,,,,,,,,,,,,147.4408905970049,None,2,10.467057261004811,,,,,,,,,,,,,,,,,,,,,,,,,,,,,,,,,,,,,,,,,,,,,,,,,2,001,2023_Jan_18_1003,searchDisc5,2021.2.3,59.9996096398467,
,,,,,,,,,,,,,,,,,,,,,,,,,,,,,,,,,,,,,,,,,,,,,,,,160.9245742619969,None,160.9245742619969,None,2,23.145776694000233,160.9245742619969,None,,,,,,,,,,,,,,,,,,,,,,,,,,,,,,,,,,,,,,,,,2,001,2023_Jan_18_1003,searchDisc5,2021.2.3,59.9996096398467,
Practice arrays/exp1a_trial_18_colour1_distractors19_l.png,l,1,,,,0,0,0,8,,,,,,,,,,,,,,,,,,,,,,,,,,,,,,,,,,,,,,,,,,,,,,,184.09126582700992,None,2,9.666965661017457,184.09126582700992,None,193.8113792320073,None,3,0,3.4355550309992395,193.8113792320073,None,197.25850919200457,None,,,,,,,,,,,,,,,,,,,,,,,,,,2,001,2023_Jan_18_1003,searchDisc5,2021.2.3,59.9996096398467,
Practice arrays/exp1a_trial_7_colour2_distractors9_r.png,r,3,,,,0,1,1,2,,,,,,,,,,,,,,,,,,,,,,,,,,,,,,,,,,,,,,,,,,,,,,,199.25858345700544,None,2,2.1637894680025056,199.25858345700544,None,201.47580287401797,None,3,1,3.966691608016845,201.47580287401797,None,205.4403678420058,None,,,,,,,,,,,,,,,,,,,,,,,,,,2,001,2023_Jan_18_1003,searchDisc5,2021.2.3,59.9996096398467,
Practice arrays/exp1a_trial_14_colour3_distractors31_r.png,r,3,,,,0,2,2,6,,,,,,,,,,,,,,,,,,,,,,,,,,,,,,,,,,,,,,,,,,,,,,,207.44254544901196,None,2,0.8140990859828889,207.44254544901196,None,208.30933206301415,None,3,1,0.832844076998299,208.30933206301415,None,209.14050607100944,None,,,,,,,,,,,,,,,,,,,,,,,,,,2,001,2023_Jan_18_1003,searchDisc5,2021.2.3,59.9996096398467,
Practice arrays/exp1a_trial_25_colour3_distractors1_l.png,l,1,,,,0,3,3,11,,,,,,,,,,,,,,,,,,,,,,,,,,,,,,,,,,,,,,,,,,,,,,,211.1424108320207,None,2,3.213895091001177,211.1424108320207,None,214.4095574899984,None,1,1,1.104595201992197,214.4095574899984,None,215.50732180502382,None,,,,,,,,,,,,,,,,,,,,,,,,,,2,001,2023_Jan_18_1003,searchDisc5,2021.2.3,59.9996096398467,
Practice arrays/exp1a_trial_10_colour3_distractors1_r.png,r,3,,,,0,4,4,4,,,,,,,,,,,,,,,,,,,,,,,,,,,,,,,,,,,,,,,,,,,,,,,217.50907481601462,None,2,0.7805446890124585,217.50907481601462,None,218.34027043401147,None,3,1,0.8878942709998228,218.34027043401147,None,219.22415862302296,None,,,,,,,,,,,,,,,,,,,,,,,,,,2,001,2023_Jan_18_1003,searchDisc5,2021.2.3,59.9996096398467,
Practice arrays/exp1a_trial_17_colour1_distractors9_l.png,l,1,,,,0,5,5,7,,,,,,,,,,,,,,,,,,,,,,,,,,,,,,,,,,,,,,,,,,,,,,,221.22628668800462,None,2,0.5805109050124884,221.22628668800462,None,221.8577117579989,None,3,0,0.8521145150007214,221.8577117579989,None,222.70745618702495,None,,,,,,,,,,,,,,,,,,,,,,,,,,2,001,2023_Jan_18_1003,searchDisc5,2021.2.3,59.9996096398467,
Practice arrays/exp1a_trial_16_colour1_distractors4_l.png,l,1,,,,0,6,6,13,,,,,,,,,,,,,,,,,,,,,,,,,,,,,,,,,,,,,,,,,,,,,,,224.70939809601987,None,2,0.814782703993842,224.70939809601987,None,225.5765325690154,None,1,1,0.8538766840065364,225.5765325690154,None,226.42425026302226,None,,,,,,,,,,,,,,,,,,,,,,,,,,2,001,2023_Jan_18_1003,searchDisc5,2021.2.3,59.9996096398467,
Practice arrays/exp1a_trial_30_colour0_distractors0_r.png,r,3,,,,0,7,7,14,,,,,,,,,,,,,,,,,,,,,,,,,,,,,,,,,,,,,,,,,,,,,,,228.42635730901384,None,2,0.997498048003763,228.42635730901384,None,229.474735359021,None,3,1,0.8549461050133687,229.474735359021,None,230.32448094300344,None,,,,,,,,,,,,,,,,,,,,,,,,,,2,001,2023_Jan_18_1003,searchDisc5,2021.2.3,59.9996096398467,
Practice arrays/exp1a_trial_23_colour2_distractors19_l.png,l,1,,,,0,8,8,10,,,,,,,,,,,,,,,,,,,,,,,,,,,,,,,,,,,,,,,,,,,,,,,232.32612528200843,None,2,0.866020324989222,232.32612528200843,None,233.24340910901083,None,1,1,0.8999024929944426,233.24340910901083,None,234.14116929101874,None,,,,,,,,,,,,,,,,,,,,,,,,,,2,001,2023_Jan_18_1003,searchDisc5,2021.2.3,59.9996096398467,
Practice arrays/exp1a_trial_0_colour1_distractors1_r.png,r,3,,,,0,9,9,0,,,,,,,,,,,,,,,,,,,,,,,,,,,,,,,,,,,,,,,,,,,,,,,236.14329622199875,None,2,1.0327426090079825,236.14329622199875,None,237.2263473480125,None,3,1,1.0359148559800815,237.2263473480125,None,238.25804962601978,None,,,,,,,,,,,,,,,,,,,,,,,,,,2,001,2023_Jan_18_1003,searchDisc5,2021.2.3,59.9996096398467,
Practice arrays/exp1a_trial_31_colour0_distractors0_l.png,l,1,,,,0,10,10,15,,,,,,,,,,,,,,,,,,,,,,,,,,,,,,,,,,,,,,,,,,,,,,,240.26007544001914,None,2,1.2810810529917944,240.26007544001914,None,241.59091879602056,None,1,1,0.7714281200023834,241.59091879602056,None,242.35736921301577,None,,,,,,,,,,,,,,,,,,,,,,,,,,2,001,2023_Jan_18_1003,searchDisc5,2021.2.3,59.9996096398467,
Practice arrays/exp1a_trial_27_colour3_distractors9_l.png,l,1,,,,0,11,11,12,,,,,,,,,,,,,,,,,,,,,,,,,,,,,,,,,,,,,,,,,,,,,,,244.3596695040178,None,2,0.6304455100034829,244.3596695040178,None,245.04160035200766,None,1,1,0.6697364390129223,245.04160035200766,None,245.70776439202018,None,,,,,,,,,,,,,,,,,,,,,,,,,,2,001,2023_Jan_18_1003,searchDisc5,2021.2.3,59.9996096398467,
Practice arrays/exp1a_trial_8_colour2_distractors19_r.png,r,3,,,,0,12,12,3,,,,,,,,,,,,,,,,,,,,,,,,,,,,,,,,,,,,,,,,,,,,,,,247.71022060600808,None,2,0.5631757809896953,247.71022060600808,None,248.32452299800934,None,3,1,0.7481891659845132,248.32452299800934,None,249.0750091850059,None,,,,,,,,,,,,,,,,,,,,,,,,,,2,001,2023_Jan_18_1003,searchDisc5,2021.2.3,59.9996096398467,
Practice arrays/exp1a_trial_1_colour1_distractors4_r.png,r,3,,,,0,13,13,1,,,,,,,,,,,,,,,,,,,,,,,,,,,,,,,,,,,,,,,,,,,,,,,251.07629706000444,None,2,0.896897839003941,251.07629706000444,None,252.02440012502484,None,3,1,0.7300437260128092,252.02440012502484,None,252.75825266502216,None,,,,,,,,,,,,,,,,,,,,,,,,,,2,001,2023_Jan_18_1003,searchDisc5,2021.2.3,59.9996096398467,
Practice arrays/exp1a_trial_21_colour2_distractors4_l.png,l,1,,,,0,14,14,9,,,,,,,,,,,,,,,,,,,,,,,,,,,,,,,,,,,,,,,,,,,,,,,254.7583623030223,None,2,0.8178281699947547,254.7583623030223,None,255.62703515400062,None,1,1,0.668897730007302,255.62703515400062,None,256.2911944540101,None,,,,,,,,,,,,,,,,,,,,,,,,,,2,001,2023_Jan_18_1003,searchDisc5,2021.2.3,59.9996096398467,
Practice arrays/exp1a_trial_12_colour3_distractors9_r.png,r,3,,,,0,15,15,5,,,,,,,,,,,,,,,,,,,,,,,,,,,,,,,,,,,,,,,,,,,,,,,258.29388508200645,None,2,0.7639470400172286,258.29388508200645,None,259.1085366140178,None,3,1,0.7519326960027684,259.1085366140178,None,259.8584838100069,None,,,,,,,,,,,,,,,,,,,,,,,,,,2,001,2023_Jan_18_1003,searchDisc5,2021.2.3,59.9996096398467,
,,,,,,,,,,,,,,,,,,,,,,,,,,,,,,,,,,,,,,,,,,,,,,,,,,,,,,,,,,,,,,,,,,,,,,,261.9439805790025,None,2,4.033758864999982,262.9274687160214,None,,,,,,,,,,,,,,,,,,,,2,001,2023_Jan_18_1003,searchDisc5,2021.2.3,59.9996096398467,
images/exp1a_trial_243_colour1_distractors31_l.png,l,1,1,31,0,,,,,0,0,0,0,,,,,,,,,,,,,,,,,,,,,,,,,,,,,,,,,,,,,,,,,,,276.9587770400103,None,2,1.2455347240029369,276.9587770400103,None,,,,,,,,,,,,,,,,267.5610700310208,None,2,7.415038639010163,269.5440688939998,None,278.2757400170085,None,1,1,0.924525957001606,278.2757400170085,None,279.2089265794202,None,None,None,None,,2,001,2023_Jan_18_1003,searchDisc5,2021.2.3,59.9996096398467,
images/exp2a_trial_105_colour2_distractors31_r.png,r,3,2,31,0,,,,,0,1,1,1,,,,,,,,,,,,,,,,,,,,,,,,,,,,,,,,,,,,,,,,,,,279.22772580801393,None,2,1.354685544007225,279.22772580801393,None,,,,,,,,,,,,,,,,None,None,None,,None,None,280.6262459070131,None,3,1,1.0586685719899833,280.6262459070131,None,281.6923134042154,None,None,None,None,,2,001,2023_Jan_18_1003,searchDisc5,2021.2.3,59.9996096398467,
images/exp2b_trial_209_colour1_distractors9_l.png,l,1,1,9,0,,,,,0,2,2,2,,,,,,,,,,,,,,,,,,,,,,,,,,,,,,,,,,,,,,,,,,,281.70882205001544,None,2,0.9035197409975808,281.70882205001544,None,,,,,,,,,,,,,,,,None,None,None,,None,None,282.6615652629989,None,1,1,0.9842600059928373,282.6615652629989,None,283.6422174192121,None,None,None,None,,2,001,2023_Jan_18_1003,searchDisc5,2021.2.3,59.9996096398467,
images/exp2b_trial_311_colour2_distractors19_l.png,l,1,2,19,0,,,,,0,3,3,3,,,,,,,,,,,,,,,,,,,,,,,,,,,,,,,,,,,,,,,,,,,283.6590904900222,None,2,0.8713039880094584,283.6590904900222,None,,,,,,,,,,,,,,,,None,None,None,,None,None,284.57567458201083,None,1,1,0.8017430850013625,284.57567458201083,None,285.3752945332235,None,None,None,None,,2,001,2023_Jan_18_1003,searchDisc5,2021.2.3,59.9996096398467,
images/exp2a_trial_102_colour2_distractors4_r.png,r,3,2,4,0,,,,,0,4,4,4,,,,,,,,,,,,,,,,,,,,,,,,,,,,,,,,,,,,,,,,,,,285.3917827960104,None,2,0.824792879022425,285.3917827960104,None,,,,,,,,,,,,,,,,None,None,None,,None,None,286.2588074890082,None,3,1,0.7128903630073182,286.2588074890082,None,286.9758271592,None,None,None,None,,2,001,2023_Jan_18_1003,searchDisc5,2021.2.3,59.9996096398467,
images/exp2a_trial_287_colour0_distractors0_l.png,l,1,0,0,0,,,,,0,5,5,5,,,,,,,,,,,,,,,,,,,,,,,,,,,,,,,,,,,,,,,,,,,286.99246507300995,None,2,0.786290051008109,286.99246507300995,None,,,,,,,,,,,,,,,,None,None,None,,None,None,287.8279782680038,None,1,1,0.6720810730184894,287.8279782680038,None,288.49254704521445,None,None,None,None,,2,001,2023_Jan_18_1003,searchDisc5,2021.2.3,59.9996096398467,
images/exp1a_trial_74_colour3_distractors1_r.png,r,3,3,1,0,,,,,0,6,6,6,,,,,,,,,,,,,,,,,,,,,,,,,,,,,,,,,,,,,,,,,,,288.50838509501773,None,2,0.8041934239736293,288.50838509501773,None,,,,,,,,,,,,,,,,None,None,None,,None,None,289.35939290901297,None,3,1,0.6872945689829066,289.35939290901297,None,290.04249622921634,None,None,None,None,,2,001,2023_Jan_18_1003,searchDisc5,2021.2.3,59.9996096398467,
images/exp2c_trial_244_colour2_distractors1_l.png,l,1,2,1,0,,,,,0,7,7,7,,,,,,,,,,,,,,,,,,,,,,,,,,,,,,,,,,,,,,,,,,,290.0609523419989,None,2,0.7033299749891739,290.0609523419989,None,,,,,,,,,,,,,,,,None,None,None,,None,None,290.8114781790064,None,1,1,0.8693294400000013,290.8114781790064,None,291.6758489332133,None,None,None,None,,2,001,2023_Jan_18_1003,searchDisc5,2021.2.3,59.9996096398467,
images/exp2b_trial_285_colour3_distractors31_l.png,l,1,3,31,0,,,,,0,8,8,8,,,,,,,,,,,,,,,,,,,,,,,,,,,,,,,,,,,,,,,,,,,291.69200751101016,None,2,0.6547798569954466,291.69200751101016,None,,,,,,,,,,,,,,,,None,None,None,,None,None,292.3923417580081,None,1,1,0.7848909400054254,292.3923417580081,None,293.17591993721726,None,None,None,None,,2,001,2023_Jan_18_1003,searchDisc5,2021.2.3,59.9996096398467,
images/exp1a_trial_110_colour3_distractors31_r.png,r,3,3,31,0,,,,,0,9,9,9,,,,,,,,,,,,,,,,,,,,,,,,,,,,,,,,,,,,,,,,,,,293.19263316501747,None,2,0.6065349940035958,293.19263316501747,None,,,,,,,,,,,,,,,,None,None,None,,None,None,293.8468308900192,None,3,1,0.7127942439983599,293.8468308900192,None,294.55933035320777,None,None,None,None,,2,001,2023_Jan_18_1003,searchDisc5,2021.2.3,59.9996096398467,
images/exp2a_trial_179_colour1_distractors31_l.png,l,1,1,31,0,,,,,0,10,10,10,,,,,,,,,,,,,,,,,,,,,,,,,,,,,,,,,,,,,,,,,,,294.57627469999716,None,2,0.5390680620039348,294.57627469999716,None,,,,,,,,,,,,,,,,None,None,None,,None,None,295.16174571600277,None,1,1,0.6815985889988951,295.16174571600277,None,295.84200201822387,None,None,None,None,,2,001,2023_Jan_18_1003,searchDisc5,2021.2.3,59.9996096398467,
images/exp1a_trial_171_colour3_distractors4_r.png,r,3,3,4,0,,,,,0,11,11,11,,,,,,,,,,,,,,,,,,,,,,,,,,,,,,,,,,,,,,,,,,,295.8613218690152,None,2,0.5739694219955709,295.8613218690152,None,,,,,,,,,,,,,,,,None,None,None,,None,None,296.47562333301175,None,3,1,0.6180200339877047,296.47562333301175,None,297.0928589262039,None,None,None,None,,2,001,2023_Jan_18_1003,searchDisc5,2021.2.3,59.9996096398467,
images/exp2b_trial_317_colour3_distractors31_l.png,l,1,3,31,0,,,,,0,12,12,12,,,,,,,,,,,,,,,,,,,,,,,,,,,,,,,,,,,,,,,,,,,297.1115092940163,None,2,0.4876322050113231,297.1115092940163,None,,,,,,,,,,,,,,,,None,None,None,,None,None,297.64499115000945,None,1,1,0.7693071239918936,297.64499115000945,None,298.4095491551998,None,None,None,None,,2,001,2023_Jan_18_1003,searchDisc5,2021.2.3,59.9996096398467,
images/exp2a_trial_278_colour2_distractors9_l.png,l,1,2,9,0,,,,,0,13,13,13,,,,,,,,,,,,,,,,,,,,,,,,,,,,,,,,,,,,,,,,,,,298.4281561350217,None,2,0.47021465000580065,298.4281561350217,None,,,,,,,,,,,,,,,,None,None,None,,None,None,298.9451418380195,None,1,1,1.0993177680065855,298.9451418380195,None,300.0422018891986,None,None,None,None,,2,001,2023_Jan_18_1003,searchDisc5,2021.2.3,59.9996096398467,
images/exp2a_trial_44_colour3_distractors9_r.png,r,3,3,9,0,,,,,0,14,14,14,,,,,,,,,,,,,,,,,,,,,,,,,,,,,,,,,,,,,,,,,,,300.05988234700635,None,2,0.5880136369960383,300.05988234700635,None,,,,,,,,,,,,,,,,None,None,None,,None,None,300.6930389270128,None,3,1,0.8704220099898521,300.6930389270128,None,301.5595166802086,None,None,None,None,,2,001,2023_Jan_18_1003,searchDisc5,2021.2.3,59.9996096398467,
images/exp2a_trial_29_colour3_distractors31_l.png,l,1,3,31,0,,,,,0,15,15,15,,,,,,,,,,,,,,,,,,,,,,,,,,,,,,,,,,,,,,,,,,,301.5761505929986,None,2,0.4561461910197977,301.5761505929986,None,,,,,,,,,,,,,,,,None,None,None,,None,None,302.07652748402325,None,1,1,0.7636028770066332,302.07652748402325,None,302.84306862521044,None,None,None,None,,2,001,2023_Jan_18_1003,searchDisc5,2021.2.3,59.9996096398467,
images/exp2a_trial_279_colour2_distractors19_l.png,l,1,2,19,0,,,,,0,16,16,16,,,,,,,,,,,,,,,,,,,,,,,,,,,,,,,,,,,,,,,,,,,302.85954778600717,None,2,0.425152588984929,302.85954778600717,None,,,,,,,,,,,,,,,,None,None,None,,None,None,303.33367309800815,None,1,1,1.0261954779853113,303.33367309800815,None,304.3596748412092,None,None,None,None,,2,001,2023_Jan_18_1003,searchDisc5,2021.2.3,59.9996096398467,
images/exp2b_trial_44_colour3_distractors9_r.png,r,3,3,9,0,,,,,0,17,17,17,,,,,,,,,,,,,,,,,,,,,,,,,,,,,,,,,,,,,,,,,,,304.3759453020175,None,2,0.43762365699512884,304.3759453020175,None,,,,,,,,,,,,,,,,None,None,None,,None,None,304.86215100600384,None,3,1,0.7531436030112673,304.86215100600384,None,305.60976181821025,None,None,None,None,,2,001,2023_Jan_18_1003,searchDisc5,2021.2.3,59.9996096398467,
images/exp2b_trial_257_colour1_distractors4_r.png,r,3,1,4,0,,,,,0,18,18,18,,,,,,,,,,,,,,,,,,,,,,,,,,,,,,,,,,,,,,,,,,,305.62600836201455,None,2,0.38768165701185353,305.62600836201455,None,,,,,,,,,,,,,,,,None,None,None,,None,None,306.0619229180156,None,3,1,0.787627693003742,306.0619229180156,None,306.8431146211951,None,None,None,None,,2,001,2023_Jan_18_1003,searchDisc5,2021.2.3,59.9996096398467,
images/exp2c_trial_206_colour3_distractors31_r.png,r,3,3,31,0,,,,,0,19,19,19,,,,,,,,,,,,,,,,,,,,,,,,,,,,,,,,,,,,,,,,,,,306.85935502301436,None,2,0.47490815800847486,306.85935502301436,None,,,,,,,,,,,,,,,,None,None,None,,None,None,307.3791789399984,None,3,1,1.0306172360142227,307.3791789399984,None,308.4096404212032,None,None,None,None,,2,001,2023_Jan_18_1003,searchDisc5,2021.2.3,59.9996096398467,
images/exp2a_trial_66_colour1_distractors9_r.png,r,3,1,9,0,,,,,0,20,20,20,,,,,,,,,,,,,,,,,,,,,,,,,,,,,,,,,,,,,,,,,,,308.4263206020114,None,2,0.38783408200833946,308.4263206020114,None,,,,,,,,,,,,,,,,None,None,None,,None,None,308.85985117801465,None,3,1,0.7362785690056626,308.85985117801465,None,309.59297375821916,None,None,None,None,,2,001,2023_Jan_18_1003,searchDisc5,2021.2.3,59.9996096398467,
images/exp1a_trial_91_colour3_distractors9_l.png,l,1,3,9,0,,,,,0,21,21,21,,,,,,,,,,,,,,,,,,,,,,,,,,,,,,,,,,,,,,,,,,,309.6092231530056,None,2,0.354185899021104,309.6092231530056,None,,,,,,,,,,,,,,,,None,None,None,,None,None,310.0097850690072,None,1,1,0.6868699050100986,310.0097850690072,None,310.69373608719616,None,None,None,None,,2,001,2023_Jan_18_1003,searchDisc5,2021.2.3,59.9996096398467,
images/exp2a_trial_304_colour1_distractors4_l.png,l,1,1,4,0,,,,,0,22,22,22,,,,,,,,,,,,,,,,,,,,,,,,,,,,,,,,,,,,,,,,,,,310.71031618100824,None,2,0.38768992701079696,310.71031618100824,None,,,,,,,,,,,,,,,,None,None,None,,None,None,311.14598631401896,None,1,1,0.788193548010895,311.14598631401896,None,311.9265897252044,None,None,None,None,,2,001,2023_Jan_18_1003,searchDisc5,2021.2.3,59.9996096398467,
images/exp1a_trial_258_colour1_distractors9_r.png,r,3,1,9,0,,,,,0,23,23,23,,,,,,,,,,,,,,,,,,,,,,,,,,,,,,,,,,,,,,,,,,,311.94331502800924,None,2,0.4054228260065429,311.94331502800924,None,,,,,,,,,,,,,,,,None,None,None,,None,None,312.3964574150159,None,3,1,1.1678471290215384,312.3964574150159,None,313.56093463320576,None,None,None,None,,2,001,2023_Jan_18_1003,searchDisc5,2021.2.3,59.9996096398467,
images/exp1a_trial_206_colour3_distractors31_r.png,r,3,3,31,0,,,,,0,24,24,24,,,,,,,,,,,,,,,,,,,,,,,,,,,,,,,,,,,,,,,,,,,313.5771813940082,None,2,0.3877658330020495,313.5771813940082,None,,,,,,,,,,,,,,,,None,None,None,,None,None,314.0123938190227,None,3,1,0.881131344998721,314.0123938190227,None,314.8932332192053,None,None,None,None,,2,001,2023_Jan_18_1003,searchDisc5,2021.2.3,59.9996096398467,
images/exp2b_trial_210_colour1_distractors19_l.png,l,1,1,19,0,,,,,0,25,25,25,,,,,,,,,,,,,,,,,,,,,,,,,,,,,,,,,,,,,,,,,,,314.91055343902553,None,2,0.3216122240119148,314.91055343902553,None,,,,,,,,,,,,,,,,None,None,None,,None,None,315.27684895700077,None,1,1,1.1863173010060564,315.27684895700077,None,316.4610142252204,None,None,None,None,,2,001,2023_Jan_18_1003,searchDisc5,2021.2.3,59.9996096398467,
images/exp2c_trial_140_colour3_distractors9_r.png,r,3,3,9,0,,,,,0,26,26,26,,,,,,,,,,,,,,,,,,,,,,,,,,,,,,,,,,,,,,,,,,,316.47657766600605,None,2,0.33565310001722537,316.47657766600605,None,,,,,,,,,,,,,,,,None,None,None,,None,None,316.86051273799967,None,3,1,0.8225818260107189,316.86051273799967,None,317.6788538881956,None,None,None,None,,2,001,2023_Jan_18_1003,searchDisc5,2021.2.3,59.9996096398467,
images/exp2c_trial_154_colour3_distractors4_l.png,l,1,3,4,0,,,,,0,27,27,27,,,,,,,,,,,,,,,,,,,,,,,,,,,,,,,,,,,,,,,,,,,317.69333582301624,None,2,0.2687797580147162,317.69333582301624,None,,,,,,,,,,,,,,,,None,None,None,,None,None,318.0134239720064,None,1,1,1.103539013012778,318.0134239720064,None,319.1095133052004,None,None,None,None,,2,001,2023_Jan_18_1003,searchDisc5,2021.2.3,59.9996096398467,
images/exp1a_trial_129_colour1_distractors4_r.png,r,3,1,4,0,,,,,0,28,28,28,,,,,,,,,,,,,,,,,,,,,,,,,,,,,,,,,,,,,,,,,,,319.1297252960212,None,2,0.3218940200167708,319.1297252960212,None,,,,,,,,,,,,,,,,None,None,None,,None,None,319.4956983489974,None,3,1,0.736471756012179,319.4956983489974,None,320.22616700422077,None,None,None,None,,2,001,2023_Jan_18_1003,searchDisc5,2021.2.3,59.9996096398467,
images/exp2a_trial_252_colour3_distractors19_l.png,l,1,3,19,0,,,,,0,29,29,29,,,,,,,,,,,,,,,,,,,,,,,,,,,,,,,,,,,,,,,,,,,320.2442396780243,None,2,0.2889138750033453,320.2442396780243,None,,,,,,,,,,,,,,,,None,None,None,,None,None,320.57698246699874,None,1,1,0.78478751599323,320.57698246699874,None,321.3601029061974,None,None,None,None,,2,001,2023_Jan_18_1003,searchDisc5,2021.2.3,59.9996096398467,
images/exp2a_trial_194_colour1_distractors9_r.png,r,3,1,9,0,,,,,0,30,30,30,,,,,,,,,,,,,,,,,,,,,,,,,,,,,,,,,,,,,,,,,,,321.3768043780001,None,2,0.32359850499778986,321.3768043780001,None,,,,,,,,,,,,,,,,None,None,None,,None,None,321.7462606129993,None,3,1,0.9171993789786939,321.7462606129993,None,322.66013594721153,None,None,None,None,,2,001,2023_Jan_18_1003,searchDisc5,2021.2.3,59.9996096398467,
images/exp2a_trial_92_colour3_distractors19_l.png,l,1,3,19,0,,,,,0,31,31,31,,,,,,,,,,,,,,,,,,,,,,,,,,,,,,,,,,,,,,,,,,,322.6768204780237,None,2,0.30409654902177863,322.6768204780237,None,,,,,,,,,,,,,,,,None,None,None,,None,None,323.0277950510208,None,1,1,0.7378587799903471,323.0277950510208,None,323.7611238561949,None,None,None,None,,2,001,2023_Jan_18_1003,searchDisc5,2021.2.3,59.9996096398467,
images/exp1a_trial_120_colour2_distractors31_l.png,l,1,2,31,0,,,,,0,32,32,32,,,,,,,,,,,,,,,,,,,,,,,,,,,,,,,,,,,,,,,,,,,323.77732810901944,None,2,0.3720845259958878,323.77732810901944,None,,,,,,,,,,,,,,,,None,None,None,,None,None,324.19313912501093,None,1,1,0.8969569560140371,324.19313912501093,None,325.09366792622313,None,None,None,None,,2,001,2023_Jan_18_1003,searchDisc5,2021.2.3,59.9996096398467,
images/exp2b_trial_23_colour2_distractors19_l.png,l,1,2,19,0,,,,,0,33,33,33,,,,,,,,,,,,,,,,,,,,,,,,,,,,,,,,,,,,,,,,,,,325.1101812380075,None,2,0.3704122480121441,325.1101812380075,None,,,,,,,,,,,,,,,,None,None,None,,None,None,325.53042862500297,None,1,1,0.7709794969996437,325.53042862500297,None,326.2936663811997,None,None,None,None,,2,001,2023_Jan_18_1003,searchDisc5,2021.2.3,59.9996096398467,
images/exp2b_trial_197_colour2_distractors1_r.png,r,3,2,1,0,,,,,0,34,34,34,,,,,,,,,,,,,,,,,,,,,,,,,,,,,,,,,,,,,,,,,,,326.3120232410147,None,2,0.37002335698343813,326.3120232410147,None,,,,,,,,,,,,,,,,None,None,None,,None,None,326.730003218021,None,3,1,0.7546036899730098,326.730003218021,None,327.4770534841955,None,None,None,None,,2,001,2023_Jan_18_1003,searchDisc5,2021.2.3,59.9996096398467,
images/exp1a_trial_164_colour1_distractors31_r.png,r,3,1,31,0,,,,,0,35,35,35,,,,,,,,,,,,,,,,,,,,,,,,,,,,,,,,,,,,,,,,,,,327.4946951410093,None,2,0.305068488989491,327.4946951410093,None,,,,,,,,,,,,,,,,None,None,None,,None,None,327.8438642320107,None,3,1,1.2145569800049998,327.8438642320107,None,329.0606216672022,None,None,None,None,,2,001,2023_Jan_18_1003,searchDisc5,2021.2.3,59.9996096398467,
images/exp2a_trial_308_colour2_distractors1_l.png,l,1,2,1,0,,,,,0,36,36,36,,,,,,,,,,,,,,,,,,,,,,,,,,,,,,,,,,,,,,,,,,,329.07997186802095,None,2,0.288484236021759,329.07997186802095,None,,,,,,,,,,,,,,,,None,None,None,,None,None,329.4099873750238,None,1,1,0.8867504959926009,329.4099873750238,None,330.2938258751965,None,None,None,None,,2,001,2023_Jan_18_1003,searchDisc5,2021.2.3,59.9996096398467,
images/exp2b_trial_283_colour3_distractors9_l.png,l,1,3,9,0,,,,,0,37,37,37,,,,,,,,,,,,,,,,,,,,,,,,,,,,,,,,,,,,,,,,,,,330.310265549022,None,2,0.3204852100170683,330.310265549022,None,,,,,,,,,,,,,,,,None,None,None,,None,None,330.6773557450215,None,1,1,0.8540279800072312,330.6773557450215,None,331.5271217982081,None,None,None,None,,2,001,2023_Jan_18_1003,searchDisc5,2021.2.3,59.9996096398467,
images/exp2b_trial_78_colour3_distractors31_r.png,r,3,3,31,0,,,,,0,38,38,38,,,,,,,,,,,,,,,,,,,,,,,,,,,,,,,,,,,,,,,,,,,331.54374754201854,None,2,0.35457337100524455,331.54374754201854,None,,,,,,,,,,,,,,,,None,None,None,,None,None,331.94464547900134,None,3,1,0.7848113759828266,331.94464547900134,None,332.7272028642037,None,None,None,None,,2,001,2023_Jan_18_1003,searchDisc5,2021.2.3,59.9996096398467,
images/exp1a_trial_57_colour3_distractors1_l.png,l,1,3,1,0,,,,,0,39,39,39,,,,,,,,,,,,,,,,,,,,,,,,,,,,,,,,,,,,,,,,,,,332.7444995010155,None,2,0.2877495269931387,332.7444995010155,None,,,,,,,,,,,,,,,,None,None,None,,None,None,333.0803426700004,None,1,1,0.671703118016012,333.0803426700004,None,333.7440513121983,None,None,None,None,,2,001,2023_Jan_18_1003,searchDisc5,2021.2.3,59.9996096398467,
images/exp2b_trial_46_colour3_distractors31_r.png,r,3,3,31,0,,,,,0,40,40,40,,,,,,,,,,,,,,,,,,,,,,,,,,,,,,,,,,,,,,,,,,,333.7613527520152,None,2,0.33751854399451986,333.7613527520152,None,,,,,,,,,,,,,,,,None,None,None,,None,None,334.14708140300354,None,3,1,0.8678041340026539,334.14708140300354,None,335.01063697320933,None,None,None,None,,2,001,2023_Jan_18_1003,searchDisc5,2021.2.3,59.9996096398467,
images/exp2b_trial_85_colour2_distractors4_l.png,l,1,2,4,0,,,,,0,41,41,41,,,,,,,,,,,,,,,,,,,,,,,,,,,,,,,,,,,,,,,,,,,335.02745307201985,None,2,0.34027026398689486,335.02745307201985,None,,,,,,,,,,,,,,,,None,None,None,,None,None,335.4116563630232,None,1,1,0.6848623889964074,335.4116563630232,None,336.09396581222245,None,None,None,None,,2,001,2023_Jan_18_1003,searchDisc5,2021.2.3,59.9996096398467,
images/exp2c_trial_84_colour2_distractors1_l.png,l,1,2,1,0,,,,,0,42,42,42,,,,,,,,,,,,,,,,,,,,,,,,,,,,,,,,,,,,,,,,,,,336.11103868301143,None,2,0.3379002260044217,336.11103868301143,None,,,,,,,,,,,,,,,,None,None,None,,None,None,336.49504399401485,None,1,1,0.9240842290164437,336.49504399401485,None,337.411733605215,None,None,None,None,,2,001,2023_Jan_18_1003,searchDisc5,2021.2.3,59.9996096398467,
images/exp2a_trial_27_colour3_distractors9_l.png,l,1,3,9,0,,,,,0,43,43,43,,,,,,,,,,,,,,,,,,,,,,,,,,,,,,,,,,,,,,,,,,,337.42722129201866,None,2,0.3189019860001281,337.42722129201866,None,,,,,,,,,,,,,,,,None,None,None,,None,None,337.7949678330042,None,1,1,1.1726944519905373,337.7949678330042,None,338.9606716332055,None,None,None,None,,2,001,2023_Jan_18_1003,searchDisc5,2021.2.3,59.9996096398467,
images/exp2a_trial_77_colour3_distractors19_r.png,r,3,3,19,0,,,,,0,44,44,44,,,,,,,,,,,,,,,,,,,,,,,,,,,,,,,,,,,,,,,,,,,338.97898225701647,None,2,0.3695831610239111,338.97898225701647,None,,,,,,,,,,,,,,,,None,None,None,,None,None,339.39679265700397,None,3,1,0.7515740250237286,339.39679265700397,None,340.14391517119657,None,None,None,None,,2,001,2023_Jan_18_1003,searchDisc5,2021.2.3,59.9996096398467,
images/exp2c_trial_314_colour3_distractors4_l.png,l,1,3,4,0,,,,,0,45,45,45,,,,,,,,,,,,,,,,,,,,,,,,,,,,,,,,,,,,,,,,,,,340.1616020290239,None,2,0.3056713679980021,340.1616020290239,None,,,,,,,,,,,,,,,,None,None,None,,None,None,340.5115126510209,None,1,1,0.919631822995143,340.5115126510209,None,341.4274735692161,None,None,None,None,,2,001,2023_Jan_18_1003,searchDisc5,2021.2.3,59.9996096398467,
images/exp2b_trial_40_colour2_distractors19_r.png,r,3,2,19,0,,,,,0,46,46,46,,,,,,,,,,,,,,,,,,,,,,,,,,,,,,,,,,,,,,,,,,,341.444129489013,None,2,0.32112555200001225,341.444129489013,None,,,,,,,,,,,,,,,,None,None,None,,None,None,341.81301103302394,None,3,1,0.919197629991686,341.81301103302394,None,342.7284962521953,None,None,None,None,,2,001,2023_Jan_18_1003,searchDisc5,2021.2.3,59.9996096398467,
images/exp1a_trial_255_colour0_distractors0_l.png,l,1,0,0,0,,,,,0,47,47,47,,,,,,,,,,,,,,,,,,,,,,,,,,,,,,,,,,,,,,,,,,,342.7446571130131,None,2,0.3028211850032676,342.7446571130131,None,,,,,,,,,,,,,,,,None,None,None,,None,None,343.0949164110061,None,1,1,0.8551963019999675,343.0949164110061,None,343.943791805199,None,None,None,None,,2,001,2023_Jan_18_1003,searchDisc5,2021.2.3,59.9996096398467,
images/exp2a_trial_243_colour1_distractors31_l.png,l,1,1,31,0,,,,,0,48,48,48,,,,,,,,,,,,,,,,,,,,,,,,,,,,,,,,,,,,,,,,,,,343.9609141420224,None,2,0.28766515900497325,343.9609141420224,None,,,,,,,,,,,,,,,,None,None,None,,None,None,344.29443801101297,None,1,1,1.2872321940085385,344.29443801101297,None,345.57744692820415,None,None,None,None,,2,001,2023_Jan_18_1003,searchDisc5,2021.2.3,59.9996096398467,
images/exp2c_trial_15_colour1_distractors1_l.png,l,1,1,1,0,,,,,0,49,49,49,,,,,,,,,,,,,,,,,,,,,,,,,,,,,,,,,,,,,,,,,,,345.5947005440248,None,2,0.31935969600453973,345.5947005440248,None,,,,,,,,,,,,,,,,None,None,None,,None,None,345.96096471502096,None,1,1,0.9714899589889683,345.96096471502096,None,346.9275882612128,None,None,None,None,,2,001,2023_Jan_18_1003,searchDisc5,2021.2.3,59.9996096398467,
images/exp2b_trial_55_colour2_distractors19_l.png,l,1,2,19,0,,,,,0,50,50,50,,,,,,,,,,,,,,,,,,,,,,,,,,,,,,,,,,,,,,,,,,,346.94544691900956,None,2,0.30727563198888674,346.94544691900956,None,,,,,,,,,,,,,,,,None,None,None,,None,None,347.29728061700007,None,1,1,0.8648223049822263,347.29728061700007,None,348.1608581572218,None,None,None,None,,2,001,2023_Jan_18_1003,searchDisc5,2021.2.3,59.9996096398467,
images/exp2c_trial_85_colour2_distractors4_l.png,l,1,2,4,0,,,,,0,51,51,51,,,,,,,,,,,,,,,,,,,,,,,,,,,,,,,,,,,,,,,,,,,348.17744450701866,None,2,0.4399760650121607,348.17744450701866,None,,,,,,,,,,,,,,,,None,None,None,,None,None,348.6643038270122,None,1,1,1.6021696550014894,348.6643038270122,None,350.26095452821755,None,None,None,None,,2,001,2023_Jan_18_1003,searchDisc5,2021.2.3,59.9996096398467,
images/exp2a_trial_150_colour2_distractors9_l.png,l,1,2,9,0,,,,,0,52,52,52,,,,,,,,,,,,,,,,,,,,,,,,,,,,,,,,,,,,,,,,,,,350.2804536909971,None,2,0.3039089929952752,350.2804536909971,None,,,,,,,,,,,,,,,,None,None,None,,None,None,350.62975220300723,None,1,1,0.6839825109927915,350.62975220300723,None,351.31100142719515,None,None,None,None,,2,001,2023_Jan_18_1003,searchDisc5,2021.2.3,59.9996096398467,
images/exp2a_trial_59_colour3_distractors9_l.png,l,1,3,9,0,,,,,0,53,53,53,,,,,,,,,,,,,,,,,,,,,,,,,,,,,,,,,,,,,,,,,,,351.32820433800225,None,2,0.271228320983937,351.32820433800225,None,,,,,,,,,,,,,,,,None,None,None,,None,None,351.64448434801307,None,1,1,0.7698515489755664,351.64448434801307,None,352.4107808332046,None,None,None,None,,2,001,2023_Jan_18_1003,searchDisc5,2021.2.3,59.9996096398467,
images/exp2c_trial_133_colour2_distractors1_r.png,r,3,2,1,0,,,,,0,54,54,54,,,,,,,,,,,,,,,,,,,,,,,,,,,,,,,,,,,,,,,,,,,352.4283027900092,None,2,0.3053647519845981,352.4283027900092,None,,,,,,,,,,,,,,,,None,None,None,,None,None,352.7778825389978,None,3,1,0.6050655149738304,352.7778825389978,None,353.37782136820897,None,None,None,None,,2,001,2023_Jan_18_1003,searchDisc5,2021.2.3,59.9996096398467,
images/exp2c_trial_160_colour1_distractors1_r.png,r,3,1,1,0,,,,,0,55,55,55,,,,,,,,,,,,,,,,,,,,,,,,,,,,,,,,,,,,,,,,,,,353.39423855399946,None,2,0.25561122500221245,353.39423855399946,None,,,,,,,,,,,,,,,,None,None,None,,None,None,353.69420182102476,None,3,1,0.6514121320215054,353.69420182102476,None,354.34435758421023,None,None,None,None,,2,001,2023_Jan_18_1003,searchDisc5,2021.2.3,59.9996096398467,
images/exp2a_trial_190_colour0_distractors0_r.png,r,3,0,0,0,,,,,0,56,56,56,,,,,,,,,,,,,,,,,,,,,,,,,,,,,,,,,,,,,,,,,,,354.3611635690031,None,2,0.2545738100016024,354.3611635690031,None,,,,,,,,,,,,,,,,None,None,None,,None,None,354.6615875510033,None,1,0,0.621322862978559,354.6615875510033,None,355.2777580262191,None,None,None,None,,2,001,2023_Jan_18_1003,searchDisc5,2021.2.3,59.9996096398467,
images/exp2a_trial_201_colour2_distractors31_r.png,r,3,2,31,0,,,,,0,57,57,57,,,,,,,,,,,,,,,,,,,,,,,,,,,,,,,,,,,,,,,,,,,355.2944490070222,None,2,1.1215034690103494,355.2944490070222,None,,,,,,,,,,,,,,,,None,None,None,,None,None,356.46617329100263,None,3,1,1.0449432480090763,356.46617329100263,None,357.5108855752187,None,None,None,None,,2,001,2023_Jan_18_1003,searchDisc5,2021.2.3,59.9996096398467,
images/exp1a_trial_285_colour3_distractors31_l.png,l,1,3,31,0,,,,,0,58,58,58,,,,,,,,,,,,,,,,,,,,,,,,,,,,,,,,,,,,,,,,,,,357.5278266350215,None,2,0.25533605000237003,357.5278266350215,None,,,,,,,,,,,,,,,,None,None,None,,None,None,357.8279485540115,None,1,1,0.7808299669995904,357.8279485540115,None,358.6108404292172,None,None,None,None,,2,001,2023_Jan_18_1003,searchDisc5,2021.2.3,59.9996096398467,
images/exp2b_trial_146_colour1_distractors19_l.png,l,1,1,19,0,,,,,0,59,59,59,,,,,,,,,,,,,,,,,,,,,,,,,,,,,,,,,,,,,,,,,,,358.62778436302324,None,2,0.2883514399873093,358.62778436302324,None,,,,,,,,,,,,,,,,None,None,None,,None,None,358.96231303800596,None,1,1,1.20205537500442,358.96231303800596,None,360.1612789612118,None,None,None,None,,2,001,2023_Jan_18_1003,searchDisc5,2021.2.3,59.9996096398467,
images/exp1a_trial_49_colour1_distractors9_l.png,l,1,1,9,0,,,,,0,60,60,60,,,,,,,,,,,,,,,,,,,,,,,,,,,,,,,,,,,,,,,,,,,360.17855223600054,None,2,0.33802209902205504,360.17855223600054,None,,,,,,,,,,,,,,,,None,None,None,,None,None,360.56362524902215,None,1,1,0.6873419189942069,360.56362524902215,None,361.24576250520477,None,None,None,None,,2,001,2023_Jan_18_1003,searchDisc5,2021.2.3,59.9996096398467,
images/exp2a_trial_297_colour2_distractors31_r.png,r,3,2,31,0,,,,,0,61,61,61,,,,,,,,,,,,,,,,,,,,,,,,,,,,,,,,,,,,,,,,,,,361.2640522000147,None,2,0.32011261698789895,361.2640522000147,None,,,,,,,,,,,,,,,,None,None,None,,None,None,361.63407518400345,None,3,1,0.7775585159834009,361.63407518400345,None,362.411324764209,None,None,None,None,,2,001,2023_Jan_18_1003,searchDisc5,2021.2.3,59.9996096398467,
images/exp1a_trial_213_colour2_distractors4_l.png,l,1,2,4,0,,,,,0,62,62,62,,,,,,,,,,,,,,,,,,,,,,,,,,,,,,,,,,,,,,,,,,,362.42866985002183,None,2,0.2887929330172483,362.42866985002183,None,,,,,,,,,,,,,,,,None,None,None,,None,None,362.7621613900119,None,1,1,0.6858018670172896,362.7621613900119,None,363.4447560072149,None,None,None,None,,2,001,2023_Jan_18_1003,searchDisc5,2021.2.3,59.9996096398467,
images/exp2a_trial_33_colour1_distractors4_r.png,r,3,1,4,0,,,,,0,63,63,63,,,,,,,,,,,,,,,,,,,,,,,,,,,,,,,,,,,,,,,,,,,363.4618879320042,None,2,0.2901835209922865,363.4618879320042,None,,,,,,,,,,,,,,,,None,None,None,,None,None,363.7957648750162,None,3,1,0.7177501640107948,363.7957648750162,None,364.5113454802049,None,None,None,None,,2,001,2023_Jan_18_1003,searchDisc5,2021.2.3,59.9996096398467,
images/exp2a_trial_79_colour1_distractors1_l.png,l,1,1,1,0,,,,,0,64,64,64,,,,,,,,,,,,,,,,,,,,,,,,,,,,,,,,,,,,,,,,,,,364.52863954700297,None,2,0.2731916230113711,364.52863954700297,None,,,,,,,,,,,,,,,,None,None,None,,None,None,364.8454408500111,None,1,1,0.836192796996329,364.8454408500111,None,365.67809935122204,None,None,None,None,,2,001,2023_Jan_18_1003,searchDisc5,2021.2.3,59.9996096398467,
images/exp2a_trial_149_colour2_distractors4_l.png,l,1,2,4,0,,,,,0,65,65,65,,,,,,,,,,,,,,,,,,,,,,,,,,,,,,,,,,,,,,,,,,,365.6947627510235,None,2,0.30545485598850064,365.6947627510235,None,,,,,,,,,,,,,,,,None,None,None,,None,None,366.04492979100905,None,1,1,0.7036560560227372,366.04492979100905,None,366.7458751452068,None,None,None,None,,2,001,2023_Jan_18_1003,searchDisc5,2021.2.3,59.9996096398467,
images/exp2b_trial_67_colour1_distractors19_r.png,r,3,1,19,0,,,,,0,66,66,66,,,,,,,,,,,,,,,,,,,,,,,,,,,,,,,,,,,,,,,,,,,366.76135871201404,None,2,0.3210697209869977,366.76135871201404,None,,,,,,,,,,,,,,,,None,None,None,,None,None,367.12921141600236,None,3,1,0.6992156610067468,367.12921141600236,None,367.82797434819804,None,None,None,None,,2,001,2023_Jan_18_1003,searchDisc5,2021.2.3,59.9996096398467,
images/exp2b_trial_136_colour2_distractors19_r.png,r,3,2,19,0,,,,,0,67,67,67,,,,,,,,,,,,,,,,,,,,,,,,,,,,,,,,,,,,,,,,,,,367.844826088025,None,2,0.2576127279899083,367.844826088025,None,,,,,,,,,,,,,,,,None,None,None,,None,None,368.1474427040084,None,3,1,0.7161700309952721,368.1474427040084,None,368.8615137462184,None,None,None,None,,2,001,2023_Jan_18_1003,searchDisc5,2021.2.3,59.9996096398467,
images/exp2c_trial_291_colour1_distractors19_r.png,r,3,1,19,0,,,,,0,68,68,68,,,,,,,,,,,,,,,,,,,,,,,,,,,,,,,,,,,,,,,,,,,368.87907829502365,None,2,0.2552533130219672,368.87907829502365,None,,,,,,,,,,,,,,,,None,None,None,,None,None,369.17867756201304,None,3,1,0.6685725240095053,369.17867756201304,None,369.8458066732128,None,None,None,None,,2,001,2023_Jan_18_1003,searchDisc5,2021.2.3,59.9996096398467,
images/exp2a_trial_116_colour2_distractors1_l.png,l,1,2,1,0,,,,,0,69,69,69,,,,,,,,,,,,,,,,,,,,,,,,,,,,,,,,,,,,,,,,,,,369.86153540899977,None,2,0.2199062189902179,369.86153540899977,None,,,,,,,,,,,,,,,,None,None,None,,None,None,370.1287988400145,None,1,1,0.8877850589924492,370.1287988400145,None,371.0115443281975,None,None,None,None,,2,001,2023_Jan_18_1003,searchDisc5,2021.2.3,59.9996096398467,
images/exp2a_trial_192_colour1_distractors1_r.png,r,3,1,1,0,,,,,0,70,70,70,,,,,,,,,,,,,,,,,,,,,,,,,,,,,,,,,,,,,,,,,,,371.0311759710021,None,2,0.30533196197939105,371.0311759710021,None,,,,,,,,,,,,,,,,None,None,None,,None,None,371.38154626701726,None,3,1,0.6214549590076786,371.38154626701726,None,371.99480910821876,None,None,None,None,,2,001,2023_Jan_18_1003,searchDisc5,2021.2.3,59.9996096398467,
images/exp2a_trial_22_colour2_distractors9_l.png,l,1,2,9,0,,,,,0,71,71,71,,,,,,,,,,,,,,,,,,,,,,,,,,,,,,,,,,,,,,,,,,,372.0113674980239,None,2,0.2879944870073814,372.0113674980239,None,,,,,,,,,,,,,,,,None,None,None,,None,None,372.34743975201854,None,1,1,2.8328124859835953,372.34743975201854,None,375.17931926120946,None,None,None,None,,2,001,2023_Jan_18_1003,searchDisc5,2021.2.3,59.9996096398467,
images/exp2b_trial_256_colour1_distractors1_r.png,r,3,1,1,0,,,,,0,72,72,72,,,,,,,,,,,,,,,,,,,,,,,,,,,,,,,,,,,,,,,,,,,375.19500117600546,None,2,0.28686277801170945,375.19500117600546,None,,,,,,,,,,,,,,,,None,None,None,,None,None,375.528515737009,None,3,1,1.041159301996231,375.528515737009,None,376.56387453620846,None,None,None,None,,2,001,2023_Jan_18_1003,searchDisc5,2021.2.3,59.9996096398467,
images/exp1a_trial_6_colour2_distractors4_r.png,r,3,2,4,0,,,,,0,73,73,73,,,,,,,,,,,,,,,,,,,,,,,,,,,,,,,,,,,,,,,,,,,376.5805708570115,None,2,0.26764575598645024,376.5805708570115,None,,,,,,,,,,,,,,,,None,None,None,,None,None,376.8951512440108,None,3,1,0.836607189005008,376.8951512440108,None,377.72834169921407,None,None,None,None,,2,001,2023_Jan_18_1003,searchDisc5,2021.2.3,59.9996096398467,
images/exp2c_trial_110_colour3_distractors31_r.png,r,3,3,31,0,,,,,0,74,74,74,,,,,,,,,,,,,,,,,,,,,,,,,,,,,,,,,,,,,,,,,,,377.74769309401745,None,2,0.25561429900699295,377.74769309401745,None,,,,,,,,,,,,,,,,None,None,None,,None,None,378.0456223920046,None,3,1,0.7683844680141192,378.0456223920046,None,378.8117826522066,None,None,None,None,,2,001,2023_Jan_18_1003,searchDisc5,2021.2.3,59.9996096398467,
images/exp2a_trial_206_colour3_distractors31_r.png,r,3,3,31,0,,,,,0,75,75,75,,,,,,,,,,,,,,,,,,,,,,,,,,,,,,,,,,,,,,,,,,,378.83093810401624,None,2,0.2382539749960415,378.83093810401624,None,,,,,,,,,,,,,,,,None,None,None,,None,None,379.11210530702374,None,3,1,1.800805492006475,379.11210530702374,None,380.9128557622171,None,None,None,None,,2,001,2023_Jan_18_1003,searchDisc5,2021.2.3,59.9996096398467,
images/exp1a_trial_257_colour1_distractors4_r.png,r,3,1,4,0,,,,,0,76,76,76,,,,,,,,,,,,,,,,,,,,,,,,,,,,,,,,,,,,,,,,,,,380.9283624270174,None,2,0.2377325619745534,380.9283624270174,None,,,,,,,,,,,,,,,,None,None,None,,None,None,381.214103434002,None,3,1,0.7536655589938164,381.214103434002,None,381.96185681821953,None,None,None,None,,2,001,2023_Jan_18_1003,searchDisc5,2021.2.3,59.9996096398467,
images/exp2c_trial_253_colour3_distractors31_l.png,l,1,3,31,0,,,,,0,77,77,77,,,,,,,,,,,,,,,,,,,,,,,,,,,,,,,,,,,,,,,,,,,381.9782371240144,None,2,0.2686643220076803,381.9782371240144,None,,,,,,,,,,,,,,,,None,None,None,,None,None,382.29644911401556,None,1,1,0.8353141670231707,382.29644911401556,None,383.12857203821477,None,None,None,None,,2,001,2023_Jan_18_1003,searchDisc5,2021.2.3,59.9996096398467,
images/exp1a_trial_44_colour3_distractors9_r.png,r,3,3,9,0,,,,,0,78,78,78,,,,,,,,,,,,,,,,,,,,,,,,,,,,,,,,,,,,,,,,,,,383.1461228420085,None,2,0.4055286630173214,383.1461228420085,None,,,,,,,,,,,,,,,,None,None,None,,None,None,383.5954356919974,None,3,1,0.6677870340063237,383.5954356919974,None,384.26203719522164,None,None,None,None,,2,001,2023_Jan_18_1003,searchDisc5,2021.2.3,59.9996096398467,
images/exp2b_trial_196_colour1_distractors31_r.png,r,3,1,31,0,,,,,0,79,79,79,,,,,,,,,,,,,,,,,,,,,,,,,,,,,,,,,,,,,,,,,,,384.2789299970027,None,2,0.28897893699468113,384.2789299970027,None,,,,,,,,,,,,,,,,None,None,None,,None,None,384.6115449780191,None,3,1,1.100773041980574,384.6115449780191,None,385.7119783501985,None,None,None,None,,2,001,2023_Jan_18_1003,searchDisc5,2021.2.3,59.9996096398467,
images/exp1a_trial_282_colour3_distractors4_l.png,l,1,3,4,0,,,,,0,80,80,80,,,,,,,,,,,,,,,,,,,,,,,,,,,,,,,,,,,,,,,,,,,385.73065864501405,None,2,0.30483776700566523,385.73065864501405,None,,,,,,,,,,,,,,,,None,None,None,,None,None,386.07974322899827,None,1,1,0.7866582610004116,386.07974322899827,None,386.8620776691969,None,None,None,None,,2,001,2023_Jan_18_1003,searchDisc5,2021.2.3,59.9996096398467,
images/exp2a_trial_26_colour3_distractors4_l.png,l,1,3,4,0,,,,,0,81,81,81,,,,,,,,,,,,,,,,,,,,,,,,,,,,,,,,,,,,,,,,,,,386.87873927902547,None,2,0.37038651399780065,386.87873927902547,None,,,,,,,,,,,,,,,,None,None,None,,None,None,387.2956205079972,None,1,1,0.7543542810017243,387.2956205079972,None,388.0448515832104,None,None,None,None,,2,001,2023_Jan_18_1003,searchDisc5,2021.2.3,59.9996096398467,
images/exp2b_trial_24_colour2_distractors31_l.png,l,1,2,31,0,,,,,0,82,82,82,,,,,,,,,,,,,,,,,,,,,,,,,,,,,,,,,,,,,,,,,,,388.06221714502317,None,2,0.3383728949993383,388.06221714502317,None,,,,,,,,,,,,,,,,None,None,None,,None,None,388.4456955810019,None,1,1,0.7509978779999074,388.4456955810019,None,389.19542404021195,None,None,None,None,,2,001,2023_Jan_18_1003,searchDisc5,2021.2.3,59.9996096398467,
images/exp2c_trial_146_colour1_distractors19_l.png,l,1,1,19,0,,,,,0,83,83,83,,,,,,,,,,,,,,,,,,,,,,,,,,,,,,,,,,,,,,,,,,,389.2142611220188,None,2,0.33829631499247625,389.2142611220188,None,,,,,,,,,,,,,,,,None,None,None,,None,None,389.59839847602416,None,1,1,0.7688012410071678,389.59839847602416,None,390.36302781321865,None,None,None,None,,2,001,2023_Jan_18_1003,searchDisc5,2021.2.3,59.9996096398467,
images/exp2c_trial_47_colour1_distractors1_l.png,l,1,1,1,0,,,,,0,84,84,84,,,,,,,,,,,,,,,,,,,,,,,,,,,,,,,,,,,,,,,,,,,390.3813679370214,None,2,0.3198069320060313,390.3813679370214,None,,,,,,,,,,,,,,,,None,None,None,,None,None,390.7474198900163,None,1,1,0.7715102290094364,390.7474198900163,None,391.51202312319947,None,None,None,None,,2,001,2023_Jan_18_1003,searchDisc5,2021.2.3,59.9996096398467,
images/exp2a_trial_134_colour2_distractors4_r.png,r,3,2,4,0,,,,,0,85,85,85,,,,,,,,,,,,,,,,,,,,,,,,,,,,,,,,,,,,,,,,,,,391.5307230250037,None,2,0.35566419298993424,391.5307230250037,None,,,,,,,,,,,,,,,,None,None,None,,None,None,391.9318443790253,None,3,1,0.8179804850078654,391.9318443790253,None,392.74549910122005,None,None,None,None,,2,001,2023_Jan_18_1003,searchDisc5,2021.2.3,59.9996096398467,
images/exp1a_trial_238_colour3_distractors31_r.png,r,3,3,31,0,,,,,0,86,86,86,,,,,,,,,,,,,,,,,,,,,,,,,,,,,,,,,,,,,,,,,,,392.7622224840161,None,2,0.3045653710141778,392.7622224840161,None,,,,,,,,,,,,,,,,None,None,None,,None,None,393.11314537600265,None,3,1,1.1649052829889115,393.11314537600265,None,394.27891230721434,None,None,None,None,,2,001,2023_Jan_18_1003,searchDisc5,2021.2.3,59.9996096398467,
images/exp2c_trial_241_colour1_distractors9_l.png,l,1,1,9,0,,,,,0,87,87,87,,,,,,,,,,,,,,,,,,,,,,,,,,,,,,,,,,,,,,,,,,,394.29564481100533,None,2,0.287975440005539,394.29564481100533,None,,,,,,,,,,,,,,,,None,None,None,,None,None,394.62908150002477,None,1,1,0.7705530090024695,394.62908150002477,None,395.39565530720574,None,None,None,None,,2,001,2023_Jan_18_1003,searchDisc5,2021.2.3,59.9996096398467,
images/exp2b_trial_281_colour3_distractors1_l.png,l,1,3,1,0,,,,,0,88,88,88,,,,,,,,,,,,,,,,,,,,,,,,,,,,,,,,,,,,,,,,,,,395.41331984702265,None,2,0.42284956798539497,395.41331984702265,None,,,,,,,,,,,,,,,,None,None,None,,None,None,395.88177494402044,None,1,1,0.8859643439936917,395.88177494402044,None,396.76221760919725,None,None,None,None,,2,001,2023_Jan_18_1003,searchDisc5,2021.2.3,59.9996096398467,
images/exp2a_trial_185_colour3_distractors1_l.png,l,1,3,1,0,,,,,0,89,89,89,,,,,,,,,,,,,,,,,,,,,,,,,,,,,,,,,,,,,,,,,,,396.7788953130075,None,2,0.35622738001984544,396.7788953130075,None,,,,,,,,,,,,,,,,None,None,None,,None,None,397.18209086102434,None,1,1,0.7863823560182936,397.18209086102434,None,397.9621930912108,None,None,None,None,,2,001,2023_Jan_18_1003,searchDisc5,2021.2.3,59.9996096398467,
images/exp2a_trial_110_colour3_distractors31_r.png,r,3,3,31,0,,,,,0,90,90,90,,,,,,,,,,,,,,,,,,,,,,,,,,,,,,,,,,,,,,,,,,,397.9789268360182,None,2,0.2879831699829083,397.9789268360182,None,,,,,,,,,,,,,,,,None,None,None,,None,None,398.312550431001,None,3,1,0.7192144879954867,398.312550431001,None,399.0290346722031,None,None,None,None,,2,001,2023_Jan_18_1003,searchDisc5,2021.2.3,59.9996096398467,
images/exp2b_trial_319_colour0_distractors0_l.png,l,1,0,0,0,,,,,0,91,91,91,,,,,,,,,,,,,,,,,,,,,,,,,,,,,,,,,,,,,,,,,,,399.04555950002396,None,2,0.23788034199969843,399.04555950002396,None,,,,,,,,,,,,,,,,None,None,None,,None,None,399.329257956997,None,1,1,0.6046693740063347,399.329257956997,None,399.92896308419586,None,None,None,None,,2,001,2023_Jan_18_1003,searchDisc5,2021.2.3,59.9996096398467,
images/exp1a_trial_133_colour2_distractors1_r.png,r,3,2,1,0,,,,,0,92,92,92,,,,,,,,,,,,,,,,,,,,,,,,,,,,,,,,,,,,,,,,,,,399.94560399101465,None,2,0.28814129199599847,399.94560399101465,None,,,,,,,,,,,,,,,,None,None,None,,None,None,400.28009856599965,None,3,1,0.8709235930000432,400.28009856599965,None,401.1467307072162,None,None,None,None,,2,001,2023_Jan_18_1003,searchDisc5,2021.2.3,59.9996096398467,
images/exp1a_trial_256_colour1_distractors1_r.png,r,3,1,1,0,,,,,0,93,93,93,,,,,,,,,,,,,,,,,,,,,,,,,,,,,,,,,,,,,,,,,,,401.1631328660005,None,2,0.18676757800858468,401.1631328660005,None,,,,,,,,,,,,,,,,None,None,None,,None,None,401.39787938501104,None,3,1,4.05559168101172,401.39787938501104,None,405.4469475472142,None,None,None,None,,2,001,2023_Jan_18_1003,searchDisc5,2021.2.3,59.9996096398467,
images/exp2a_trial_183_colour2_distractors19_l.png,l,1,2,19,0,,,,,0,94,94,94,,,,,,,,,,,,,,,,,,,,,,,,,,,,,,,,,,,,,,,,,,,405.4625140160206,None,2,0.3046682010171935,405.4625140160206,None,,,,,,,,,,,,,,,,None,None,None,,None,None,405.8149158190063,None,1,1,1.26303373198607,405.8149158190063,None,407.0792496022041,None,None,None,None,,2,001,2023_Jan_18_1003,searchDisc5,2021.2.3,59.9996096398467,
images/exp2b_trial_221_colour3_distractors31_l.png,l,1,3,31,0,,,,,0,95,95,95,,,,,,,,,,,,,,,,,,,,,,,,,,,,,,,,,,,,,,,,,,,407.0963996180217,None,2,0.3378768549882807,407.0963996180217,None,,,,,,,,,,,,,,,,None,None,None,,None,None,407.48246604402084,None,1,1,1.98472931899596,407.48246604402084,None,409.4627587272116,None,None,None,None,,2,001,2023_Jan_18_1003,searchDisc5,2021.2.3,59.9996096398467,
images/exp2b_trial_107_colour3_distractors4_r.png,r,3,3,4,0,,,,,0,96,96,96,,,,,,,,,,,,,,,,,,,,,,,,,,,,,,,,,,,,,,,,,,,409.4799626120075,None,2,0.323154979996616,409.4799626120075,None,,,,,,,,,,,,,,,,None,None,None,,None,None,409.84630504401866,None,3,1,0.8687128630117513,409.84630504401866,None,410.7127701272111,None,None,None,None,,2,001,2023_Jan_18_1003,searchDisc5,2021.2.3,59.9996096398467,
images/exp2a_trial_104_colour2_distractors19_r.png,r,3,2,19,0,,,,,0,97,97,97,,,,,,,,,,,,,,,,,,,,,,,,,,,,,,,,,,,,,,,,,,,410.7300338050118,None,2,0.27293770099640824,410.7300338050118,None,,,,,,,,,,,,,,,,None,None,None,,None,None,411.0455126380257,None,3,1,0.7612808429985307,411.0455126380257,None,411.8126671422069,None,None,None,None,,2,001,2023_Jan_18_1003,searchDisc5,2021.2.3,59.9996096398467,
images/exp2b_trial_102_colour2_distractors4_r.png,r,3,2,4,0,,,,,0,98,98,98,,,,,,,,,,,,,,,,,,,,,,,,,,,,,,,,,,,,,,,,,,,411.8301850260177,None,2,0.22100250498624519,411.8301850260177,None,,,,,,,,,,,,,,,,None,None,None,,None,None,412.0992619890021,None,3,1,0.7038879670144524,412.0992619890021,None,412.7959767682041,None,None,None,None,,2,001,2023_Jan_18_1003,searchDisc5,2021.2.3,59.9996096398467,
images/exp1a_trial_51_colour1_distractors31_l.png,l,1,1,31,0,,,,,0,99,99,99,,,,,,,,,,,,,,,,,,,,,,,,,,,,,,,,,,,,,,,,,,,412.81185129701043,None,2,0.24067438501515426,412.81185129701043,None,,,,,,,,,,,,,,,,None,None,None,,None,None,413.100276178011,None,1,1,1.130139226996107,413.100276178011,None,414.23036742520344,None,None,None,None,,2,001,2023_Jan_18_1003,searchDisc5,2021.2.3,59.9996096398467,
images/exp2b_trial_141_colour3_distractors19_r.png,r,3,3,19,0,,,,,0,100,100,100,,,,,,,,,,,,,,,,,,,,,,,,,,,,,,,,,,,,,,,,,,,414.24600329902023,None,2,0.3045470649958588,414.24600329902023,None,,,,,,,,,,,,,,,,None,None,None,,None,None,414.5968835800013,None,3,1,0.7182208159938455,414.5968835800013,None,415.31276482921385,None,None,None,None,,2,001,2023_Jan_18_1003,searchDisc5,2021.2.3,59.9996096398467,
images/exp2a_trial_6_colour2_distractors4_r.png,r,3,2,4,0,,,,,0,101,101,101,,,,,,,,,,,,,,,,,,,,,,,,,,,,,,,,,,,,,,,,,,,415.32942333901883,None,2,0.23778328101616353,415.32942333901883,None,,,,,,,,,,,,,,,,None,None,None,,None,None,415.61378248000983,None,3,1,1.069098176987609,415.61378248000983,None,416.6788232172112,None,None,None,None,,2,001,2023_Jan_18_1003,searchDisc5,2021.2.3,59.9996096398467,
images/exp2c_trial_197_colour2_distractors1_r.png,r,3,2,1,0,,,,,0,102,102,102,,,,,,,,,,,,,,,,,,,,,,,,,,,,,,,,,,,,,,,,,,,416.6961753350042,None,2,0.255190601979848,416.6961753350042,None,,,,,,,,,,,,,,,,None,None,None,,None,None,416.99744346601074,None,3,1,0.7869227530027274,416.99744346601074,None,417.77887839819596,None,None,None,None,,2,001,2023_Jan_18_1003,searchDisc5,2021.2.3,59.9996096398467,
images/exp1a_trial_288_colour1_distractors1_r.png,r,3,1,1,0,,,,,0,103,103,103,,,,,,,,,,,,,,,,,,,,,,,,,,,,,,,,,,,,,,,,,,,417.79613810402225,None,2,0.24122624300071038,417.79613810402225,None,,,,,,,,,,,,,,,,None,None,None,,None,None,418.0818650740257,None,3,1,0.7020781510218512,418.0818650740257,None,418.7795312762173,None,None,None,None,,2,001,2023_Jan_18_1003,searchDisc5,2021.2.3,59.9996096398467,
images/exp2c_trial_71_colour2_distractors9_r.png,r,3,2,9,0,,,,,0,104,104,104,,,,,,,,,,,,,,,,,,,,,,,,,,,,,,,,,,,,,,,,,,,418.79633476701565,None,2,0.2041651309991721,418.79633476701565,None,,,,,,,,,,,,,,,,None,None,None,,None,None,419.0485175860231,None,3,1,0.8032797150081024,419.0485175860231,None,419.8457380721957,None,None,None,None,,2,001,2023_Jan_18_1003,searchDisc5,2021.2.3,59.9996096398467,
images/exp1a_trial_80_colour1_distractors4_l.png,l,1,1,4,0,,,,,0,105,105,105,,,,,,,,,,,,,,,,,,,,,,,,,,,,,,,,,,,,,,,,,,,419.8627963180188,None,2,0.1892685330240056,419.8627963180188,None,,,,,,,,,,,,,,,,None,None,None,,None,None,420.0992175160209,None,1,1,0.9851044229872059,420.0992175160209,None,421.07917380121944,None,None,None,None,,2,001,2023_Jan_18_1003,searchDisc5,2021.2.3,59.9996096398467,
images/exp2b_trial_272_colour1_distractors4_l.png,l,1,1,4,0,,,,,0,106,106,106,,,,,,,,,,,,,,,,,,,,,,,,,,,,,,,,,,,,,,,,,,,421.0964638820151,None,2,0.2737578000233043,421.0964638820151,None,,,,,,,,,,,,,,,,None,None,None,,None,None,421.4143502310035,None,1,1,0.7188973079901189,421.4143502310035,None,422.12962300020445,None,None,None,None,,2,001,2023_Jan_18_1003,searchDisc5,2021.2.3,59.9996096398467,
images/exp1a_trial_182_colour2_distractors9_l.png,l,1,2,9,0,,,,,0,107,107,107,,,,,,,,,,,,,,,,,,,,,,,,,,,,,,,,,,,,,,,,,,,422.14687166002113,None,2,0.22360106601263396,422.14687166002113,None,,,,,,,,,,,,,,,,None,None,None,,None,None,422.4156697720173,None,1,1,0.8327277010248508,422.4156697720173,None,423.2462891072064,None,None,None,None,,2,001,2023_Jan_18_1003,searchDisc5,2021.2.3,59.9996096398467,
images/exp2c_trial_273_colour1_distractors9_l.png,l,1,1,9,0,,,,,0,108,108,108,,,,,,,,,,,,,,,,,,,,,,,,,,,,,,,,,,,,,,,,,,,423.26353107902105,None,2,0.23798356601037085,423.26353107902105,None,,,,,,,,,,,,,,,,None,None,None,,None,None,423.5474387280119,None,1,1,0.7031861110008322,423.5474387280119,None,424.2465352052095,None,None,None,None,,2,001,2023_Jan_18_1003,searchDisc5,2021.2.3,59.9996096398467,
images/exp2c_trial_188_colour3_distractors19_l.png,l,1,3,19,0,,,,,0,109,109,109,,,,,,,,,,,,,,,,,,,,,,,,,,,,,,,,,,,,,,,,,,,424.26313785402454,None,2,0.2393646459968295,424.26313785402454,None,,,,,,,,,,,,,,,,None,None,None,,None,None,424.5465665090014,None,1,1,1.950636788009433,424.5465665090014,None,426.49620654022146,None,None,None,None,,2,001,2023_Jan_18_1003,searchDisc5,2021.2.3,59.9996096398467,
images/exp2a_trial_72_colour2_distractors19_r.png,r,3,2,19,0,,,,,0,110,110,110,,,,,,,,,,,,,,,,,,,,,,,,,,,,,,,,,,,,,,,,,,,426.5130917869974,None,2,0.2556745150068309,426.5130917869974,None,,,,,,,,,,,,,,,,None,None,None,,None,None,426.8136407310085,None,3,1,1.547096550988499,426.8136407310085,None,428.36298949121556,None,None,None,None,,2,001,2023_Jan_18_1003,searchDisc5,2021.2.3,59.9996096398467,
images/exp2a_trial_111_colour1_distractors1_l.png,l,1,1,1,0,,,,,0,111,111,111,,,,,,,,,,,,,,,,,,,,,,,,,,,,,,,,,,,,,,,,,,,428.37970985402353,None,2,0.23991369298892096,428.37970985402353,None,,,,,,,,,,,,,,,,None,None,None,,None,None,428.6648102250183,None,1,1,0.8538283969974145,428.6648102250183,None,429.5130583061982,None,None,None,None,,2,001,2023_Jan_18_1003,searchDisc5,2021.2.3,59.9996096398467,
images/exp1a_trial_304_colour1_distractors4_l.png,l,1,1,4,0,,,,,0,112,112,112,,,,,,,,,,,,,,,,,,,,,,,,,,,,,,,,,,,,,,,,,,,429.5316698770039,None,2,0.2701619190047495,429.5316698770039,None,,,,,,,,,,,,,,,,None,None,None,,None,None,429.84650233300636,None,1,1,1.3206451290170662,429.84650233300636,None,431.16328481219534,None,None,None,None,,2,001,2023_Jan_18_1003,searchDisc5,2021.2.3,59.9996096398467,
images/exp2c_trial_236_colour3_distractors9_r.png,r,3,3,9,0,,,,,0,113,113,113,,,,,,,,,,,,,,,,,,,,,,,,,,,,,,,,,,,,,,,,,,,431.1800264920166,None,2,0.28773203000309877,431.1800264920166,None,,,,,,,,,,,,,,,,None,None,None,,None,None,431.5129871950194,None,3,1,0.8526435800013132,431.5129871950194,None,432.3630664092052,None,None,None,None,,2,001,2023_Jan_18_1003,searchDisc5,2021.2.3,59.9996096398467,
images/exp2c_trial_10_colour3_distractors1_r.png,r,3,3,1,0,,,,,0,114,114,114,,,,,,,,,,,,,,,,,,,,,,,,,,,,,,,,,,,,,,,,,,,432.3794502970122,None,2,0.2564633500005584,432.3794502970122,None,,,,,,,,,,,,,,,,None,None,None,,None,None,432.6799925920204,None,3,1,0.9360076800221577,432.6799925920204,None,433.613155232204,None,None,None,None,,2,001,2023_Jan_18_1003,searchDisc5,2021.2.3,59.9996096398467,
images/exp1a_trial_121_colour3_distractors1_l.png,l,1,3,1,0,,,,,0,115,115,115,,,,,,,,,,,,,,,,,,,,,,,,,,,,,,,,,,,,,,,,,,,433.631453953014,None,2,0.2711309840087779,433.631453953014,None,,,,,,,,,,,,,,,,None,None,None,,None,None,433.94643219100544,None,1,1,1.4547528740076814,433.94643219100544,None,435.3967924492172,None,None,None,None,,2,001,2023_Jan_18_1003,searchDisc5,2021.2.3,59.9996096398467,
images/exp1a_trial_192_colour1_distractors1_r.png,r,3,1,1,0,,,,,0,116,116,116,,,,,,,,,,,,,,,,,,,,,,,,,,,,,,,,,,,,,,,,,,,435.4130962440104,None,2,0.27093866499490105,435.4130962440104,None,,,,,,,,,,,,,,,,None,None,None,,None,None,435.72987245902186,None,3,1,2.3378455589991063,435.72987245902186,None,438.06333618621284,None,None,None,None,,2,001,2023_Jan_18_1003,searchDisc5,2021.2.3,59.9996096398467,
images/exp2b_trial_279_colour2_distractors19_l.png,l,1,2,19,0,,,,,0,117,117,117,,,,,,,,,,,,,,,,,,,,,,,,,,,,,,,,,,,,,,,,,,,438.08189916601987,None,2,0.2544169719913043,438.08189916601987,None,,,,,,,,,,,,,,,,None,None,None,,None,None,438.38036682101665,None,1,1,1.0020535319927149,438.38036682101665,None,439.3799163482181,None,None,None,None,,2,001,2023_Jan_18_1003,searchDisc5,2021.2.3,59.9996096398467,
images/exp2a_trial_61_colour3_distractors31_l.png,l,1,3,31,0,,,,,0,118,118,118,,,,,,,,,,,,,,,,,,,,,,,,,,,,,,,,,,,,,,,,,,,439.3963001310185,None,2,0.33781454898416996,439.3963001310185,None,,,,,,,,,,,,,,,,None,None,None,,None,None,439.78017791200546,None,1,1,0.7516819080046844,439.78017791200546,None,440.5299585182074,None,None,None,None,,2,001,2023_Jan_18_1003,searchDisc5,2021.2.3,59.9996096398467,
images/exp1a_trial_242_colour1_distractors19_l.png,l,1,1,19,0,,,,,0,119,119,119,,,,,,,,,,,,,,,,,,,,,,,,,,,,,,,,,,,,,,,,,,,440.54645774900564,None,2,0.2894523690047208,440.54645774900564,None,,,,,,,,,,,,,,,,None,None,None,,None,None,440.8798343880044,None,1,1,0.7484713259909768,440.8798343880044,None,441.6299753352214,None,None,None,None,,2,001,2023_Jan_18_1003,searchDisc5,2021.2.3,59.9996096398467,
images/exp2c_trial_310_colour2_distractors9_l.png,l,1,2,9,0,,,,,0,120,120,120,,,,,,,,,,,,,,,,,,,,,,,,,,,,,,,,,,,,,,,,,,,441.6466352700081,None,2,0.2879906239977572,441.6466352700081,None,,,,,,,,,,,,,,,,None,None,None,,None,None,441.9822424580052,None,1,1,0.6030973840097431,441.9822424580052,None,442.5801169512124,None,None,None,None,,2,001,2023_Jan_18_1003,searchDisc5,2021.2.3,59.9996096398467,
images/exp2a_trial_145_colour1_distractors9_l.png,l,1,1,9,0,,,,,0,121,121,121,,,,,,,,,,,,,,,,,,,,,,,,,,,,,,,,,,,,,,,,,,,442.59806449501775,None,2,0.2891334079904482,442.59806449501775,None,,,,,,,,,,,,,,,,None,None,None,,None,None,442.93010349202086,None,1,1,0.6187303330225404,442.93010349202086,None,443.5467376602028,None,None,None,None,,2,001,2023_Jan_18_1003,searchDisc5,2021.2.3,59.9996096398467,
images/exp2b_trial_198_colour2_distractors4_r.png,r,3,2,4,0,,,,,0,122,122,122,,,,,,,,,,,,,,,,,,,,,,,,,,,,,,,,,,,,,,,,,,,443.56522437001695,None,2,0.2723003190185409,443.56522437001695,None,,,,,,,,,,,,,,,,None,None,None,,None,None,443.8804064760043,None,3,1,0.7037771999894176,443.8804064760043,None,444.5802109552169,None,None,None,None,,2,001,2023_Jan_18_1003,searchDisc5,2021.2.3,59.9996096398467,
images/exp1a_trial_5_colour2_distractors1_r.png,r,3,2,1,0,,,,,0,123,123,123,,,,,,,,,,,,,,,,,,,,,,,,,,,,,,,,,,,,,,,,,,,444.59650751799927,None,2,0.26993403799133375,444.59650751799927,None,,,,,,,,,,,,,,,,None,None,None,,None,None,444.91355617000954,None,3,1,0.690424182015704,444.91355617000954,None,445.59685057120805,None,None,None,None,,2,001,2023_Jan_18_1003,searchDisc5,2021.2.3,59.9996096398467,
images/exp1a_trial_208_colour1_distractors4_l.png,l,1,1,4,0,,,,,0,124,124,124,,,,,,,,,,,,,,,,,,,,,,,,,,,,,,,,,,,,,,,,,,,445.613602922007,None,2,0.27068981699994765,445.613602922007,None,,,,,,,,,,,,,,,,None,None,None,,None,None,445.93060162701295,None,1,1,0.7021028330200352,445.93060162701295,None,446.6303049452108,None,None,None,None,,2,001,2023_Jan_18_1003,searchDisc5,2021.2.3,59.9996096398467,
images/exp2b_trial_92_colour3_distractors19_l.png,l,1,3,19,0,,,,,0,125,125,125,,,,,,,,,,,,,,,,,,,,,,,,,,,,,,,,,,,,,,,,,,,446.6483210880251,None,2,0.28743921700515784,446.6483210880251,None,,,,,,,,,,,,,,,,None,None,None,,None,None,446.980374597013,None,1,1,0.6526525559893344,446.980374597013,None,447.63022412320424,None,None,None,None,,2,001,2023_Jan_18_1003,searchDisc5,2021.2.3,59.9996096398467,
images/exp1a_trial_95_colour0_distractors0_l.png,l,1,0,0,0,,,,,0,126,126,126,,,,,,,,,,,,,,,,,,,,,,,,,,,,,,,,,,,,,,,,,,,447.64846736899926,None,2,0.2712597280042246,447.64846736899926,None,,,,,,,,,,,,,,,,None,None,None,,None,None,447.9632872080256,None,1,1,0.7544473829912022,447.9632872080256,None,448.7135472571972,None,None,None,None,,2,001,2023_Jan_18_1003,searchDisc5,2021.2.3,59.9996096398467,
images/exp1a_trial_170_colour3_distractors1_r.png,r,3,3,1,0,,,,,0,127,127,127,,,,,,,,,,,,,,,,,,,,,,,,,,,,,,,,,,,,,,,,,,,448.7298871850071,None,2,0.2712254399957601,448.7298871850071,None,,,,,,,,,,,,,,,,None,None,None,,None,None,449.04721970300307,None,3,1,0.8719426509924233,449.04721970300307,None,449.91359642321186,None,None,None,None,,2,001,2023_Jan_18_1003,searchDisc5,2021.2.3,59.9996096398467,
images/exp2c_trial_129_colour1_distractors4_r.png,r,3,1,4,0,,,,,0,128,128,128,,,,,,,,,,,,,,,,,,,,,,,,,,,,,,,,,,,,,,,,,,,449.9299433620181,None,2,0.23972024500835687,449.9299433620181,None,,,,,,,,,,,,,,,,None,None,None,,None,None,450.21581426702323,None,3,1,0.8188909199961927,450.21581426702323,None,451.030277580212,None,None,None,None,,2,001,2023_Jan_18_1003,searchDisc5,2021.2.3,59.9996096398467,
images/exp2c_trial_212_colour2_distractors1_l.png,l,1,2,1,0,,,,,0,129,129,129,,,,,,,,,,,,,,,,,,,,,,,,,,,,,,,,,,,,,,,,,,,451.04706313600764,None,2,0.25417440201272257,451.04706313600764,None,,,,,,,,,,,,,,,,None,None,None,,None,None,451.34739231300773,None,1,1,0.7214377860073,451.34739231300773,None,452.06366757721116,None,None,None,None,,2,001,2023_Jan_18_1003,searchDisc5,2021.2.3,59.9996096398467,
images/exp2b_trial_50_colour1_distractors19_l.png,l,1,1,19,0,,,,,0,130,130,130,,,,,,,,,,,,,,,,,,,,,,,,,,,,,,,,,,,,,,,,,,,452.0819539160002,None,2,0.2710304459906183,452.0819539160002,None,,,,,,,,,,,,,,,,None,None,None,,None,None,452.3973251749994,None,1,1,0.9188493410183582,452.3973251749994,None,453.3137855212117,None,None,None,None,,2,001,2023_Jan_18_1003,searchDisc5,2021.2.3,59.9996096398467,
images/exp2c_trial_226_colour1_distractors9_r.png,r,3,1,9,0,,,,,0,131,131,131,,,,,,,,,,,,,,,,,,,,,,,,,,,,,,,,,,,,,,,,,,,453.32995845301775,None,2,0.27297999599250033,453.32995845301775,None,,,,,,,,,,,,,,,,None,None,None,,None,None,453.6469875960029,None,3,1,1.5678997509821784,453.6469875960029,None,455.21363312120957,None,None,None,None,,2,001,2023_Jan_18_1003,searchDisc5,2021.2.3,59.9996096398467,
images/exp2a_trial_32_colour1_distractors1_r.png,r,3,1,1,0,,,,,0,132,132,132,,,,,,,,,,,,,,,,,,,,,,,,,,,,,,,,,,,,,,,,,,,455.23061563199735,None,2,0.18801341598737054,455.23061563199735,None,,,,,,,,,,,,,,,,None,None,None,,None,None,455.46552986401366,None,3,1,0.990043773985235,455.46552986401366,None,456.4472055032238,None,None,None,None,,2,001,2023_Jan_18_1003,searchDisc5,2021.2.3,59.9996096398467,
images/exp2a_trial_314_colour3_distractors4_l.png,l,1,3,4,0,,,,,0,133,133,133,,,,,,,,,,,,,,,,,,,,,,,,,,,,,,,,,,,,,,,,,,,456.4636408200022,None,2,0.2358202259929385,456.4636408200022,None,,,,,,,,,,,,,,,,None,None,None,,None,None,456.74746862001484,None,1,1,1.0373271699936595,456.74746862001484,None,457.7806695202162,None,None,None,None,,2,001,2023_Jan_18_1003,searchDisc5,2021.2.3,59.9996096398467,
images/exp2b_trial_91_colour3_distractors9_l.png,l,1,3,9,0,,,,,0,134,134,134,,,,,,,,,,,,,,,,,,,,,,,,,,,,,,,,,,,,,,,,,,,457.7972280130198,None,2,0.25625611998839304,457.7972280130198,None,,,,,,,,,,,,,,,,None,None,None,,None,None,458.0993675220234,None,1,1,0.9017188730067573,458.0993675220234,None,458.99715232021117,None,None,None,None,,2,001,2023_Jan_18_1003,searchDisc5,2021.2.3,59.9996096398467,
images/exp2b_trial_36_colour1_distractors31_r.png,r,3,1,31,0,,,,,0,135,135,135,,,,,,,,,,,,,,,,,,,,,,,,,,,,,,,,,,,,,,,,,,,459.01373756301473,None,2,0.23901440599001944,459.01373756301473,None,,,,,,,,,,,,,,,,None,None,None,,None,None,459.29755039402517,None,3,1,1.1158326489967294,459.29755039402517,None,460.41412269820285,None,None,None,None,,2,001,2023_Jan_18_1003,searchDisc5,2021.2.3,59.9996096398467,
images/exp2b_trial_122_colour3_distractors4_l.png,l,1,3,4,0,,,,,0,136,136,136,,,,,,,,,,,,,,,,,,,,,,,,,,,,,,,,,,,,,,,,,,,460.43270557001233,None,2,0.18978768200031482,460.43270557001233,None,,,,,,,,,,,,,,,,None,None,None,,None,None,460.6655031380069,None,1,1,0.7688983870029915,460.6655031380069,None,461.43057221321214,None,None,None,None,,2,001,2023_Jan_18_1003,searchDisc5,2021.2.3,59.9996096398467,
images/exp2a_trial_223_colour0_distractors0_l.png,l,1,0,0,0,,,,,0,137,137,137,,,,,,,,,,,,,,,,,,,,,,,,,,,,,,,,,,,,,,,,,,,461.44922458400833,None,2,0.2878477910126094,461.44922458400833,None,,,,,,,,,,,,,,,,None,None,None,,None,None,461.78072592502576,None,1,1,1.0049838840204757,461.78072592502576,None,462.78060090621875,None,None,None,None,,2,001,2023_Jan_18_1003,searchDisc5,2021.2.3,59.9996096398467,
images/exp2c_trial_93_colour3_distractors31_l.png,l,1,3,31,0,,,,,0,138,138,138,,,,,,,,,,,,,,,,,,,,,,,,,,,,,,,,,,,,,,,,,,,462.7990610730194,None,2,0.25446865599951707,462.7990610730194,None,,,,,,,,,,,,,,,,None,None,None,,None,None,463.0975101170188,None,1,1,1.9848368789826054,463.0975101170188,None,465.08067325320735,None,None,None,None,,2,001,2023_Jan_18_1003,searchDisc5,2021.2.3,59.9996096398467,
images/exp2b_trial_192_colour1_distractors1_r.png,r,3,1,1,0,,,,,0,139,139,139,,,,,,,,,,,,,,,,,,,,,,,,,,,,,,,,,,,,,,,,,,,465.09920902200975,None,2,0.23780613800045103,465.09920902200975,None,,,,,,,,,,,,,,,,None,None,None,,None,None,465.3805306130089,None,3,1,0.8715591229847632,465.3805306130089,None,466.24770615521993,None,None,None,None,,2,001,2023_Jan_18_1003,searchDisc5,2021.2.3,59.9996096398467,
images/exp2b_trial_56_colour2_distractors31_l.png,l,1,2,31,0,,,,,0,140,140,140,,,,,,,,,,,,,,,,,,,,,,,,,,,,,,,,,,,,,,,,,,,466.2640670360124,None,2,0.15347118000499904,466.2640670360124,None,,,,,,,,,,,,,,,,None,None,None,,None,None,466.464335340017,None,1,1,0.8346581810037605,466.464335340017,None,467.2975226142007,None,None,None,None,,2,001,2023_Jan_18_1003,searchDisc5,2021.2.3,59.9996096398467,
images/exp1a_trial_278_colour2_distractors9_l.png,l,1,2,9,0,,,,,0,141,141,141,,,,,,,,,,,,,,,,,,,,,,,,,,,,,,,,,,,,,,,,,,,467.31612765800674,None,2,0.23759675701148808,467.31612765800674,None,,,,,,,,,,,,,,,,None,None,None,,None,None,467.59755874599796,None,1,1,0.6846582629950717,467.59755874599796,None,468.28015725420846,None,None,None,None,,2,001,2023_Jan_18_1003,searchDisc5,2021.2.3,59.9996096398467,
images/exp2a_trial_69_colour2_distractors1_r.png,r,3,2,1,0,,,,,0,142,142,142,,,,,,,,,,,,,,,,,,,,,,,,,,,,,,,,,,,,,,,,,,,468.2973798860039,None,2,0.20467150199692696,468.2973798860039,None,,,,,,,,,,,,,,,,None,None,None,,None,None,468.5496403610159,None,3,1,0.8044756190211046,468.5496403610159,None,469.3471077572176,None,None,None,None,,2,001,2023_Jan_18_1003,searchDisc5,2021.2.3,59.9996096398467,
images/exp2c_trial_282_colour3_distractors4_l.png,l,1,3,4,0,,,,,0,143,143,143,,,,,,,,,,,,,,,,,,,,,,,,,,,,,,,,,,,,,,,,,,,469.36415204699733,None,2,0.20473532201140188,469.36415204699733,None,,,,,,,,,,,,,,,,None,None,None,,None,None,469.61612227599835,None,1,1,0.8377042890060693,469.61612227599835,None,470.44756578419765,None,None,None,None,,2,001,2023_Jan_18_1003,searchDisc5,2021.2.3,59.9996096398467,
images/exp2a_trial_239_colour1_distractors1_l.png,l,1,1,1,0,,,,,0,144,144,144,,,,,,,,,,,,,,,,,,,,,,,,,,,,,,,,,,,,,,,,,,,470.4640148309991,None,2,0.23779440400539897,470.4640148309991,None,,,,,,,,,,,,,,,,None,None,None,,None,None,470.7476798790158,None,1,1,0.722924128989689,470.7476798790158,None,471.4642200652015,None,None,None,None,,2,001,2023_Jan_18_1003,searchDisc5,2021.2.3,59.9996096398467,
images/exp1a_trial_17_colour1_distractors9_l.png,l,1,1,9,0,,,,,0,145,145,145,,,,,,,,,,,,,,,,,,,,,,,,,,,,,,,,,,,,,,,,,,,471.48063448502216,None,2,0.22145310600171797,471.48063448502216,None,,,,,,,,,,,,,,,,None,None,None,,None,None,471.74977920600213,None,1,1,0.7005006709950976,471.74977920600213,None,472.4473045962077,None,None,None,None,,2,001,2023_Jan_18_1003,searchDisc5,2021.2.3,59.9996096398467,
images/exp2a_trial_89_colour3_distractors1_l.png,l,1,3,1,0,,,,,0,146,146,146,,,,,,,,,,,,,,,,,,,,,,,,,,,,,,,,,,,,,,,,,,,472.4635933120153,None,2,0.23903488300857134,472.4635933120153,None,,,,,,,,,,,,,,,,None,None,None,,None,None,472.74982546802494,None,1,1,0.6355583919794299,472.74982546802494,None,473.38114568921446,None,None,None,None,,2,001,2023_Jan_18_1003,searchDisc5,2021.2.3,59.9996096398467,
images/exp1a_trial_261_colour2_distractors1_r.png,r,3,2,1,0,,,,,0,147,147,147,,,,,,,,,,,,,,,,,,,,,,,,,,,,,,,,,,,,,,,,,,,473.39757736300817,None,2,0.22318700200412422,473.39757736300817,None,,,,,,,,,,,,,,,,None,None,None,,None,None,473.6668129520258,None,3,1,0.6852717150177341,473.6668129520258,None,474.34779042621085,None,None,None,None,,2,001,2023_Jan_18_1003,searchDisc5,2021.2.3,59.9996096398467,
images/exp2c_trial_300_colour3_distractors9_r.png,r,3,3,9,0,,,,,0,148,148,148,,,,,,,,,,,,,,,,,,,,,,,,,,,,,,,,,,,,,,,,,,,474.3663344530214,None,2,0.2208898440003395,474.3663344530214,None,,,,,,,,,,,,,,,,None,None,None,,None,None,474.63129320100415,None,3,1,0.737643016007496,474.63129320100415,None,475.3642731951986,None,None,None,None,,2,001,2023_Jan_18_1003,searchDisc5,2021.2.3,59.9996096398467,
images/exp2a_trial_125_colour3_distractors31_l.png,l,1,3,31,0,,,,,0,149,149,149,,,,,,,,,,,,,,,,,,,,,,,,,,,,,,,,,,,,,,,,,,,475.38029283401556,None,2,0.239334436977515,475.38029283401556,None,,,,,,,,,,,,,,,,None,None,None,,None,None,475.66449436501716,None,1,1,0.6497532459907234,475.66449436501716,None,476.3144533691957,None,None,None,None,,2,001,2023_Jan_18_1003,searchDisc5,2021.2.3,59.9996096398467,
images/exp2c_trial_201_colour2_distractors31_r.png,r,3,2,31,0,,,,,0,150,150,150,,,,,,,,,,,,,,,,,,,,,,,,,,,,,,,,,,,,,,,,,,,476.3303346730245,None,2,0.22271959800855257,476.3303346730245,None,,,,,,,,,,,,,,,,None,None,None,,None,None,476.59955433700816,None,3,1,0.6494617340213154,476.59955433700816,None,477.247824144215,None,None,None,None,,2,001,2023_Jan_18_1003,searchDisc5,2021.2.3,59.9996096398467,
images/exp2b_trial_293_colour2_distractors1_r.png,r,3,2,1,0,,,,,0,151,151,151,,,,,,,,,,,,,,,,,,,,,,,,,,,,,,,,,,,,,,,,,,,477.26416647501173,None,2,0.2541817020101007,477.26416647501173,None,,,,,,,,,,,,,,,,None,None,None,,None,None,477.56463476101635,None,3,1,0.7048020529909991,477.56463476101635,None,478.264474530195,None,None,None,None,,2,001,2023_Jan_18_1003,searchDisc5,2021.2.3,59.9996096398467,
images/exp1a_trial_144_colour1_distractors4_l.png,l,1,1,4,0,,,,,0,152,152,152,,,,,,,,,,,,,,,,,,,,,,,,,,,,,,,,,,,,,,,,,,,478.281031482009,None,2,0.22111807399778627,478.281031482009,None,,,,,,,,,,,,,,,,None,None,None,,None,None,478.54996707401006,None,1,1,0.619688306003809,478.54996707401006,None,479.1642601352214,None,None,None,None,,2,001,2023_Jan_18_1003,searchDisc5,2021.2.3,59.9996096398467,
images/exp2a_trial_143_colour1_distractors1_l.png,l,1,1,1,0,,,,,0,153,153,153,,,,,,,,,,,,,,,,,,,,,,,,,,,,,,,,,,,,,,,,,,,479.1810282290098,None,2,0.24014797899872065,479.1810282290098,None,,,,,,,,,,,,,,,,None,None,None,,None,None,479.4661802769988,None,1,1,0.7858913080126513,479.4661802769988,None,480.24777632219775,None,None,None,None,,2,001,2023_Jan_18_1003,searchDisc5,2021.2.3,59.9996096398467,
images/exp2c_trial_134_colour2_distractors4_r.png,r,3,2,4,0,,,,,0,154,154,154,,,,,,,,,,,,,,,,,,,,,,,,,,,,,,,,,,,,,,,,,,,480.2644642430241,None,2,0.20462440000846982,480.2644642430241,None,,,,,,,,,,,,,,,,None,None,None,,None,None,480.5167146020103,None,3,1,0.8206686680205166,480.5167146020103,None,481.3312206452101,None,None,None,None,,2,001,2023_Jan_18_1003,searchDisc5,2021.2.3,59.9996096398467,
images/exp2a_trial_119_colour2_distractors19_l.png,l,1,2,19,0,,,,,0,155,155,155,,,,,,,,,,,,,,,,,,,,,,,,,,,,,,,,,,,,,,,,,,,481.34774552102317,None,2,0.2063860779744573,481.34774552102317,None,,,,,,,,,,,,,,,,None,None,None,,None,None,481.603616908018,None,1,1,0.7608878589817323,481.603616908018,None,482.3645045582234,None,None,None,None,,2,001,2023_Jan_18_1003,searchDisc5,2021.2.3,59.9996096398467,
images/exp2b_trial_159_colour0_distractors0_l.png,l,1,0,0,0,,,,,0,156,156,156,,,,,,,,,,,,,,,,,,,,,,,,,,,,,,,,,,,,,,,,,,,482.38296219400945,None,2,0.2210138520167675,482.38296219400945,None,,,,,,,,,,,,,,,,None,None,None,,None,None,482.64758488102234,None,1,1,0.7379465349949896,482.64758488102234,None,483.3812812432152,None,None,None,None,,2,001,2023_Jan_18_1003,searchDisc5,2021.2.3,59.9996096398467,
images/exp2b_trial_5_colour2_distractors1_r.png,r,3,2,1,0,,,,,0,157,157,157,,,,,,,,,,,,,,,,,,,,,,,,,,,,,,,,,,,,,,,,,,,483.39781177800614,None,2,0.23764241399476305,483.39781177800614,None,,,,,,,,,,,,,,,,None,None,None,,None,None,483.6814363420126,None,3,1,0.704460202017799,483.6814363420126,None,484.38107771521027,None,None,None,None,,2,001,2023_Jan_18_1003,searchDisc5,2021.2.3,59.9996096398467,
images/exp2a_trial_175_colour1_distractors1_l.png,l,1,1,1,0,,,,,0,158,158,158,,,,,,,,,,,,,,,,,,,,,,,,,,,,,,,,,,,,,,,,,,,484.397450732009,None,2,0.23984262300655246,484.397450732009,None,,,,,,,,,,,,,,,,None,None,None,,None,None,484.6836585700221,None,1,1,0.854484703973867,484.6836585700221,None,485.5312988562073,None,None,None,None,,2,001,2023_Jan_18_1003,searchDisc5,2021.2.3,59.9996096398467,
images/exp1a_trial_123_colour3_distractors9_l.png,l,1,3,9,0,,,,,0,159,159,159,,,,,,,,,,,,,,,,,,,,,,,,,,,,,,,,,,,,,,,,,,,485.54998112501926,None,2,0.22003106601187028,485.54998112501926,None,,,,,,,,,,,,,,,,None,None,None,,None,None,485.81462284500594,None,1,1,0.6857269209867809,485.81462284500594,None,486.49812857421057,None,None,None,None,,2,001,2023_Jan_18_1003,searchDisc5,2021.2.3,59.9996096398467,
images/exp2c_trial_103_colour2_distractors9_r.png,r,3,2,9,0,,,,,0,160,160,160,,,,,,,,,,,,,,,,,,,,,,,,,,,,,,,,,,,,,,,,,,,486.51465778102283,None,2,0.2220008570002392,486.51465778102283,None,,,,,,,,,,,,,,,,None,None,None,,None,None,486.78359975400963,None,3,1,0.7028708969883155,486.78359975400963,None,487.48129270721984,None,None,None,None,,2,001,2023_Jan_18_1003,searchDisc5,2021.2.3,59.9996096398467,
images/exp2b_trial_135_colour2_distractors9_r.png,r,3,2,9,0,,,,,0,161,161,161,,,,,,,,,,,,,,,,,,,,,,,,,,,,,,,,,,,,,,,,,,,487.4980194939999,None,2,0.1877710139960982,487.4980194939999,None,,,,,,,,,,,,,,,,None,None,None,,None,None,487.73361062200274,None,3,1,0.7849340020038653,487.73361062200274,None,488.5143298822077,None,None,None,None,,2,001,2023_Jan_18_1003,searchDisc5,2021.2.3,59.9996096398467,
images/exp2c_trial_163_colour1_distractors19_r.png,r,3,1,19,0,,,,,0,162,162,162,,,,,,,,,,,,,,,,,,,,,,,,,,,,,,,,,,,,,,,,,,,488.5307388259971,None,2,0.23815839501912706,488.5307388259971,None,,,,,,,,,,,,,,,,None,None,None,,None,None,488.81485326201073,None,3,1,0.6688143700012006,488.81485326201073,None,489.4812825402041,None,None,None,None,,2,001,2023_Jan_18_1003,searchDisc5,2021.2.3,59.9996096398467,
images/exp1a_trial_212_colour2_distractors1_l.png,l,1,2,1,0,,,,,0,163,163,163,,,,,,,,,,,,,,,,,,,,,,,,,,,,,,,,,,,,,,,,,,,489.4975642970239,None,2,0.18778506497619674,489.4975642970239,None,,,,,,,,,,,,,,,,None,None,None,,None,None,489.73362786200596,None,1,1,0.8379337369988207,489.73362786200596,None,490.56469402120274,None,None,None,None,,2,001,2023_Jan_18_1003,searchDisc5,2021.2.3,59.9996096398467,
images/exp2b_trial_291_colour1_distractors19_r.png,r,3,1,19,0,,,,,0,164,164,164,,,,,,,,,,,,,,,,,,,,,,,,,,,,,,,,,,,,,,,,,,,490.58124359100475,None,2,0.22298023401526734,490.58124359100475,None,,,,,,,,,,,,,,,,None,None,None,,None,None,490.8478349240031,None,3,1,0.6673642949899659,490.8478349240031,None,491.5149818602222,None,None,None,None,,2,001,2023_Jan_18_1003,searchDisc5,2021.2.3,59.9996096398467,
images/exp2a_trial_67_colour1_distractors19_r.png,r,3,1,19,0,,,,,0,165,165,165,,,,,,,,,,,,,,,,,,,,,,,,,,,,,,,,,,,,,,,,,,,491.53118856600486,None,2,0.23971622801036574,491.53118856600486,None,,,,,,,,,,,,,,,,None,None,None,,None,None,491.8151116160152,None,3,1,0.7500478359870613,491.8151116160152,None,492.56475375221635,None,None,None,None,,2,001,2023_Jan_18_1003,searchDisc5,2021.2.3,59.9996096398467,
images/exp2c_trial_136_colour2_distractors19_r.png,r,3,2,19,0,,,,,0,166,166,166,,,,,,,,,,,,,,,,,,,,,,,,,,,,,,,,,,,,,,,,,,,492.581338567019,None,2,0.25620329700177535,492.581338567019,None,,,,,,,,,,,,,,,,None,None,None,,None,None,492.88160762700136,None,3,1,0.7997789529908914,492.88160762700136,None,493.6813168312219,None,None,None,None,,2,001,2023_Jan_18_1003,searchDisc5,2021.2.3,59.9996096398467,
images/exp2a_trial_63_colour0_distractors0_l.png,l,1,0,0,0,,,,,0,167,167,167,,,,,,,,,,,,,,,,,,,,,,,,,,,,,,,,,,,,,,,,,,,493.6981440380041,None,2,0.25675988500006497,493.6981440380041,None,,,,,,,,,,,,,,,,None,None,None,,None,None,493.9984412260237,None,1,1,0.6694011790095828,493.9984412260237,None,494.6648232102016,None,None,None,None,,2,001,2023_Jan_18_1003,searchDisc5,2021.2.3,59.9996096398467,
images/exp2b_trial_271_colour1_distractors1_l.png,l,1,1,1,0,,,,,0,168,168,168,,,,,,,,,,,,,,,,,,,,,,,,,,,,,,,,,,,,,,,,,,,494.68111817300087,None,2,0.23998618900077417,494.68111817300087,None,,,,,,,,,,,,,,,,None,None,None,,None,None,494.96719496001606,None,1,1,0.719657476991415,494.96719496001606,None,495.6815816632152,None,None,None,None,,2,001,2023_Jan_18_1003,searchDisc5,2021.2.3,59.9996096398467,
images/exp2c_trial_277_colour2_distractors4_l.png,l,1,2,4,0,,,,,0,169,169,169,,,,,,,,,,,,,,,,,,,,,,,,,,,,,,,,,,,,,,,,,,,495.6977535460028,None,2,0.23994459098321386,495.6977535460028,None,,,,,,,,,,,,,,,,None,None,None,,None,None,495.9817479030171,None,1,1,0.752172303997213,495.9817479030171,None,496.731538044216,None,None,None,None,,2,001,2023_Jan_18_1003,searchDisc5,2021.2.3,59.9996096398467,
images/exp2a_trial_173_colour3_distractors19_r.png,r,3,3,19,0,,,,,0,170,170,170,,,,,,,,,,,,,,,,,,,,,,,,,,,,,,,,,,,,,,,,,,,496.7479993570014,None,2,0.27114475501002744,496.7479993570014,None,,,,,,,,,,,,,,,,None,None,None,,None,None,497.06445892201737,None,3,1,0.7181733020115644,497.06445892201737,None,497.7813052522106,None,None,None,None,,2,001,2023_Jan_18_1003,searchDisc5,2021.2.3,59.9996096398467,
images/exp2c_trial_232_colour2_distractors19_r.png,r,3,2,19,0,,,,,0,171,171,171,,,,,,,,,,,,,,,,,,,,,,,,,,,,,,,,,,,,,,,,,,,497.7982035810128,None,2,0.20645522998529486,497.7982035810128,None,,,,,,,,,,,,,,,,None,None,None,,None,None,498.0504378140031,None,3,1,0.666825622000033,498.0504378140031,None,498.7150278742047,None,None,None,None,,2,001,2023_Jan_18_1003,searchDisc5,2021.2.3,59.9996096398467,
images/exp2b_trial_112_colour1_distractors4_l.png,l,1,1,4,0,,,,,0,172,172,172,,,,,,,,,,,,,,,,,,,,,,,,,,,,,,,,,,,,,,,,,,,498.73160023300443,None,2,0.23773333898861893,498.73160023300443,None,,,,,,,,,,,,,,,,None,None,None,,None,None,499.01520370302023,None,1,1,0.937588148022769,499.01520370302023,None,499.9482225751999,None,None,None,None,,2,001,2023_Jan_18_1003,searchDisc5,2021.2.3,59.9996096398467,
images/exp2c_trial_91_colour3_distractors9_l.png,l,1,3,9,0,,,,,0,173,173,173,,,,,,,,,,,,,,,,,,,,,,,,,,,,,,,,,,,,,,,,,,,499.9644157620205,None,2,0.17119905099389143,499.9644157620205,None,,,,,,,,,,,,,,,,None,None,None,,None,None,500.1837030980096,None,1,1,0.8701128810062073,500.1837030980096,None,501.04862366120506,None,None,None,None,,2,001,2023_Jan_18_1003,searchDisc5,2021.2.3,59.9996096398467,
images/exp1a_trial_289_colour1_distractors4_r.png,r,3,1,4,0,,,,,0,174,174,174,,,,,,,,,,,,,,,,,,,,,,,,,,,,,,,,,,,,,,,,,,,501.06495583901415,None,2,0.22109212499344721,501.06495583901415,None,,,,,,,,,,,,,,,,None,None,None,,None,None,501.3339374420175,None,3,1,0.7557468579907436,501.3339374420175,None,502.08193507221586,None,None,None,None,,2,001,2023_Jan_18_1003,searchDisc5,2021.2.3,59.9996096398467,
images/exp1a_trial_160_colour1_distractors1_r.png,r,3,1,1,0,,,,,0,175,175,175,,,,,,,,,,,,,,,,,,,,,,,,,,,,,,,,,,,,,,,,,,,502.09836627100594,None,2,0.20410548499785364,502.09836627100594,None,,,,,,,,,,,,,,,,None,None,None,,None,None,502.35058675301843,None,3,1,0.7019533650018275,502.35058675301843,None,503.0482593592169,None,None,None,None,,2,001,2023_Jan_18_1003,searchDisc5,2021.2.3,59.9996096398467,
images/exp2a_trial_244_colour2_distractors1_l.png,l,1,2,1,0,,,,,0,176,176,176,,,,,,,,,,,,,,,,,,,,,,,,,,,,,,,,,,,,,,,,,,,503.06468815600965,None,2,0.22075059099006467,503.06468815600965,None,,,,,,,,,,,,,,,,None,None,None,,None,None,503.3339721010125,None,1,1,0.8045802929846104,503.3339721010125,None,504.13122909019876,None,None,None,None,,2,001,2023_Jan_18_1003,searchDisc5,2021.2.3,59.9996096398467,
images/exp2a_trial_146_colour1_distractors19_l.png,l,1,1,19,0,,,,,0,177,177,177,,,,,,,,,,,,,,,,,,,,,,,,,,,,,,,,,,,,,,,,,,,504.1484249799978,None,2,0.2051956569775939,504.1484249799978,None,,,,,,,,,,,,,,,,None,None,None,,None,None,504.40063814099994,None,1,1,0.8198701650253497,504.40063814099994,None,505.21507098521397,None,None,None,None,,2,001,2023_Jan_18_1003,searchDisc5,2021.2.3,59.9996096398467,
images/exp2a_trial_121_colour3_distractors1_l.png,l,1,3,1,0,,,,,0,178,178,178,,,,,,,,,,,,,,,,,,,,,,,,,,,,,,,,,,,,,,,,,,,505.23176926901215,None,2,0.20481653898605146,505.23176926901215,None,,,,,,,,,,,,,,,,None,None,None,,None,None,505.48432895500446,None,1,1,0.7195076879870612,505.48432895500446,None,506.198519865211,None,None,None,None,,2,001,2023_Jan_18_1003,searchDisc5,2021.2.3,59.9996096398467,
images/exp2c_trial_228_colour1_distractors31_r.png,r,3,1,31,0,,,,,0,179,179,179,,,,,,,,,,,,,,,,,,,,,,,,,,,,,,,,,,,,,,,,,,,506.21510263401433,None,2,0.1877873659832403,506.21510263401433,None,,,,,,,,,,,,,,,,None,None,None,,None,None,506.4508314150153,None,3,1,0.7675353710073978,506.4508314150153,None,507.2152179902041,None,None,None,None,,2,001,2023_Jan_18_1003,searchDisc5,2021.2.3,59.9996096398467,
images/exp1a_trial_3_colour1_distractors19_r.png,r,3,1,19,0,,,,,0,180,180,180,,,,,,,,,,,,,,,,,,,,,,,,,,,,,,,,,,,,,,,,,,,507.23343831000966,None,2,0.23789338598726317,507.23343831000966,None,,,,,,,,,,,,,,,,None,None,None,,None,None,507.5152070930053,None,3,1,0.9836439310165588,507.5152070930053,None,508.4984507761983,None,None,None,None,,2,001,2023_Jan_18_1003,searchDisc5,2021.2.3,59.9996096398467,
images/exp1a_trial_247_colour2_distractors19_l.png,l,1,2,19,0,,,,,0,181,181,181,,,,,,,,,,,,,,,,,,,,,,,,,,,,,,,,,,,,,,,,,,,508.51452467101626,None,2,0.20668465600465424,508.51452467101626,None,,,,,,,,,,,,,,,,None,None,None,,None,None,508.76743506701314,None,1,1,0.7503093540144619,508.76743506701314,None,509.51514837420837,None,None,None,None,,2,001,2023_Jan_18_1003,searchDisc5,2021.2.3,59.9996096398467,
images/exp2c_trial_278_colour2_distractors9_l.png,l,1,2,9,0,,,,,0,182,182,182,,,,,,,,,,,,,,,,,,,,,,,,,,,,,,,,,,,,,,,,,,,509.53122838999843,None,2,0.2691973530163523,509.53122838999843,None,,,,,,,,,,,,,,,,None,None,None,,None,None,509.8490546500252,None,1,1,0.7030839439830743,509.8490546500252,None,510.5487043962203,None,None,None,None,,2,001,2023_Jan_18_1003,searchDisc5,2021.2.3,59.9996096398467,
images/exp2b_trial_267_colour3_distractors4_r.png,r,3,3,4,0,,,,,0,183,183,183,,,,,,,,,,,,,,,,,,,,,,,,,,,,,,,,,,,,,,,,,,,510.56521204899764,None,2,0.23971710799378343,510.56521204899764,None,,,,,,,,,,,,,,,,None,None,None,,None,None,510.84885821602074,None,3,1,0.7510242330026813,510.84885821602074,None,511.5977909122157,None,None,None,None,,2,001,2023_Jan_18_1003,searchDisc5,2021.2.3,59.9996096398467,
images/exp2a_trial_16_colour1_distractors4_l.png,l,1,1,4,0,,,,,0,184,184,184,,,,,,,,,,,,,,,,,,,,,,,,,,,,,,,,,,,,,,,,,,,511.6149623670208,None,2,0.20740871300222352,511.6149623670208,None,,,,,,,,,,,,,,,,None,None,None,,None,None,511.86763212402,None,1,1,0.6538770839979406,511.86763212402,None,512.5153415952082,None,None,None,None,,2,001,2023_Jan_18_1003,searchDisc5,2021.2.3,59.9996096398467,
images/exp2a_trial_37_colour2_distractors1_r.png,r,3,2,1,0,,,,,0,185,185,185,,,,,,,,,,,,,,,,,,,,,,,,,,,,,,,,,,,,,,,,,,,512.5315642240166,None,2,0.20460043600178324,512.5315642240166,None,,,,,,,,,,,,,,,,None,None,None,,None,None,512.7842825020198,None,1,0,0.6187556090008002,512.7842825020198,None,513.3985537451954,None,None,None,None,,2,001,2023_Jan_18_1003,searchDisc5,2021.2.3,59.9996096398467,
images/exp2a_trial_64_colour1_distractors1_r.png,r,3,1,1,0,,,,,0,186,186,186,,,,,,,,,,,,,,,,,,,,,,,,,,,,,,,,,,,,,,,,,,,513.415267680015,None,2,1.6045131139981095,513.415267680015,None,,,,,,,,,,,,,,,,None,None,None,,None,None,515.0656075139996,None,3,1,1.0045361320080701,515.0656075139996,None,516.0655501322035,None,None,None,None,,2,001,2023_Jan_18_1003,searchDisc5,2021.2.3,59.9996096398467,
images/exp1a_trial_85_colour2_distractors4_l.png,l,1,2,4,0,,,,,0,187,187,187,,,,,,,,,,,,,,,,,,,,,,,,,,,,,,,,,,,,,,,,,,,516.0821565460064,None,2,0.13774635299341753,516.0821565460064,None,,,,,,,,,,,,,,,,None,None,None,,None,None,516.2655977010145,None,1,1,0.8702232779760379,516.2655977010145,None,517.1322705852072,None,None,None,None,,2,001,2023_Jan_18_1003,searchDisc5,2021.2.3,59.9996096398467,
images/exp1a_trial_295_colour2_distractors9_r.png,r,3,2,9,0,,,,,0,188,188,188,,,,,,,,,,,,,,,,,,,,,,,,,,,,,,,,,,,,,,,,,,,517.1487089680159,None,2,0.23990597398369573,517.1487089680159,None,,,,,,,,,,,,,,,,None,None,None,,None,None,517.4320670630259,None,3,1,0.9157104619953316,517.4320670630259,None,518.3481938602199,None,None,None,None,,2,001,2023_Jan_18_1003,searchDisc5,2021.2.3,59.9996096398467,
images/exp1a_trial_202_colour3_distractors1_r.png,r,3,3,1,0,,,,,0,189,189,189,,,,,,,,,,,,,,,,,,,,,,,,,,,,,,,,,,,,,,,,,,,518.3654629470257,None,2,0.20722811200539581,518.3654629470257,None,,,,,,,,,,,,,,,,None,None,None,,None,None,518.6178198440175,None,3,1,1.0356098919874057,518.6178198440175,None,519.6489657782222,None,None,None,None,,2,001,2023_Jan_18_1003,searchDisc5,2021.2.3,59.9996096398467,
images/exp1a_trial_254_colour0_distractors0_r.png,r,3,0,0,0,,,,,0,190,190,190,,,,,,,,,,,,,,,,,,,,,,,,,,,,,,,,,,,,,,,,,,,519.6655301360006,None,2,0.17080806102603674,519.6655301360006,None,,,,,,,,,,,,,,,,None,None,None,,None,None,519.8823999140004,None,3,1,1.5716004300047643,519.8823999140004,None,521.4488498622231,None,None,None,None,,2,001,2023_Jan_18_1003,searchDisc5,2021.2.3,59.9996096398467,
images/exp2b_trial_248_colour2_distractors31_l.png,l,1,2,31,0,,,,,0,191,191,191,,,,,,,,,,,,,,,,,,,,,,,,,,,,,,,,,,,,,,,,,,,521.4655851440039,None,2,0.20652711001457646,521.4655851440039,None,,,,,,,,,,,,,,,,None,None,None,,None,None,521.717803624022,None,1,1,0.7489853169827256,521.717803624022,None,522.4653298552003,None,None,None,None,,2,001,2023_Jan_18_1003,searchDisc5,2021.2.3,59.9996096398467,
images/exp2a_trial_171_colour3_distractors4_r.png,r,3,3,4,0,,,,,0,192,192,192,,,,,,,,,,,,,,,,,,,,,,,,,,,,,,,,,,,,,,,,,,,522.4818326660024,None,2,0.20628957598819397,522.4818326660024,None,,,,,,,,,,,,,,,,None,None,None,,None,None,522.7346689010155,None,3,1,0.718539838999277,522.7346689010155,None,523.448949739206,None,None,None,None,,2,001,2023_Jan_18_1003,searchDisc5,2021.2.3,59.9996096398467,
images/exp2b_trial_269_colour3_distractors19_r.png,r,3,3,19,0,,,,,0,193,193,193,,,,,,,,,,,,,,,,,,,,,,,,,,,,,,,,,,,,,,,,,,,523.4656208210217,None,2,0.20467771199764684,523.4656208210217,None,,,,,,,,,,,,,,,,None,None,None,,None,None,523.717357164016,None,3,1,0.7349888180033304,523.717357164016,None,524.4491160012112,None,None,None,None,,2,001,2023_Jan_18_1003,searchDisc5,2021.2.3,59.9996096398467,
images/exp1a_trial_37_colour2_distractors1_r.png,r,3,2,1,0,,,,,0,194,194,194,,,,,,,,,,,,,,,,,,,,,,,,,,,,,,,,,,,,,,,,,,,524.4650966610061,None,2,0.18789194399141707,524.4650966610061,None,,,,,,,,,,,,,,,,None,None,None,,None,None,524.7012911380152,None,3,1,0.9214985919825267,524.7012911380152,None,525.6156836552109,None,None,None,None,,2,001,2023_Jan_18_1003,searchDisc5,2021.2.3,59.9996096398467,
images/exp1a_trial_191_colour0_distractors0_l.png,l,1,0,0,0,,,,,0,195,195,195,,,,,,,,,,,,,,,,,,,,,,,,,,,,,,,,,,,,,,,,,,,525.6319772290008,None,2,0.23797145497519523,525.6319772290008,None,,,,,,,,,,,,,,,,None,None,None,,None,None,525.9156217450218,None,1,1,0.7547555989876855,525.9156217450218,None,526.6654555332061,None,None,None,None,,2,001,2023_Jan_18_1003,searchDisc5,2021.2.3,59.9996096398467,
images/exp2a_trial_174_colour3_distractors31_r.png,r,3,3,31,0,,,,,0,196,196,196,,,,,,,,,,,,,,,,,,,,,,,,,,,,,,,,,,,,,,,,,,,526.6816478440014,None,2,0.24013153498526663,526.6816478440014,None,,,,,,,,,,,,,,,,None,None,None,,None,None,526.9678020520078,None,3,1,0.7989577999978792,526.9678020520078,None,527.7656142552005,None,None,None,None,,2,001,2023_Jan_18_1003,searchDisc5,2021.2.3,59.9996096398467,
images/exp2a_trial_20_colour2_distractors1_l.png,l,1,2,1,0,,,,,0,197,197,197,,,,,,,,,,,,,,,,,,,,,,,,,,,,,,,,,,,,,,,,,,,527.7819681390247,None,2,0.20637292799074203,527.7819681390247,None,,,,,,,,,,,,,,,,None,None,None,,None,None,528.0339369770081,None,1,1,0.7043564910127316,528.0339369770081,None,528.732320824216,None,None,None,None,,2,001,2023_Jan_18_1003,searchDisc5,2021.2.3,59.9996096398467,
images/exp2c_trial_304_colour1_distractors4_l.png,l,1,1,4,0,,,,,0,198,198,198,,,,,,,,,,,,,,,,,,,,,,,,,,,,,,,,,,,,,,,,,,,528.7484493000084,None,2,0.25442581198876724,528.7484493000084,None,,,,,,,,,,,,,,,,None,None,None,,None,None,529.0512457390141,None,1,1,0.6689349439984653,529.0512457390141,None,529.7157883971959,None,None,None,None,,2,001,2023_Jan_18_1003,searchDisc5,2021.2.3,59.9996096398467,
images/exp2c_trial_150_colour2_distractors9_l.png,l,1,2,9,0,,,,,0,199,199,199,,,,,,,,,,,,,,,,,,,,,,,,,,,,,,,,,,,,,,,,,,,529.7322639870108,None,2,0.2711542370088864,529.7322639870108,None,,,,,,,,,,,,,,,,None,None,None,,None,None,530.0495542930148,None,1,1,0.7200892499822658,530.0495542930148,None,530.7657969411957,None,None,None,None,,2,001,2023_Jan_18_1003,searchDisc5,2021.2.3,59.9996096398467,
images/exp2b_trial_288_colour1_distractors1_r.png,r,3,1,1,0,,,,,0,200,200,200,,,,,,,,,,,,,,,,,,,,,,,,,,,,,,,,,,,,,,,,,,,530.7821310190193,None,2,0.3045426679891534,530.7821310190193,None,,,,,,,,,,,,,,,,None,None,None,,None,None,531.1326887180039,None,3,1,0.6556025090103503,531.1326887180039,None,531.7824888702162,None,None,None,None,,2,001,2023_Jan_18_1003,searchDisc5,2021.2.3,59.9996096398467,
images/exp1a_trial_259_colour1_distractors19_r.png,r,3,1,19,0,,,,,0,201,201,201,,,,,,,,,,,,,,,,,,,,,,,,,,,,,,,,,,,,,,,,,,,531.7989892839978,None,2,0.28690720998565666,531.7989892839978,None,,,,,,,,,,,,,,,,None,None,None,,None,None,532.1331990370236,None,3,1,0.6843897130165715,532.1331990370236,None,532.8153541302163,None,None,None,None,,2,001,2023_Jan_18_1003,searchDisc5,2021.2.3,59.9996096398467,
images/exp2a_trial_19_colour1_distractors31_l.png,l,1,1,31,0,,,,,0,202,202,202,,,,,,,,,,,,,,,,,,,,,,,,,,,,,,,,,,,,,,,,,,,532.834695624013,None,2,0.25717024100595154,532.834695624013,None,,,,,,,,,,,,,,,,None,None,None,,None,None,533.1326866140007,None,1,1,0.6989668679889292,533.1326866140007,None,533.8326508572063,None,None,None,None,,2,001,2023_Jan_18_1003,searchDisc5,2021.2.3,59.9996096398467,
images/exp2a_trial_100_colour1_distractors31_r.png,r,3,1,31,0,,,,,0,203,203,203,,,,,,,,,,,,,,,,,,,,,,,,,,,,,,,,,,,,,,,,,,,533.8492351880122,None,2,0.20771996100666001,533.8492351880122,None,,,,,,,,,,,,,,,,None,None,None,,None,None,534.1019054390199,None,3,1,0.730905395001173,534.1019054390199,None,534.8325901522039,None,None,None,None,,2,001,2023_Jan_18_1003,searchDisc5,2021.2.3,59.9996096398467,
images/exp1a_trial_13_colour3_distractors19_r.png,r,3,3,19,0,,,,,0,204,204,204,,,,,,,,,,,,,,,,,,,,,,,,,,,,,,,,,,,,,,,,,,,534.8490903100173,None,2,0.2706629280000925,534.8490903100173,None,,,,,,,,,,,,,,,,None,None,None,,None,None,535.1660696080071,None,3,1,0.6836612059851177,535.1660696080071,None,535.8495485301974,None,None,None,None,,2,001,2023_Jan_18_1003,searchDisc5,2021.2.3,59.9996096398467,
images/exp2b_trial_81_colour1_distractors9_l.png,l,1,1,9,0,,,,,0,205,205,205,,,,,,,,,,,,,,,,,,,,,,,,,,,,,,,,,,,,,,,,,,,535.866008506011,None,2,0.2709528760169633,535.866008506011,None,,,,,,,,,,,,,,,,None,None,None,,None,None,536.1823136309977,None,1,1,0.7038146590057295,536.1823136309977,None,536.8828496702045,None,None,None,None,,2,001,2023_Jan_18_1003,searchDisc5,2021.2.3,59.9996096398467,
images/exp2b_trial_116_colour2_distractors1_l.png,l,1,2,1,0,,,,,0,206,206,206,,,,,,,,,,,,,,,,,,,,,,,,,,,,,,,,,,,,,,,,,,,536.8992999390175,None,2,0.27313443101593293,536.8992999390175,None,,,,,,,,,,,,,,,,None,None,None,,None,None,537.2163588760013,None,3,0,0.669642131018918,537.2163588760013,None,537.8828670442017,None,None,None,None,,2,001,2023_Jan_18_1003,searchDisc5,2021.2.3,59.9996096398467,
images/exp1a_trial_225_colour1_distractors4_r.png,r,3,1,4,0,,,,,0,207,207,207,,,,,,,,,,,,,,,,,,,,,,,,,,,,,,,,,,,,,,,,,,,537.8991275280132,None,2,0.7711008759797551,537.8991275280132,None,,,,,,,,,,,,,,,,None,None,None,,None,None,538.7178688929998,None,3,1,0.9539163919980638,538.7178688929998,None,539.6662264142215,None,None,None,None,,2,001,2023_Jan_18_1003,searchDisc5,2021.2.3,59.9996096398467,
images/exp2b_trial_140_colour3_distractors9_r.png,r,3,3,9,0,,,,,0,208,208,208,,,,,,,,,,,,,,,,,,,,,,,,,,,,,,,,,,,,,,,,,,,539.6820308900205,None,2,0.20404996100114658,539.6820308900205,None,,,,,,,,,,,,,,,,None,None,None,,None,None,539.934571698017,None,3,1,0.952640335977776,539.934571698017,None,540.8827500082116,None,None,None,None,,2,001,2023_Jan_18_1003,searchDisc5,2021.2.3,59.9996096398467,
images/exp2a_trial_168_colour2_distractors19_r.png,r,3,2,19,0,,,,,0,209,209,209,,,,,,,,,,,,,,,,,,,,,,,,,,,,,,,,,,,,,,,,,,,540.8990336650168,None,2,0.18780886998865753,540.8990336650168,None,,,,,,,,,,,,,,,,None,None,None,,None,None,541.1371241419984,None,3,1,0.9293409579840954,541.1371241419984,None,542.0661898692051,None,None,None,None,,2,001,2023_Jan_18_1003,searchDisc5,2021.2.3,59.9996096398467,
images/exp2b_trial_224_colour1_distractors1_r.png,r,3,1,1,0,,,,,0,210,210,210,,,,,,,,,,,,,,,,,,,,,,,,,,,,,,,,,,,,,,,,,,,542.0844743690104,None,2,0.1543634400004521,542.0844743690104,None,,,,,,,,,,,,,,,,None,None,None,,None,None,542.284350499016,None,3,1,0.9713634869840462,542.284350499016,None,543.2494609392161,None,None,None,None,,2,001,2023_Jan_18_1003,searchDisc5,2021.2.3,59.9996096398467,
images/exp1a_trial_218_colour3_distractors4_l.png,l,1,3,4,0,,,,,0,211,211,211,,,,,,,,,,,,,,,,,,,,,,,,,,,,,,,,,,,,,,,,,,,543.2660001940094,None,2,0.20455714198760688,543.2660001940094,None,,,,,,,,,,,,,,,,None,None,None,,None,None,543.5186581710004,None,1,1,1.1207214150053915,543.5186581710004,None,544.6330152872106,None,None,None,None,,2,001,2023_Jan_18_1003,searchDisc5,2021.2.3,59.9996096398467,
images/exp2a_trial_157_colour3_distractors31_l.png,l,1,3,31,0,,,,,0,212,212,212,,,,,,,,,,,,,,,,,,,,,,,,,,,,,,,,,,,,,,,,,,,544.6494777360058,None,2,0.23983132702414878,544.6494777360058,None,,,,,,,,,,,,,,,,None,None,None,,None,None,544.9348519910127,None,1,1,0.9492933170113247,544.9348519910127,None,545.8829086622136,None,None,None,None,,2,001,2023_Jan_18_1003,searchDisc5,2021.2.3,59.9996096398467,
images/exp2a_trial_126_colour0_distractors0_r.png,r,3,0,0,0,,,,,0,213,213,213,,,,,,,,,,,,,,,,,,,,,,,,,,,,,,,,,,,,,,,,,,,545.8993413500139,None,2,0.2734067010169383,545.8993413500139,None,,,,,,,,,,,,,,,,None,None,None,,None,None,546.2163634910248,None,3,1,0.7025139489851426,546.2163634910248,None,546.9162660311995,None,None,None,None,,2,001,2023_Jan_18_1003,searchDisc5,2021.2.3,59.9996096398467,
images/exp2a_trial_141_colour3_distractors19_r.png,r,3,3,19,0,,,,,0,214,214,214,,,,,,,,,,,,,,,,,,,,,,,,,,,,,,,,,,,,,,,,,,,546.9349613260129,None,2,0.22149659399292432,546.9349613260129,None,,,,,,,,,,,,,,,,None,None,None,,None,None,547.1998192180181,None,3,1,0.8185053409833927,547.1998192180181,None,548.0162563682097,None,None,None,None,,2,001,2023_Jan_18_1003,searchDisc5,2021.2.3,59.9996096398467,
images/exp1a_trial_299_colour3_distractors4_r.png,r,3,3,4,0,,,,,0,215,215,215,,,,,,,,,,,,,,,,,,,,,,,,,,,,,,,,,,,,,,,,,,,548.0330224370118,None,2,0.2416738910251297,548.0330224370118,None,,,,,,,,,,,,,,,,None,None,None,,None,None,548.3166255260003,None,3,1,0.6165299499989487,548.3166255260003,None,548.933003895203,None,None,None,None,,2,001,2023_Jan_18_1003,searchDisc5,2021.2.3,59.9996096398467,
images/exp2b_trial_260_colour1_distractors31_r.png,r,3,1,31,0,,,,,0,216,216,216,,,,,,,,,,,,,,,,,,,,,,,,,,,,,,,,,,,,,,,,,,,548.9515002570115,None,2,0.18925292399944738,548.9515002570115,None,,,,,,,,,,,,,,,,None,None,None,,None,None,549.1853251800057,None,3,1,0.8687621599819977,549.1853251800057,None,550.0498130862106,None,None,None,None,,2,001,2023_Jan_18_1003,searchDisc5,2021.2.3,59.9996096398467,
images/exp2b_trial_104_colour2_distractors19_r.png,r,3,2,19,0,,,,,0,217,217,217,,,,,,,,,,,,,,,,,,,,,,,,,,,,,,,,,,,,,,,,,,,550.0663766010257,None,2,0.20230497801094316,550.0663766010257,None,,,,,,,,,,,,,,,,None,None,None,,None,None,550.3185924970021,None,3,1,1.2189657889830414,550.3185924970021,None,551.5330414302152,None,None,None,None,,2,001,2023_Jan_18_1003,searchDisc5,2021.2.3,59.9996096398467,
images/exp1a_trial_292_colour1_distractors31_r.png,r,3,1,31,0,,,,,0,218,218,218,,,,,,,,,,,,,,,,,,,,,,,,,,,,,,,,,,,,,,,,,,,551.5493505570048,None,2,0.45663115999195725,551.5493505570048,None,,,,,,,,,,,,,,,,None,None,None,,None,None,552.0533979730099,None,3,1,2.729988775012316,552.0533979730099,None,554.7831692152104,None,None,None,None,,2,001,2023_Jan_18_1003,searchDisc5,2021.2.3,59.9996096398467,
images/exp2b_trial_214_colour2_distractors9_l.png,l,1,2,9,0,,,,,0,219,219,219,,,,,,,,,,,,,,,,,,,,,,,,,,,,,,,,,,,,,,,,,,,554.799876087025,None,2,0.1375830860051792,554.799876087025,None,,,,,,,,,,,,,,,,None,None,None,,None,None,554.9834312340245,None,1,1,0.7192367070238106,554.9834312340245,None,555.6994012862124,None,None,None,None,,2,001,2023_Jan_18_1003,searchDisc5,2021.2.3,59.9996096398467,
images/exp2a_trial_234_colour3_distractors1_r.png,r,3,3,1,0,,,,,0,220,220,220,,,,,,,,,,,,,,,,,,,,,,,,,,,,,,,,,,,,,,,,,,,555.716354957025,None,2,0.2404953280056361,555.716354957025,None,,,,,,,,,,,,,,,,None,None,None,,None,None,556.0016166160058,None,3,1,0.5860446669976227,556.0016166160058,None,556.5832209092187,None,None,None,None,,2,001,2023_Jan_18_1003,searchDisc5,2021.2.3,59.9996096398467,
images/exp2b_trial_261_colour2_distractors1_r.png,r,3,2,1,0,,,,,0,221,221,221,,,,,,,,,,,,,,,,,,,,,,,,,,,,,,,,,,,,,,,,,,,556.5996576739999,None,2,0.20604509001714177,556.5996576739999,None,,,,,,,,,,,,,,,,None,None,None,,None,None,556.8519254930143,None,3,1,0.636319066019496,556.8519254930143,None,557.4831607222004,None,None,None,None,,2,001,2023_Jan_18_1003,searchDisc5,2021.2.3,59.9996096398467,
images/exp2c_trial_245_colour2_distractors4_l.png,l,1,2,4,0,,,,,0,222,222,222,,,,,,,,,,,,,,,,,,,,,,,,,,,,,,,,,,,,,,,,,,,557.4998941970116,None,2,0.20461603999137878,557.4998941970116,None,,,,,,,,,,,,,,,,None,None,None,,None,None,557.7517712039989,None,1,1,0.6223088899860159,557.7517712039989,None,558.3666923772107,None,None,None,None,,2,001,2023_Jan_18_1003,searchDisc5,2021.2.3,59.9996096398467,
images/exp2c_trial_290_colour1_distractors9_r.png,r,3,1,9,0,,,,,0,223,223,223,,,,,,,,,,,,,,,,,,,,,,,,,,,,,,,,,,,,,,,,,,,558.382411989005,None,2,0.23844741898938082,558.382411989005,None,,,,,,,,,,,,,,,,None,None,None,,None,None,558.6681330970023,None,3,1,0.602661581011489,558.6681330970023,None,559.2666964132077,None,None,None,None,,2,001,2023_Jan_18_1003,searchDisc5,2021.2.3,59.9996096398467,
images/exp2a_trial_258_colour1_distractors9_r.png,r,3,1,9,0,,,,,0,224,224,224,,,,,,,,,,,,,,,,,,,,,,,,,,,,,,,,,,,,,,,,,,,559.2852237430052,None,2,0.23675681199529208,559.2852237430052,None,,,,,,,,,,,,,,,,None,None,None,,None,None,559.5667437040247,None,3,1,0.5859734630212188,559.5667437040247,None,560.1495072071993,None,None,None,None,,2,001,2023_Jan_18_1003,searchDisc5,2021.2.3,59.9996096398467,
images/exp2c_trial_147_colour1_distractors31_l.png,l,1,1,31,0,,,,,0,225,225,225,,,,,,,,,,,,,,,,,,,,,,,,,,,,,,,,,,,,,,,,,,,560.1679607430124,None,2,0.20511460001580417,560.1679607430124,None,,,,,,,,,,,,,,,,None,None,None,,None,None,560.4169239100011,None,1,1,0.549702777992934,560.4169239100011,None,560.9667972831958,None,None,None,None,,2,001,2023_Jan_18_1003,searchDisc5,2021.2.3,59.9996096398467,
images/exp2c_trial_108_colour3_distractors9_r.png,r,3,3,9,0,,,,,0,226,226,226,,,,,,,,,,,,,,,,,,,,,,,,,,,,,,,,,,,,,,,,,,,560.9828148810193,None,2,0.23890821199165657,560.9828148810193,None,,,,,,,,,,,,,,,,None,None,None,,None,None,561.2683088930207,None,3,1,0.867090954008745,561.2683088930207,None,562.1332899142144,None,None,None,None,,2,001,2023_Jan_18_1003,searchDisc5,2021.2.3,59.9996096398467,
