ImageFile,targ_side,correctAnswer,colour,distNo,targetType,trials_2.thisRepN,trials_2.thisTrialN,trials_2.thisN,trials_2.thisIndex,trials.thisRepN,trials.thisTrialN,trials.thisN,trials.thisIndex,text_6.started,text_6.stopped,buttonBox.keys,buttonBox.rt,buttonBox.started,buttonBox.stopped,text_7.started,text_7.stopped,buttonBox_3.keys,buttonBox_3.rt,buttonBox_3.started,buttonBox_3.stopped,text_8.started,text_8.stopped,buttonBox_4.keys,buttonBox_4.rt,buttonBox_4.started,buttonBox_4.stopped,text_9.started,text_9.stopped,buttonBox_5.keys,buttonBox_5.rt,buttonBox_5.started,buttonBox_5.stopped,text_2.started,text_2.stopped,buttonBox_6.keys,buttonBox_6.rt,buttonBox_6.started,buttonBox_6.stopped,text_5.started,text_5.stopped,buttonBox_7.keys,buttonBox_7.rt,image_2.started,image_2.stopped,image_3.started,image_3.stopped,buttonBox_8.keys,buttonBox_8.rt,buttonBox_8.started,buttonBox_8.stopped,polygon.started,polygon.stopped,buttonBox_9.keys,buttonBox_9.rt,buttonBox_9.started,buttonBox_9.stopped,image.started,image.stopped,buttonBox_10.keys,buttonBox_10.corr,buttonBox_10.rt,buttonBox_10.started,buttonBox_10.stopped,text_4.started,text_4.stopped,text.started,text.stopped,buttonBox_11.keys,buttonBox_11.rt,buttonBox_11.started,buttonBox_11.stopped,targetTypeInstruction.started,targetTypeInstruction.stopped,buttonBox_2.keys,buttonBox_2.rt,buttonBox_2.started,buttonBox_2.stopped,dispStimuli.started,dispStimuli.stopped,buttonBox_12.keys,buttonBox_12.corr,buttonBox_12.rt,buttonBox_12.started,buttonBox_12.stopped,breakMessage.started,breakMessage.stopped,buttonBox_13.keys,buttonBox_13.started,buttonBox_13.stopped,buttonBox_13.rt,participant,session,date,expName,psychopyVersion,frameRate,
,,,,,,,,,,,,,,38.42676050501177,None,2,10.253445465990808,38.42676050501177,None,,,,,,,,,,,,,,,,,,,,,,,,,,,,,,,,,,,,,,,,,,,,,,,,,,,,,,,,,,,,,,,,,,,,,,,,,,,,,30,001,2023_Jan_24_1321,searchDisc5,2021.2.3,60.05429772721923,
,,,,,,,,,,,,,,,,,,,,48.674715033965185,None,2,23.916767537011765,48.674715033965185,None,,,,,,,,,,,,,,,,,,,,,,,,,,,,,,,,,,,,,,,,,,,,,,,,,,,,,,,,,,,,,,,,,,,,,,,30,001,2023_Jan_24_1321,searchDisc5,2021.2.3,60.05429772721923,
,,,,,,,,,,,,,,,,,,,,,,,,,,72.59358643199084,None,2,3.6814800560241565,72.59358643199084,None,,,,,,,,,,,,,,,,,,,,,,,,,,,,,,,,,,,,,,,,,,,,,,,,,,,,,,,,,,,,,,,,,30,001,2023_Jan_24_1321,searchDisc5,2021.2.3,60.05429772721923,
,,,,,,,,,,,,,,,,,,,,,,,,,,,,,,,,76.27732005401049,None,2,4.031211093009915,76.27732005401049,None,,,,,,,,,,,,,,,,,,,,,,,,,,,,,,,,,,,,,,,,,,,,,,,,,,,,,,,,,,,30,001,2023_Jan_24_1321,searchDisc5,2021.2.3,60.05429772721923,
,,,,,,,,,,,,,,,,,,,,,,,,,,,,,,,,,,,,,,80.31102492997888,None,2,3.2668319779913872,81.29434849100653,None,,,,,,,,,,,,,,,,,,,,,,,,,,,,,,,,,,,,,,,,,,,,,,,,,,,,,30,001,2023_Jan_24_1321,searchDisc5,2021.2.3,60.05429772721923,
,,,,,,,,,,,,,,,,,,,,,,,,,,,,,,,,,,,,,,,,,,,,84.55881306499941,None,2,11.248303281026892,,,,,,,,,,,,,,,,,,,,,,,,,,,,,,,,,,,,,,,,,,,,,,,,,30,001,2023_Jan_24_1321,searchDisc5,2021.2.3,60.05429772721923,
,,,,,,,,,,,,,,,,,,,,,,,,,,,,,,,,,,,,,,,,,,,,,,,,98.80903323896928,None,98.80903323896928,None,2,4.897479314007796,98.80903323896928,None,,,,,,,,,,,,,,,,,,,,,,,,,,,,,,,,,,,,,,,,,30,001,2023_Jan_24_1321,searchDisc5,2021.2.3,60.05429772721923,
Practice arrays/exp1a_trial_12_colour3_distractors9_r.png,r,3,,,,0,0,0,5,,,,,,,,,,,,,,,,,,,,,,,,,,,,,,,,,,,,,,,,,,,,,,,103.72569223900791,None,2,19.172195220948197,103.72569223900791,None,122.96209354099119,None,3,1,2.3042622639914043,122.96209354099119,None,125.25974883598974,None,,,,,,,,,,,,,,,,,,,,,,,,,,30,001,2023_Jan_24_1321,searchDisc5,2021.2.3,60.05429772721923,
Practice arrays/exp1a_trial_25_colour3_distractors1_l.png,l,1,,,,0,1,1,11,,,,,,,,,,,,,,,,,,,,,,,,,,,,,,,,,,,,,,,,,,,,,,,127.2618965790025,None,2,1.3301916829659604,127.2618965790025,None,128.64390234299935,None,1,1,1.8740295349853113,128.64390234299935,None,130.51008883997565,None,,,,,,,,,,,,,,,,,,,,,,,,,,30,001,2023_Jan_24_1321,searchDisc5,2021.2.3,60.05429772721923,
Practice arrays/exp1a_trial_7_colour2_distractors9_r.png,r,3,,,,0,2,2,2,,,,,,,,,,,,,,,,,,,,,,,,,,,,,,,,,,,,,,,,,,,,,,,132.5121808060212,None,2,0.7492509229923598,132.5121808060212,None,133.310527101974,None,3,1,0.9856448869686574,133.310527101974,None,134.29346468299627,None,,,,,,,,,,,,,,,,,,,,,,,,,,30,001,2023_Jan_24_1321,searchDisc5,2021.2.3,60.05429772721923,
Practice arrays/exp1a_trial_16_colour1_distractors4_l.png,l,1,,,,0,3,3,13,,,,,,,,,,,,,,,,,,,,,,,,,,,,,,,,,,,,,,,,,,,,,,,136.2957152709714,None,2,0.4638626839732751,136.2957152709714,None,136.8128546020016,None,1,1,0.8556365139666013,136.8128546020016,None,137.66026450699428,None,,,,,,,,,,,,,,,,,,,,,,,,,,30,001,2023_Jan_24_1321,searchDisc5,2021.2.3,60.05429772721923,
Practice arrays/exp1a_trial_17_colour1_distractors9_l.png,l,1,,,,0,4,4,7,,,,,,,,,,,,,,,,,,,,,,,,,,,,,,,,,,,,,,,,,,,,,,,139.6623805059935,None,2,0.3666905509890057,139.6623805059935,None,140.07926606299588,None,1,1,0.731254042009823,140.07926606299588,None,140.81046956998762,None,,,,,,,,,,,,,,,,,,,,,,,,,,30,001,2023_Jan_24_1321,searchDisc5,2021.2.3,60.05429772721923,
Practice arrays/exp1a_trial_23_colour2_distractors19_l.png,l,1,,,,0,5,5,10,,,,,,,,,,,,,,,,,,,,,,,,,,,,,,,,,,,,,,,,,,,,,,,142.81237273296574,None,2,0.3656688879709691,142.81237273296574,None,143.23372617800487,None,1,1,1.0434017039951868,143.23372617800487,None,144.2771914479672,None,,,,,,,,,,,,,,,,,,,,,,,,,,30,001,2023_Jan_24_1321,searchDisc5,2021.2.3,60.05429772721923,
Practice arrays/exp1a_trial_30_colour0_distractors0_r.png,r,3,,,,0,6,6,14,,,,,,,,,,,,,,,,,,,,,,,,,,,,,,,,,,,,,,,,,,,,,,,146.2789833159768,None,2,0.5326790580293164,146.2789833159768,None,146.86043628898915,None,3,1,0.8513386829872616,146.86043628898915,None,147.71061150700552,None,,,,,,,,,,,,,,,,,,,,,,,,,,30,001,2023_Jan_24_1321,searchDisc5,2021.2.3,60.05429772721923,
Practice arrays/exp1a_trial_31_colour0_distractors0_l.png,l,1,,,,0,7,7,15,,,,,,,,,,,,,,,,,,,,,,,,,,,,,,,,,,,,,,,,,,,,,,,149.71271751797758,None,2,2.997417951002717,149.71271751797758,None,152.7631632980192,None,1,1,0.6872558559989557,152.7631632980192,None,153.44396492897067,None,,,,,,,,,,,,,,,,,,,,,,,,,,30,001,2023_Jan_24_1321,searchDisc5,2021.2.3,60.05429772721923,
Practice arrays/exp1a_trial_1_colour1_distractors4_r.png,r,3,,,,0,8,8,1,,,,,,,,,,,,,,,,,,,,,,,,,,,,,,,,,,,,,,,,,,,,,,,155.44578512298176,None,2,0.6633843290037476,155.44578512298176,None,156.16269689198816,None,3,1,0.921749175991863,156.16269689198816,None,157.07755569799338,None,,,,,,,,,,,,,,,,,,,,,,,,,,30,001,2023_Jan_24_1321,searchDisc5,2021.2.3,60.05429772721923,
Practice arrays/exp1a_trial_21_colour2_distractors4_l.png,l,1,,,,0,9,9,9,,,,,,,,,,,,,,,,,,,,,,,,,,,,,,,,,,,,,,,,,,,,,,,159.07950730301673,None,2,0.6478757860022597,159.07950730301673,None,159.77766383299604,None,1,1,0.7741188959917054,159.77766383299604,None,160.54439904697938,None,,,,,,,,,,,,,,,,,,,,,,,,,,30,001,2023_Jan_24_1321,searchDisc5,2021.2.3,60.05429772721923,
Practice arrays/exp1a_trial_10_colour3_distractors1_r.png,r,3,,,,0,10,10,4,,,,,,,,,,,,,,,,,,,,,,,,,,,,,,,,,,,,,,,,,,,,,,,162.54625224496704,None,2,0.5800331190112047,162.54625224496704,None,163.1779780939687,None,3,1,0.924456394976005,163.1779780939687,None,164.09444486402208,None,,,,,,,,,,,,,,,,,,,,,,,,,,30,001,2023_Jan_24_1321,searchDisc5,2021.2.3,60.05429772721923,
Practice arrays/exp1a_trial_8_colour2_distractors19_r.png,r,3,,,,0,11,11,3,,,,,,,,,,,,,,,,,,,,,,,,,,,,,,,,,,,,,,,,,,,,,,,166.09600401401985,None,2,0.5661940400023013,166.09600401401985,None,166.71321707899915,None,3,1,0.9325735419988632,166.71321707899915,None,167.64450825500535,None,,,,,,,,,,,,,,,,,,,,,,,,,,30,001,2023_Jan_24_1321,searchDisc5,2021.2.3,60.05429772721923,
Practice arrays/exp1a_trial_18_colour1_distractors19_l.png,l,1,,,,0,12,12,8,,,,,,,,,,,,,,,,,,,,,,,,,,,,,,,,,,,,,,,,,,,,,,,169.646181832999,None,2,0.3661725510028191,169.646181832999,None,170.0612141409656,None,1,1,1.0832550370250829,170.0612141409656,None,171.14455360797,None,,,,,,,,,,,,,,,,,,,,,,,,,,30,001,2023_Jan_24_1321,searchDisc5,2021.2.3,60.05429772721923,
Practice arrays/exp1a_trial_27_colour3_distractors9_l.png,l,1,,,,0,13,13,12,,,,,,,,,,,,,,,,,,,,,,,,,,,,,,,,,,,,,,,,,,,,,,,173.14652856299654,None,2,0.6811557449982502,173.14652856299654,None,173.8806127079879,None,1,1,0.7713851139997132,173.8806127079879,None,174.64455527201062,None,,,,,,,,,,,,,,,,,,,,,,,,,,30,001,2023_Jan_24_1321,searchDisc5,2021.2.3,60.05429772721923,
Practice arrays/exp1a_trial_0_colour1_distractors1_r.png,r,3,,,,0,14,14,0,,,,,,,,,,,,,,,,,,,,,,,,,,,,,,,,,,,,,,,,,,,,,,,176.646827501012,None,2,0.34925447503337637,176.646827501012,None,177.04642928700196,None,3,1,0.8882114579901099,177.04642928700196,None,177.92756559798727,None,,,,,,,,,,,,,,,,,,,,,,,,,,30,001,2023_Jan_24_1321,searchDisc5,2021.2.3,60.05429772721923,
Practice arrays/exp1a_trial_14_colour3_distractors31_r.png,r,3,,,,0,15,15,6,,,,,,,,,,,,,,,,,,,,,,,,,,,,,,,,,,,,,,,,,,,,,,,179.9298018880072,None,2,0.5490355009678751,179.9298018880072,None,180.5283489699941,None,3,1,0.6799985819961876,180.5283489699941,None,181.21151969296625,None,,,,,,,,,,,,,,,,,,,,,,,,,,30,001,2023_Jan_24_1321,searchDisc5,2021.2.3,60.05429772721923,
,,,,,,,,,,,,,,,,,,,,,,,,,,,,,,,,,,,,,,,,,,,,,,,,,,,,,,,,,,,,,,,,,,,,,,,183.29690465400927,None,2,8.952278404030949,184.28020117100095,None,,,,,,,,,,,,,,,,,,,,30,001,2023_Jan_24_1321,searchDisc5,2021.2.3,60.05429772721923,
images/exp2c_trial_183_colour2_distractors19_l.png,l,1,2,19,0,,,,,0,0,0,0,,,,,,,,,,,,,,,,,,,,,,,,,,,,,,,,,,,,,,,,,,,198.3451084800181,None,2,2.395525533007458,198.3451084800181,None,,,,,,,,,,,,,,,,193.83068516198546,None,2,2.5314641739823855,195.81370940996567,None,200.79495749500347,None,1,1,0.9826567560085095,200.79495749500347,None,201.79526336377023,None,None,None,None,,30,001,2023_Jan_24_1321,searchDisc5,2021.2.3,60.05429772721923,
images/exp2a_trial_292_colour1_distractors31_r.png,r,3,1,31,0,,,,,0,1,1,1,,,,,,,,,,,,,,,,,,,,,,,,,,,,,,,,,,,,,,,,,,,201.81182152300607,None,2,0.9884471570258029,201.81182152300607,None,,,,,,,,,,,,,,,,None,None,None,,None,None,202.84545778797474,None,3,1,0.9512768730055541,202.84545778797474,None,203.79537607689855,None,None,None,None,,30,001,2023_Jan_24_1321,searchDisc5,2021.2.3,60.05429772721923,
images/exp1a_trial_240_colour1_distractors4_l.png,l,1,1,4,0,,,,,0,2,2,2,,,,,,,,,,,,,,,,,,,,,,,,,,,,,,,,,,,,,,,,,,,203.81423359998735,None,2,0.8049043330247514,203.81423359998735,None,,,,,,,,,,,,,,,,None,None,None,,None,None,204.66196700301953,None,1,1,0.9376000789925456,204.66196700301953,None,205.59551000788343,None,None,None,None,,30,001,2023_Jan_24_1321,searchDisc5,2021.2.3,60.05429772721923,
images/exp2b_trial_120_colour2_distractors31_l.png,l,1,2,31,0,,,,,0,3,3,3,,,,,,,,,,,,,,,,,,,,,,,,,,,,,,,,,,,,,,,,,,,205.61213140300242,None,2,0.9868582880008034,205.61213140300242,None,,,,,,,,,,,,,,,,None,None,None,,None,None,206.6454746159725,None,1,1,0.802944712981116,206.6454746159725,None,207.44537647087128,None,None,None,None,,30,001,2023_Jan_24_1321,searchDisc5,2021.2.3,60.05429772721923,
images/exp2a_trial_267_colour3_distractors4_r.png,r,3,3,4,0,,,,,0,4,4,4,,,,,,,,,,,,,,,,,,,,,,,,,,,,,,,,,,,,,,,,,,,207.46344590000808,None,2,0.6203344509704039,207.46344590000808,None,,,,,,,,,,,,,,,,None,None,None,,None,None,208.12892043800093,None,3,1,0.7557858350337483,208.12892043800093,None,208.8786627068883,None,None,None,None,,30,001,2023_Jan_24_1321,searchDisc5,2021.2.3,60.05429772721923,
images/exp2b_trial_53_colour2_distractors4_l.png,l,1,2,4,0,,,,,0,5,5,5,,,,,,,,,,,,,,,,,,,,,,,,,,,,,,,,,,,,,,,,,,,208.8952860069694,None,2,0.4728745709871873,208.8952860069694,None,,,,,,,,,,,,,,,,None,None,None,,None,None,209.41405844700057,None,1,1,0.9693981680320576,209.41405844700057,None,210.37876629190288,None,None,None,None,,30,001,2023_Jan_24_1321,searchDisc5,2021.2.3,60.05429772721923,
images/exp2c_trial_169_colour2_distractors31_r.png,r,3,2,31,0,,,,,0,6,6,6,,,,,,,,,,,,,,,,,,,,,,,,,,,,,,,,,,,,,,,,,,,210.39483659499092,None,2,0.887891526974272,210.39483659499092,None,,,,,,,,,,,,,,,,None,None,None,,None,None,211.3292349309777,None,3,1,0.9706772839999758,211.3292349309777,None,212.29559114588193,None,None,None,None,,30,001,2023_Jan_24_1321,searchDisc5,2021.2.3,60.05429772721923,
images/exp1a_trial_291_colour1_distractors19_r.png,r,3,1,19,0,,,,,0,7,7,7,,,,,,,,,,,,,,,,,,,,,,,,,,,,,,,,,,,,,,,,,,,212.31205025396775,None,2,0.754393461975269,212.31205025396775,None,,,,,,,,,,,,,,,,None,None,None,,None,None,213.1145941200084,None,3,1,0.8854854059754871,213.1145941200084,None,213.99556498888415,None,None,None,None,,30,001,2023_Jan_24_1321,searchDisc5,2021.2.3,60.05429772721923,
images/exp1a_trial_69_colour2_distractors1_r.png,r,3,2,1,0,,,,,0,8,8,8,,,,,,,,,,,,,,,,,,,,,,,,,,,,,,,,,,,,,,,,,,,214.01167232799344,None,2,0.623440572002437,214.01167232799344,None,,,,,,,,,,,,,,,,None,None,None,,None,None,214.6791496539954,None,3,1,0.8378938119858503,214.6791496539954,None,215.51232144191164,None,None,None,None,,30,001,2023_Jan_24_1321,searchDisc5,2021.2.3,60.05429772721923,
images/exp1a_trial_141_colour3_distractors19_r.png,r,3,3,19,0,,,,,0,9,9,9,,,,,,,,,,,,,,,,,,,,,,,,,,,,,,,,,,,,,,,,,,,215.52837267296854,None,2,0.6713362489826977,215.52837267296854,None,,,,,,,,,,,,,,,,None,None,None,,None,None,216.24580773100024,None,3,1,0.8692779559642076,216.24580773100024,None,217.11240874191282,None,None,None,None,,30,001,2023_Jan_24_1321,searchDisc5,2021.2.3,60.05429772721923,
images/exp2b_trial_46_colour3_distractors31_r.png,r,3,3,31,0,,,,,0,10,10,10,,,,,,,,,,,,,,,,,,,,,,,,,,,,,,,,,,,,,,,,,,,217.12839770299615,None,2,0.6706163110211492,217.12839770299615,None,,,,,,,,,,,,,,,,None,None,None,,None,None,217.84518360998482,None,3,1,0.8037214359501377,217.84518360998482,None,218.6455854728818,None,None,None,None,,30,001,2023_Jan_24_1321,searchDisc5,2021.2.3,60.05429772721923,
images/exp1a_trial_104_colour2_distractors19_r.png,r,3,2,19,0,,,,,0,11,11,11,,,,,,,,,,,,,,,,,,,,,,,,,,,,,,,,,,,,,,,,,,,218.66220926697133,None,2,0.7380727179697715,218.66220926697133,None,,,,,,,,,,,,,,,,None,None,None,,None,None,219.4478219099692,None,3,1,0.7688722920138389,219.4478219099692,None,220.2124345498858,None,None,None,None,,30,001,2023_Jan_24_1321,searchDisc5,2021.2.3,60.05429772721923,
images/exp1a_trial_110_colour3_distractors31_r.png,r,3,3,31,0,,,,,0,12,12,12,,,,,,,,,,,,,,,,,,,,,,,,,,,,,,,,,,,,,,,,,,,220.23071534000337,None,2,0.8377170370076783,220.23071534000337,None,,,,,,,,,,,,,,,,None,None,None,,None,None,221.11447565199342,None,3,1,0.7627654960379004,221.11447565199342,None,221.87918188587065,None,None,None,None,,30,001,2023_Jan_24_1321,searchDisc5,2021.2.3,60.05429772721923,
images/exp2c_trial_235_colour3_distractors4_r.png,r,3,3,4,0,,,,,0,13,13,13,,,,,,,,,,,,,,,,,,,,,,,,,,,,,,,,,,,,,,,,,,,221.8952871420188,None,2,1.872917880944442,221.8952871420188,None,,,,,,,,,,,,,,,,None,None,None,,None,None,223.81475900596706,None,3,1,0.7363201170228422,223.81475900596706,None,224.54576005589917,None,None,None,None,,30,001,2023_Jan_24_1321,searchDisc5,2021.2.3,60.05429772721923,
images/exp1a_trial_78_colour3_distractors31_r.png,r,3,3,31,0,,,,,0,14,14,14,,,,,,,,,,,,,,,,,,,,,,,,,,,,,,,,,,,,,,,,,,,224.56227863801178,None,2,0.5897775859921239,224.56227863801178,None,,,,,,,,,,,,,,,,None,None,None,,None,None,225.19826946000103,None,3,1,0.8138178130029701,225.19826946000103,None,226.01172351192218,None,None,None,None,,30,001,2023_Jan_24_1321,searchDisc5,2021.2.3,60.05429772721923,
images/exp2b_trial_290_colour1_distractors9_r.png,r,3,1,9,0,,,,,0,15,15,15,,,,,,,,,,,,,,,,,,,,,,,,,,,,,,,,,,,,,,,,,,,226.02889383997535,None,2,0.6553711660089903,226.02889383997535,None,,,,,,,,,,,,,,,,None,None,None,,None,None,226.7294267899706,None,3,1,0.9217177699902095,226.7294267899706,None,227.64584570390872,None,None,None,None,,30,001,2023_Jan_24_1321,searchDisc5,2021.2.3,60.05429772721923,
images/exp2b_trial_179_colour1_distractors31_l.png,l,1,1,31,0,,,,,0,16,16,16,,,,,,,,,,,,,,,,,,,,,,,,,,,,,,,,,,,,,,,,,,,227.66253815597156,None,2,0.9566181119880639,227.66253815597156,None,,,,,,,,,,,,,,,,None,None,None,,None,None,228.66424553497927,None,1,1,1.1484521050006151,228.66424553497927,None,229.81254409190734,None,None,None,None,,30,001,2023_Jan_24_1321,searchDisc5,2021.2.3,60.05429772721923,
images/exp2b_trial_203_colour3_distractors4_r.png,r,3,3,4,0,,,,,0,17,17,17,,,,,,,,,,,,,,,,,,,,,,,,,,,,,,,,,,,,,,,,,,,229.82886905001942,None,2,1.3536193090258166,229.82886905001942,None,,,,,,,,,,,,,,,,None,None,None,,None,None,231.2289333330118,None,3,1,0.8223982150084339,231.2289333330118,None,232.046135181922,None,None,None,None,,30,001,2023_Jan_24_1321,searchDisc5,2021.2.3,60.05429772721923,
images/exp2b_trial_264_colour2_distractors19_r.png,r,3,2,19,0,,,,,0,18,18,18,,,,,,,,,,,,,,,,,,,,,,,,,,,,,,,,,,,,,,,,,,,232.06266931898426,None,2,0.823022038966883,232.06266931898426,None,,,,,,,,,,,,,,,,None,None,None,,None,None,232.92949352297,None,3,1,1.2043559809681028,232.92949352297,None,234.12949802087388,None,None,None,None,,30,001,2023_Jan_24_1321,searchDisc5,2021.2.3,60.05429772721923,
images/exp2b_trial_228_colour1_distractors31_r.png,r,3,1,31,0,,,,,0,19,19,19,,,,,,,,,,,,,,,,,,,,,,,,,,,,,,,,,,,,,,,,,,,234.14843571401434,None,2,0.6187860670033842,234.14843571401434,None,,,,,,,,,,,,,,,,None,None,None,,None,None,234.81299476500135,None,3,1,0.6370509029948153,234.81299476500135,None,235.4463400538778,None,None,None,None,,30,001,2023_Jan_24_1321,searchDisc5,2021.2.3,60.05429772721923,
images/exp2c_trial_275_colour1_distractors31_l.png,l,1,1,31,0,,,,,0,20,20,20,,,,,,,,,,,,,,,,,,,,,,,,,,,,,,,,,,,,,,,,,,,235.46483882697066,None,2,0.5037353829829954,235.46483882697066,None,,,,,,,,,,,,,,,,None,None,None,,None,None,236.01518071896862,None,1,1,0.720810177968815,236.01518071896862,None,236.72946723388742,None,None,None,None,,30,001,2023_Jan_24_1321,searchDisc5,2021.2.3,60.05429772721923,
images/exp1a_trial_157_colour3_distractors31_l.png,l,1,3,31,0,,,,,0,21,21,21,,,,,,,,,,,,,,,,,,,,,,,,,,,,,,,,,,,,,,,,,,,236.74611372500658,None,2,0.5377190160215832,236.74611372500658,None,,,,,,,,,,,,,,,,None,None,None,,None,None,237.33178578299703,None,1,1,0.7499385369592346,237.33178578299703,None,238.07963222388645,None,None,None,None,,30,001,2023_Jan_24_1321,searchDisc5,2021.2.3,60.05429772721923,
images/exp1a_trial_111_colour1_distractors1_l.png,l,1,1,1,0,,,,,0,22,22,22,,,,,,,,,,,,,,,,,,,,,,,,,,,,,,,,,,,,,,,,,,,238.0956619780045,None,2,0.4078375049866736,238.0956619780045,None,,,,,,,,,,,,,,,,None,None,None,,None,None,238.54810014402028,None,1,1,0.9195113579626195,238.54810014402028,None,239.46313914291096,None,None,None,None,,30,001,2023_Jan_24_1321,searchDisc5,2021.2.3,60.05429772721923,
images/exp2b_trial_79_colour1_distractors1_l.png,l,1,1,1,0,,,,,0,23,23,23,,,,,,,,,,,,,,,,,,,,,,,,,,,,,,,,,,,,,,,,,,,239.47937589499634,None,2,0.3709527309983969,239.47937589499634,None,,,,,,,,,,,,,,,,None,None,None,,None,None,239.89840246597305,None,1,1,0.6896233599982224,239.89840246597305,None,240.57964276087006,None,None,None,None,,30,001,2023_Jan_24_1321,searchDisc5,2021.2.3,60.05429772721923,
images/exp2b_trial_124_colour3_distractors19_l.png,l,1,3,19,0,,,,,0,24,24,24,,,,,,,,,,,,,,,,,,,,,,,,,,,,,,,,,,,,,,,,,,,240.59819946199423,None,2,0.3213140940060839,240.59819946199423,None,,,,,,,,,,,,,,,,None,None,None,,None,None,240.96237940702122,None,1,1,1.0706101319519803,240.96237940702122,None,242.02973475587788,None,None,None,None,,30,001,2023_Jan_24_1321,searchDisc5,2021.2.3,60.05429772721923,
images/exp2a_trial_189_colour3_distractors31_l.png,l,1,3,31,0,,,,,0,25,25,25,,,,,,,,,,,,,,,,,,,,,,,,,,,,,,,,,,,,,,,,,,,242.04589755501365,None,2,0.33770822698716074,242.04589755501365,None,,,,,,,,,,,,,,,,None,None,None,,None,None,242.42990464100149,None,1,1,1.5351612349622883,242.42990464100149,None,243.9623060819111,None,None,None,None,,30,001,2023_Jan_24_1321,searchDisc5,2021.2.3,60.05429772721923,
images/exp2a_trial_136_colour2_distractors19_r.png,r,3,2,19,0,,,,,0,26,26,26,,,,,,,,,,,,,,,,,,,,,,,,,,,,,,,,,,,,,,,,,,,243.9797018049867,None,2,0.3234117209794931,243.9797018049867,None,,,,,,,,,,,,,,,,None,None,None,,None,None,244.34666821098654,None,3,1,0.8416772249620408,244.34666821098654,None,245.19649380592165,None,None,None,None,,30,001,2023_Jan_24_1321,searchDisc5,2021.2.3,60.05429772721923,
images/exp2b_trial_134_colour2_distractors4_r.png,r,3,2,4,0,,,,,0,27,27,27,,,,,,,,,,,,,,,,,,,,,,,,,,,,,,,,,,,,,,,,,,,245.21318732498912,None,2,0.4220502399839461,245.21318732498912,None,,,,,,,,,,,,,,,,None,None,None,,None,None,245.68192893301602,None,3,1,0.6709708829876035,245.68192893301602,None,246.3461793888826,None,None,None,None,,30,001,2023_Jan_24_1321,searchDisc5,2021.2.3,60.05429772721923,
images/exp1a_trial_275_colour1_distractors31_l.png,l,1,1,31,0,,,,,0,28,28,28,,,,,,,,,,,,,,,,,,,,,,,,,,,,,,,,,,,,,,,,,,,246.36223865300417,None,2,0.4210922220372595,246.36223865300417,None,,,,,,,,,,,,,,,,None,None,None,,None,None,246.83401084598154,None,1,1,0.7137795750168152,246.83401084598154,None,247.5459471888724,None,None,None,None,,30,001,2023_Jan_24_1321,searchDisc5,2021.2.3,60.05429772721923,
images/exp2b_trial_229_colour2_distractors1_r.png,r,3,2,1,0,,,,,0,29,29,29,,,,,,,,,,,,,,,,,,,,,,,,,,,,,,,,,,,,,,,,,,,247.56227843201486,None,2,0.5022807460045442,247.56227843201486,None,,,,,,,,,,,,,,,,None,None,None,,None,None,248.1135173359653,None,3,1,0.7057560549583286,248.1135173359653,None,248.81216611487326,None,None,None,None,,30,001,2023_Jan_24_1321,searchDisc5,2021.2.3,60.05429772721923,
images/exp2b_trial_201_colour2_distractors31_r.png,r,3,2,31,0,,,,,0,30,30,30,,,,,,,,,,,,,,,,,,,,,,,,,,,,,,,,,,,,,,,,,,,248.82984217599733,None,2,0.3725898349657655,248.82984217599733,None,,,,,,,,,,,,,,,,None,None,None,,None,None,249.2466285689734,None,3,1,0.6674172389903106,249.2466285689734,None,249.91311781289988,None,None,None,None,,30,001,2023_Jan_24_1321,searchDisc5,2021.2.3,60.05429772721923,
images/exp2c_trial_209_colour1_distractors9_l.png,l,1,1,9,0,,,,,0,31,31,31,,,,,,,,,,,,,,,,,,,,,,,,,,,,,,,,,,,,,,,,,,,249.93127793399617,None,2,0.4542522390256636,249.93127793399617,None,,,,,,,,,,,,,,,,None,None,None,,None,None,250.42983649898088,None,1,1,0.7055342770181596,250.42983649898088,None,251.12934292790015,None,None,None,None,,30,001,2023_Jan_24_1321,searchDisc5,2021.2.3,60.05429772721923,
images/exp1a_trial_80_colour1_distractors4_l.png,l,1,1,4,0,,,,,0,32,32,32,,,,,,,,,,,,,,,,,,,,,,,,,,,,,,,,,,,,,,,,,,,251.1463817040203,None,2,0.3549142440315336,251.1463817040203,None,,,,,,,,,,,,,,,,None,None,None,,None,None,251.5466753069777,None,1,1,0.8556074459920637,251.5466753069777,None,252.39652383089998,None,None,None,None,,30,001,2023_Jan_24_1321,searchDisc5,2021.2.3,60.05429772721923,
images/exp1a_trial_156_colour3_distractors19_l.png,l,1,3,19,0,,,,,0,33,33,33,,,,,,,,,,,,,,,,,,,,,,,,,,,,,,,,,,,,,,,,,,,252.41262223297963,None,2,0.3210942820296623,252.41262223297963,None,,,,,,,,,,,,,,,,None,None,None,,None,None,252.77962316496996,None,1,1,0.7017096260096878,252.77962316496996,None,253.479872629873,None,None,None,None,,30,001,2023_Jan_24_1321,searchDisc5,2021.2.3,60.05429772721923,
images/exp1a_trial_232_colour2_distractors19_r.png,r,3,2,19,0,,,,,0,34,34,34,,,,,,,,,,,,,,,,,,,,,,,,,,,,,,,,,,,,,,,,,,,253.49854181299452,None,2,0.38991513598011807,253.49854181299452,None,,,,,,,,,,,,,,,,None,None,None,,None,None,253.9321433979785,None,3,1,0.7004531279671937,253.9321433979785,None,254.6299321678933,None,None,None,None,,30,001,2023_Jan_24_1321,searchDisc5,2021.2.3,60.05429772721923,
images/exp2a_trial_81_colour1_distractors9_l.png,l,1,1,9,0,,,,,0,35,35,35,,,,,,,,,,,,,,,,,,,,,,,,,,,,,,,,,,,,,,,,,,,254.64655786199728,None,2,0.4209945750189945,254.64655786199728,None,,,,,,,,,,,,,,,,None,None,None,,None,None,255.1154962090077,None,1,1,0.9389654269907624,255.1154962090077,None,256.0467717889231,None,None,None,None,,30,001,2023_Jan_24_1321,searchDisc5,2021.2.3,60.05429772721923,
images/exp1a_trial_31_colour0_distractors0_l.png,l,1,0,0,0,,,,,0,36,36,36,,,,,,,,,,,,,,,,,,,,,,,,,,,,,,,,,,,,,,,,,,,256.06290108099347,None,2,0.35435963998315856,256.06290108099347,None,,,,,,,,,,,,,,,,None,None,None,,None,None,256.46542561100796,None,1,1,0.7571524190134369,256.46542561100796,None,257.21333963588114,None,None,None,None,,30,001,2023_Jan_24_1321,searchDisc5,2021.2.3,60.05429772721923,
images/exp2b_trial_160_colour1_distractors1_r.png,r,3,1,1,0,,,,,0,37,37,37,,,,,,,,,,,,,,,,,,,,,,,,,,,,,,,,,,,,,,,,,,,257.2299647239852,None,2,0.288177362002898,257.2299647239852,None,,,,,,,,,,,,,,,,None,None,None,,None,None,257.56324485799996,None,3,1,0.7064011140028015,257.56324485799996,None,258.2633966028923,None,None,None,None,,30,001,2023_Jan_24_1321,searchDisc5,2021.2.3,60.05429772721923,
images/exp2a_trial_236_colour3_distractors9_r.png,r,3,3,9,0,,,,,0,38,38,38,,,,,,,,,,,,,,,,,,,,,,,,,,,,,,,,,,,,,,,,,,,258.2799117839895,None,2,0.404607049014885,258.2799117839895,None,,,,,,,,,,,,,,,,None,None,None,,None,None,258.73221621802077,None,3,1,0.6716016149730422,258.73221621802077,None,259.39643603191945,None,None,None,None,,30,001,2023_Jan_24_1321,searchDisc5,2021.2.3,60.05429772721923,
images/exp2c_trial_16_colour1_distractors4_l.png,l,1,1,4,0,,,,,0,39,39,39,,,,,,,,,,,,,,,,,,,,,,,,,,,,,,,,,,,,,,,,,,,259.41277552599786,None,2,0.37327036302303895,259.41277552599786,None,,,,,,,,,,,,,,,,None,None,None,,None,None,259.83230670000194,None,1,1,0.7538590930053033,259.83230670000194,None,260.57968495391543,None,None,None,None,,30,001,2023_Jan_24_1321,searchDisc5,2021.2.3,60.05429772721923,
images/exp1a_trial_188_colour3_distractors19_l.png,l,1,3,19,0,,,,,0,40,40,40,,,,,,,,,,,,,,,,,,,,,,,,,,,,,,,,,,,,,,,,,,,260.5970208219951,None,2,0.3231765819946304,260.5970208219951,None,,,,,,,,,,,,,,,,None,None,None,,None,None,260.9635794850183,None,1,1,0.7845667150104418,260.9635794850183,None,261.7467928198865,None,None,None,None,,30,001,2023_Jan_24_1321,searchDisc5,2021.2.3,60.05429772721923,
images/exp2b_trial_85_colour2_distractors4_l.png,l,1,2,4,0,,,,,0,41,41,41,,,,,,,,,,,,,,,,,,,,,,,,,,,,,,,,,,,,,,,,,,,261.7633491489687,None,2,0.3379083629697561,261.7633491489687,None,,,,,,,,,,,,,,,,None,None,None,,None,None,262.146911851014,None,1,1,0.7058404349954799,262.146911851014,None,262.8469535068842,None,None,None,None,,30,001,2023_Jan_24_1321,searchDisc5,2021.2.3,60.05429772721923,
images/exp1a_trial_145_colour1_distractors9_l.png,l,1,1,9,0,,,,,0,42,42,42,,,,,,,,,,,,,,,,,,,,,,,,,,,,,,,,,,,,,,,,,,,262.8633465489838,None,2,0.35540419298922643,262.8633465489838,None,,,,,,,,,,,,,,,,None,None,None,,None,None,263.263603097992,None,1,1,0.7535267579951324,263.263603097992,None,264.01345092891717,None,None,None,None,,30,001,2023_Jan_24_1321,searchDisc5,2021.2.3,60.05429772721923,
images/exp2c_trial_143_colour1_distractors1_l.png,l,1,1,1,0,,,,,0,43,43,43,,,,,,,,,,,,,,,,,,,,,,,,,,,,,,,,,,,,,,,,,,,264.030087378982,None,2,0.3876088559627533,264.030087378982,None,,,,,,,,,,,,,,,,None,None,None,,None,None,264.4659491839702,None,1,1,0.7902536520268768,264.4659491839702,None,265.2468555598869,None,None,None,None,,30,001,2023_Jan_24_1321,searchDisc5,2021.2.3,60.05429772721923,
images/exp1a_trial_54_colour2_distractors9_l.png,l,1,2,9,0,,,,,0,44,44,44,,,,,,,,,,,,,,,,,,,,,,,,,,,,,,,,,,,,,,,,,,,265.2651440849877,None,2,0.37119024101411924,265.2651440849877,None,,,,,,,,,,,,,,,,None,None,None,,None,None,265.6824664809974,None,1,1,0.6707513449946418,265.6824664809974,None,266.3468430828769,None,None,None,None,,30,001,2023_Jan_24_1321,searchDisc5,2021.2.3,60.05429772721923,
images/exp2c_trial_39_colour2_distractors9_r.png,r,3,2,9,0,,,,,0,45,45,45,,,,,,,,,,,,,,,,,,,,,,,,,,,,,,,,,,,,,,,,,,,266.36360893101664,None,2,0.5045255229924805,266.36360893101664,None,,,,,,,,,,,,,,,,None,None,None,,None,None,266.91319329000544,None,3,1,0.8715842069941573,266.91319329000544,None,267.78037766391645,None,None,None,None,,30,001,2023_Jan_24_1321,searchDisc5,2021.2.3,60.05429772721923,
images/exp2c_trial_117_colour2_distractors4_l.png,l,1,2,4,0,,,,,0,46,46,46,,,,,,,,,,,,,,,,,,,,,,,,,,,,,,,,,,,,,,,,,,,267.79692349396646,None,2,0.30439766199560836,267.79692349396646,None,,,,,,,,,,,,,,,,None,None,None,,None,None,268.1468509139959,None,1,1,0.6396558629930951,268.1468509139959,None,268.7802325938945,None,None,None,None,,30,001,2023_Jan_24_1321,searchDisc5,2021.2.3,60.05429772721923,
images/exp2b_trial_83_colour1_distractors31_l.png,l,1,1,31,0,,,,,0,47,47,47,,,,,,,,,,,,,,,,,,,,,,,,,,,,,,,,,,,,,,,,,,,268.79691127699334,None,2,0.3230052459985018,268.79691127699334,None,,,,,,,,,,,,,,,,None,None,None,,None,None,269.16323969501536,None,1,1,0.8849932609591633,269.16323969501536,None,270.04714118987323,None,None,None,None,,30,001,2023_Jan_24_1321,searchDisc5,2021.2.3,60.05429772721923,
images/exp1a_trial_193_colour1_distractors4_r.png,r,3,1,4,0,,,,,0,48,48,48,,,,,,,,,,,,,,,,,,,,,,,,,,,,,,,,,,,,,,,,,,,270.06307491799816,None,2,0.3044248829828575,270.06307491799816,None,,,,,,,,,,,,,,,,None,None,None,,None,None,270.41374155902304,None,3,1,0.7556014040019363,270.41374155902304,None,271.16392584687566,None,None,None,None,,30,001,2023_Jan_24_1321,searchDisc5,2021.2.3,60.05429772721923,
images/exp2a_trial_312_colour2_distractors31_l.png,l,1,2,31,0,,,,,0,49,49,49,,,,,,,,,,,,,,,,,,,,,,,,,,,,,,,,,,,,,,,,,,,271.18025426001986,None,2,0.4207875969586894,271.18025426001986,None,,,,,,,,,,,,,,,,None,None,None,,None,None,271.65075713401893,None,1,1,0.8631196049973369,271.65075713401893,None,272.51365102590063,None,None,None,None,,30,001,2023_Jan_24_1321,searchDisc5,2021.2.3,60.05429772721923,
images/exp2b_trial_194_colour1_distractors9_r.png,r,3,1,9,0,,,,,0,50,50,50,,,,,,,,,,,,,,,,,,,,,,,,,,,,,,,,,,,,,,,,,,,272.5298114650068,None,2,0.32119853800395504,272.5298114650068,None,,,,,,,,,,,,,,,,None,None,None,,None,None,272.89700331597123,None,3,1,0.8554618129855953,272.89700331597123,None,273.7470438738936,None,None,None,None,,30,001,2023_Jan_24_1321,searchDisc5,2021.2.3,60.05429772721923,
images/exp2c_trial_240_colour1_distractors4_l.png,l,1,1,4,0,,,,,0,51,51,51,,,,,,,,,,,,,,,,,,,,,,,,,,,,,,,,,,,,,,,,,,,273.76326519896975,None,2,0.35482884995872155,273.76326519896975,None,,,,,,,,,,,,,,,,None,None,None,,None,None,274.1638831309974,None,1,1,0.5560258770128712,274.1638831309974,None,274.7134827058879,None,None,None,None,,30,001,2023_Jan_24_1321,searchDisc5,2021.2.3,60.05429772721923,
images/exp2b_trial_269_colour3_distractors19_r.png,r,3,3,19,0,,,,,0,52,52,52,,,,,,,,,,,,,,,,,,,,,,,,,,,,,,,,,,,,,,,,,,,274.7303986159968,None,2,0.3545582199585624,274.7303986159968,None,,,,,,,,,,,,,,,,None,None,None,,None,None,275.1324918830069,None,3,1,0.9541834680130705,275.1324918830069,None,276.0805162529112,None,None,None,None,,30,001,2023_Jan_24_1321,searchDisc5,2021.2.3,60.05429772721923,
images/exp2c_trial_217_colour3_distractors1_l.png,l,1,3,1,0,,,,,0,53,53,53,,,,,,,,,,,,,,,,,,,,,,,,,,,,,,,,,,,,,,,,,,,276.09697978402255,None,2,0.4211258039576933,276.09697978402255,None,,,,,,,,,,,,,,,,None,None,None,,None,None,276.5655674249865,None,1,1,0.5899955100030638,276.5655674249865,None,277.1471645239042,None,None,None,None,,30,001,2023_Jan_24_1321,searchDisc5,2021.2.3,60.05429772721923,
images/exp2c_trial_30_colour0_distractors0_r.png,r,3,0,0,0,,,,,0,54,54,54,,,,,,,,,,,,,,,,,,,,,,,,,,,,,,,,,,,,,,,,,,,277.163228867983,None,2,0.42329696798697114,277.163228867983,None,,,,,,,,,,,,,,,,None,None,None,,None,None,277.6326989890076,None,3,1,0.7716312379925512,277.6326989890076,None,278.3973735139123,None,None,None,None,,30,001,2023_Jan_24_1321,searchDisc5,2021.2.3,60.05429772721923,
images/exp1a_trial_70_colour2_distractors4_r.png,r,3,2,4,0,,,,,0,55,55,55,,,,,,,,,,,,,,,,,,,,,,,,,,,,,,,,,,,,,,,,,,,278.415959956008,None,2,0.4063391700037755,278.415959956008,None,,,,,,,,,,,,,,,,None,None,None,,None,None,278.86591191700427,None,3,1,0.903141561022494,278.86591191700427,None,279.7636562248925,None,None,None,None,,30,001,2023_Jan_24_1321,searchDisc5,2021.2.3,60.05429772721923,
images/exp2c_trial_108_colour3_distractors9_r.png,r,3,3,9,0,,,,,0,56,56,56,,,,,,,,,,,,,,,,,,,,,,,,,,,,,,,,,,,,,,,,,,,279.7805032780161,None,2,0.3379380169790238,279.7805032780161,None,,,,,,,,,,,,,,,,None,None,None,,None,None,280.1642086560023,None,3,1,0.8550810420420021,280.1642086560023,None,281.0141391838668,None,None,None,None,,30,001,2023_Jan_24_1321,searchDisc5,2021.2.3,60.05429772721923,
images/exp2c_trial_59_colour3_distractors9_l.png,l,1,3,9,0,,,,,0,57,57,57,,,,,,,,,,,,,,,,,,,,,,,,,,,,,,,,,,,,,,,,,,,281.03051602002233,None,2,0.35425953002413735,281.03051602002233,None,,,,,,,,,,,,,,,,None,None,None,,None,None,281.43053225800395,None,1,1,1.0220404650317505,281.43053225800395,None,282.44734740991845,None,None,None,None,,30,001,2023_Jan_24_1321,searchDisc5,2021.2.3,60.05429772721923,
images/exp2b_trial_105_colour2_distractors31_r.png,r,3,2,31,0,,,,,0,58,58,58,,,,,,,,,,,,,,,,,,,,,,,,,,,,,,,,,,,,,,,,,,,282.46362319000764,None,2,0.3710950969834812,282.46362319000764,None,,,,,,,,,,,,,,,,None,None,None,,None,None,282.88301513402257,None,3,1,0.769611239025835,282.88301513402257,None,283.64659436991207,None,None,None,None,,30,001,2023_Jan_24_1321,searchDisc5,2021.2.3,60.05429772721923,
images/exp2b_trial_87_colour2_distractors19_l.png,l,1,2,19,0,,,,,0,59,59,59,,,,,,,,,,,,,,,,,,,,,,,,,,,,,,,,,,,,,,,,,,,283.6658285600133,None,2,0.35520235204603523,283.6658285600133,None,,,,,,,,,,,,,,,,None,None,None,,None,None,284.06682274502236,None,1,1,0.6216067409841344,284.06682274502236,None,284.680980711896,None,None,None,None,,30,001,2023_Jan_24_1321,searchDisc5,2021.2.3,60.05429772721923,
images/exp2c_trial_135_colour2_distractors9_r.png,r,3,2,9,0,,,,,0,60,60,60,,,,,,,,,,,,,,,,,,,,,,,,,,,,,,,,,,,,,,,,,,,284.69742883200524,None,2,0.33716332697076723,284.69742883200524,None,,,,,,,,,,,,,,,,None,None,None,,None,None,285.08091639797203,None,3,1,0.8223306979634799,285.08091639797203,None,285.89753519587686,None,None,None,None,,30,001,2023_Jan_24_1321,searchDisc5,2021.2.3,60.05429772721923,
images/exp1a_trial_116_colour2_distractors1_l.png,l,1,2,1,0,,,,,0,61,61,61,,,,,,,,,,,,,,,,,,,,,,,,,,,,,,,,,,,,,,,,,,,285.9159006609698,None,2,0.3041062720003538,285.9159006609698,None,,,,,,,,,,,,,,,,None,None,None,,None,None,286.2645943959942,None,1,1,0.6900741109857336,286.2645943959942,None,286.9474806749029,None,None,None,None,,30,001,2023_Jan_24_1321,searchDisc5,2021.2.3,60.05429772721923,
images/exp2c_trial_175_colour1_distractors1_l.png,l,1,1,1,0,,,,,0,62,62,62,,,,,,,,,,,,,,,,,,,,,,,,,,,,,,,,,,,,,,,,,,,286.96436984598404,None,2,0.3210703930235468,286.96436984598404,None,,,,,,,,,,,,,,,,None,None,None,,None,None,287.3310216719983,None,1,1,0.7254240800393745,287.3310216719983,None,288.0475379598909,None,None,None,None,,30,001,2023_Jan_24_1321,searchDisc5,2021.2.3,60.05429772721923,
images/exp2a_trial_11_colour3_distractors4_r.png,r,3,3,4,0,,,,,0,63,63,63,,,,,,,,,,,,,,,,,,,,,,,,,,,,,,,,,,,,,,,,,,,288.06593777798116,None,2,0.28566215198952705,288.06593777798116,None,,,,,,,,,,,,,,,,None,None,None,,None,None,288.39749752299394,None,3,1,0.8530917820171453,288.39749752299394,None,289.2474667218747,None,None,None,None,,30,001,2023_Jan_24_1321,searchDisc5,2021.2.3,60.05429772721923,
images/exp2a_trial_94_colour0_distractors0_r.png,r,3,0,0,0,,,,,0,64,64,64,,,,,,,,,,,,,,,,,,,,,,,,,,,,,,,,,,,,,,,,,,,289.2657793929684,None,2,0.3379096009884961,289.2657793929684,None,,,,,,,,,,,,,,,,None,None,None,,None,None,289.64985818899004,None,3,1,0.6069841479766183,289.64985818899004,None,290.2475701748743,None,None,None,None,,30,001,2023_Jan_24_1321,searchDisc5,2021.2.3,60.05429772721923,
images/exp2a_trial_230_colour2_distractors4_r.png,r,3,2,4,0,,,,,0,65,65,65,,,,,,,,,,,,,,,,,,,,,,,,,,,,,,,,,,,,,,,,,,,290.2643943359726,None,2,0.30414261802798137,290.2643943359726,None,,,,,,,,,,,,,,,,None,None,None,,None,None,290.6147221340216,None,3,1,1.1887469160137698,290.6147221340216,None,291.7978502998711,None,None,None,None,,30,001,2023_Jan_24_1321,searchDisc5,2021.2.3,60.05429772721923,
images/exp2c_trial_190_colour0_distractors0_r.png,r,3,0,0,0,,,,,0,66,66,66,,,,,,,,,,,,,,,,,,,,,,,,,,,,,,,,,,,,,,,,,,,291.8143409930053,None,2,0.30337502202019095,291.8143409930053,None,,,,,,,,,,,,,,,,None,None,None,,None,None,292.1646074319724,None,3,1,0.6737885659676977,292.1646074319724,None,292.8310643169214,None,None,None,None,,30,001,2023_Jan_24_1321,searchDisc5,2021.2.3,60.05429772721923,
images/exp1a_trial_7_colour2_distractors9_r.png,r,3,2,9,0,,,,,0,67,67,67,,,,,,,,,,,,,,,,,,,,,,,,,,,,,,,,,,,,,,,,,,,292.84756787802326,None,2,0.33697030501207337,292.84756787802326,None,,,,,,,,,,,,,,,,None,None,None,,None,None,293.2312411930179,None,3,1,0.585902337974403,293.2312411930179,None,293.8143008839223,None,None,None,None,,30,001,2023_Jan_24_1321,searchDisc5,2021.2.3,60.05429772721923,
images/exp2c_trial_205_colour3_distractors19_r.png,r,3,3,19,0,,,,,0,68,68,68,,,,,,,,,,,,,,,,,,,,,,,,,,,,,,,,,,,,,,,,,,,293.830397830985,None,2,0.340062580013182,293.830397830985,None,,,,,,,,,,,,,,,,None,None,None,,None,None,294.2142514900188,None,3,1,0.7374056289554574,294.2142514900188,None,294.9476133738761,None,None,None,None,,30,001,2023_Jan_24_1321,searchDisc5,2021.2.3,60.05429772721923,
images/exp2a_trial_17_colour1_distractors9_l.png,l,1,1,9,0,,,,,0,69,69,69,,,,,,,,,,,,,,,,,,,,,,,,,,,,,,,,,,,,,,,,,,,294.9638727789861,None,2,0.33594203199027106,294.9638727789861,None,,,,,,,,,,,,,,,,None,None,None,,None,None,295.3477166949888,None,1,1,0.8218904560199007,295.3477166949888,None,296.16433498788393,None,None,None,None,,30,001,2023_Jan_24_1321,searchDisc5,2021.2.3,60.05429772721923,
images/exp2a_trial_57_colour3_distractors1_l.png,l,1,3,1,0,,,,,0,70,70,70,,,,,,,,,,,,,,,,,,,,,,,,,,,,,,,,,,,,,,,,,,,296.18075697496533,None,2,0.3542784900055267,296.18075697496533,None,,,,,,,,,,,,,,,,None,None,None,,None,None,296.5810915349866,None,1,1,0.723522974003572,296.5810915349866,None,297.2976917948807,None,None,None,None,,30,001,2023_Jan_24_1321,searchDisc5,2021.2.3,60.05429772721923,
images/exp2a_trial_56_colour2_distractors31_l.png,l,1,2,31,0,,,,,0,71,71,71,,,,,,,,,,,,,,,,,,,,,,,,,,,,,,,,,,,,,,,,,,,297.31641088298056,None,2,0.2879629139788449,297.31641088298056,None,,,,,,,,,,,,,,,,None,None,None,,None,None,297.6475992759806,None,1,1,0.7791847789776511,297.6475992759806,None,298.4309787539067,None,None,None,None,,30,001,2023_Jan_24_1321,searchDisc5,2021.2.3,60.05429772721923,
images/exp2b_trial_123_colour3_distractors9_l.png,l,1,3,9,0,,,,,0,72,72,72,,,,,,,,,,,,,,,,,,,,,,,,,,,,,,,,,,,,,,,,,,,298.4494694820023,None,2,0.30474668397800997,298.4494694820023,None,,,,,,,,,,,,,,,,None,None,None,,None,None,298.79798405000474,None,1,1,0.7222371439565904,298.79798405000474,None,299.5144008448813,None,None,None,None,,30,001,2023_Jan_24_1321,searchDisc5,2021.2.3,60.05429772721923,
images/exp2b_trial_61_colour3_distractors31_l.png,l,1,3,31,0,,,,,0,73,73,73,,,,,,,,,,,,,,,,,,,,,,,,,,,,,,,,,,,,,,,,,,,299.53285286499886,None,2,0.32136997499037534,299.53285286499886,None,,,,,,,,,,,,,,,,None,None,None,,None,None,299.8980173880118,None,1,1,0.8369334969902411,299.8980173880118,None,300.7312713749241,None,None,None,None,,30,001,2023_Jan_24_1321,searchDisc5,2021.2.3,60.05429772721923,
images/exp1a_trial_62_colour0_distractors0_r.png,r,3,0,0,0,,,,,0,74,74,74,,,,,,,,,,,,,,,,,,,,,,,,,,,,,,,,,,,,,,,,,,,300.74949330999516,None,2,0.3377391879912466,300.74949330999516,None,,,,,,,,,,,,,,,,None,None,None,,None,None,301.13302025798475,None,3,1,0.7566823370289057,301.13302025798475,None,301.8811207179213,None,None,None,None,,30,001,2023_Jan_24_1321,searchDisc5,2021.2.3,60.05429772721923,
images/exp2a_trial_75_colour3_distractors4_r.png,r,3,3,4,0,,,,,0,75,75,75,,,,,,,,,,,,,,,,,,,,,,,,,,,,,,,,,,,,,,,,,,,301.89813142002095,None,2,0.3729914359864779,301.89813142002095,None,,,,,,,,,,,,,,,,None,None,None,,None,None,302.3166402389761,None,3,1,0.7205959080019966,302.3166402389761,None,303.03118465486915,None,None,None,None,,30,001,2023_Jan_24_1321,searchDisc5,2021.2.3,60.05429772721923,
images/exp2c_trial_148_colour2_distractors1_l.png,l,1,2,1,0,,,,,0,76,76,76,,,,,,,,,,,,,,,,,,,,,,,,,,,,,,,,,,,,,,,,,,,303.04736364696873,None,2,0.3380067940452136,303.04736364696873,None,,,,,,,,,,,,,,,,None,None,None,,None,None,303.4313218049938,None,1,1,0.7239658340113238,303.4313218049938,None,304.1482798829209,None,None,None,None,,30,001,2023_Jan_24_1321,searchDisc5,2021.2.3,60.05429772721923,
images/exp2b_trial_266_colour3_distractors1_r.png,r,3,3,1,0,,,,,0,77,77,77,,,,,,,,,,,,,,,,,,,,,,,,,,,,,,,,,,,,,,,,,,,304.16449740796816,None,2,0.3377641999977641,304.16449740796816,None,,,,,,,,,,,,,,,,None,None,None,,None,None,304.5480263570207,None,3,1,0.7065378060215153,304.5480263570207,None,305.2481572438963,None,None,None,None,,30,001,2023_Jan_24_1321,searchDisc5,2021.2.3,60.05429772721923,
images/exp2c_trial_307_colour1_distractors31_l.png,l,1,1,31,0,,,,,0,78,78,78,,,,,,,,,,,,,,,,,,,,,,,,,,,,,,,,,,,,,,,,,,,305.2669407610083,None,2,0.355412396020256,305.2669407610083,None,,,,,,,,,,,,,,,,None,None,None,,None,None,305.66684462997364,None,1,1,0.7532475210027769,305.66684462997364,None,306.41461181589403,None,None,None,None,,30,001,2023_Jan_24_1321,searchDisc5,2021.2.3,60.05429772721923,
images/exp2a_trial_178_colour1_distractors19_l.png,l,1,1,19,0,,,,,0,79,79,79,,,,,,,,,,,,,,,,,,,,,,,,,,,,,,,,,,,,,,,,,,,306.43140094098635,None,2,0.33662360796006396,306.43140094098635,None,,,,,,,,,,,,,,,,None,None,None,,None,None,306.81452066800557,None,1,1,0.7371293330215849,306.81452066800557,None,307.547605325887,None,None,None,None,,30,001,2023_Jan_24_1321,searchDisc5,2021.2.3,60.05429772721923,
images/exp2b_trial_1_colour1_distractors4_r.png,r,3,1,4,0,,,,,0,80,80,80,,,,,,,,,,,,,,,,,,,,,,,,,,,,,,,,,,,,,,,,,,,307.56392557901563,None,2,0.37150508799823,307.56392557901563,None,,,,,,,,,,,,,,,,None,None,None,,None,None,307.98126281797886,None,3,1,0.7395716210012324,307.98126281797886,None,308.71472828987754,None,None,None,None,,30,001,2023_Jan_24_1321,searchDisc5,2021.2.3,60.05429772721923,
images/exp2a_trial_15_colour1_distractors1_l.png,l,1,1,1,0,,,,,0,81,81,81,,,,,,,,,,,,,,,,,,,,,,,,,,,,,,,,,,,,,,,,,,,308.7307299620006,None,2,0.3207271249848418,308.7307299620006,None,,,,,,,,,,,,,,,,None,None,None,,None,None,309.0982114999788,None,1,1,0.7229336759774014,309.0982114999788,None,309.8145751698874,None,None,None,None,,30,001,2023_Jan_24_1321,searchDisc5,2021.2.3,60.05429772721923,
images/exp2b_trial_319_colour0_distractors0_l.png,l,1,0,0,0,,,,,0,82,82,82,,,,,,,,,,,,,,,,,,,,,,,,,,,,,,,,,,,,,,,,,,,309.8333654400194,None,2,0.32145144598325714,309.8333654400194,None,,,,,,,,,,,,,,,,None,None,None,,None,None,310.2004653289914,None,1,1,0.7069835070287809,310.2004653289914,None,310.8980863128789,None,None,None,None,,30,001,2023_Jan_24_1321,searchDisc5,2021.2.3,60.05429772721923,
images/exp2c_trial_10_colour3_distractors1_r.png,r,3,3,1,0,,,,,0,83,83,83,,,,,,,,,,,,,,,,,,,,,,,,,,,,,,,,,,,,,,,,,,,310.91648047900526,None,2,0.3711297590052709,310.91648047900526,None,,,,,,,,,,,,,,,,None,None,None,,None,None,311.3336103360052,None,3,1,0.7733553419820964,311.3336103360052,None,312.09818441689714,None,None,None,None,,30,001,2023_Jan_24_1321,searchDisc5,2021.2.3,60.05429772721923,
images/exp2c_trial_136_colour2_distractors19_r.png,r,3,2,19,0,,,,,0,84,84,84,,,,,,,,,,,,,,,,,,,,,,,,,,,,,,,,,,,,,,,,,,,312.1148191369721,None,2,0.33747234399197623,312.1148191369721,None,,,,,,,,,,,,,,,,None,None,None,,None,None,312.5002270640107,None,3,1,0.7877390260109678,312.5002270640107,None,313.28157020489454,None,None,None,None,,30,001,2023_Jan_24_1321,searchDisc5,2021.2.3,60.05429772721923,
images/exp2a_trial_290_colour1_distractors9_r.png,r,3,1,9,0,,,,,0,85,85,85,,,,,,,,,,,,,,,,,,,,,,,,,,,,,,,,,,,,,,,,,,,313.2976654639933,None,2,0.30427359498571604,313.2976654639933,None,,,,,,,,,,,,,,,,None,None,None,,None,None,313.6482020679978,None,3,1,0.6555119010154158,313.6482020679978,None,314.2984529329231,None,None,None,None,,30,001,2023_Jan_24_1321,searchDisc5,2021.2.3,60.05429772721923,
images/exp1a_trial_148_colour2_distractors1_l.png,l,1,2,1,0,,,,,0,86,86,86,,,,,,,,,,,,,,,,,,,,,,,,,,,,,,,,,,,,,,,,,,,314.31691838701954,None,2,0.5046140740159899,314.31691838701954,None,,,,,,,,,,,,,,,,None,None,None,,None,None,314.86725327797467,None,1,1,1.2063127150177024,314.86725327797467,None,316.0647933798726,None,None,None,None,,30,001,2023_Jan_24_1321,searchDisc5,2021.2.3,60.05429772721923,
images/exp2a_trial_100_colour1_distractors31_r.png,r,3,1,31,0,,,,,0,87,87,87,,,,,,,,,,,,,,,,,,,,,,,,,,,,,,,,,,,,,,,,,,,316.08359885198297,None,2,0.32121674000518396,316.08359885198297,None,,,,,,,,,,,,,,,,None,None,None,,None,None,316.4485128049855,None,3,1,0.7030369670246728,316.4485128049855,None,317.1482254599221,None,None,None,None,,30,001,2023_Jan_24_1321,searchDisc5,2021.2.3,60.05429772721923,
images/exp1a_trial_29_colour3_distractors31_l.png,l,1,3,31,0,,,,,0,88,88,88,,,,,,,,,,,,,,,,,,,,,,,,,,,,,,,,,,,,,,,,,,,317.16491949901683,None,2,0.320971404958982,317.16491949901683,None,,,,,,,,,,,,,,,,None,None,None,,None,None,317.53162414598046,None,1,1,0.8526685049873777,317.53162414598046,None,318.3815538119059,None,None,None,None,,30,001,2023_Jan_24_1321,searchDisc5,2021.2.3,60.05429772721923,
images/exp2a_trial_174_colour3_distractors31_r.png,r,3,3,31,0,,,,,0,89,89,89,,,,,,,,,,,,,,,,,,,,,,,,,,,,,,,,,,,,,,,,,,,318.3976857929956,None,2,0.30301082303049043,318.3976857929956,None,,,,,,,,,,,,,,,,None,None,None,,None,None,318.7484020880074,None,3,1,0.720086966000963,318.7484020880074,None,319.46509689792293,None,None,None,None,,30,001,2023_Jan_24_1321,searchDisc5,2021.2.3,60.05429772721923,
images/exp2b_trial_81_colour1_distractors9_l.png,l,1,1,9,0,,,,,0,90,90,90,,,,,,,,,,,,,,,,,,,,,,,,,,,,,,,,,,,,,,,,,,,319.48359488800634,None,2,0.3545587370172143,319.48359488800634,None,,,,,,,,,,,,,,,,None,None,None,,None,None,319.8838846589788,None,1,1,0.6390708649996668,319.8838846589788,None,320.514998619922,None,None,None,None,,30,001,2023_Jan_24_1321,searchDisc5,2021.2.3,60.05429772721923,
images/exp1a_trial_273_colour1_distractors9_l.png,l,1,1,9,0,,,,,0,91,91,91,,,,,,,,,,,,,,,,,,,,,,,,,,,,,,,,,,,,,,,,,,,320.5313511620043,None,2,0.3056147139868699,320.5313511620043,None,,,,,,,,,,,,,,,,None,None,None,,None,None,320.88183818000834,None,1,1,0.670218170969747,320.88183818000834,None,321.54841649091105,None,None,None,None,,30,001,2023_Jan_24_1321,searchDisc5,2021.2.3,60.05429772721923,
images/exp2c_trial_45_colour3_distractors19_r.png,r,3,3,19,0,,,,,0,92,92,92,,,,,,,,,,,,,,,,,,,,,,,,,,,,,,,,,,,,,,,,,,,321.5671093700221,None,2,0.30399888003012165,321.5671093700221,None,,,,,,,,,,,,,,,,None,None,None,,None,None,321.9148033600068,None,3,1,0.7212266799760982,321.9148033600068,None,322.6316950618755,None,None,None,None,,30,001,2023_Jan_24_1321,searchDisc5,2021.2.3,60.05429772721923,
images/exp1a_trial_82_colour1_distractors19_l.png,l,1,1,19,0,,,,,0,93,93,93,,,,,,,,,,,,,,,,,,,,,,,,,,,,,,,,,,,,,,,,,,,322.65005222702166,None,2,0.3045450960053131,322.65005222702166,None,,,,,,,,,,,,,,,,None,None,None,,None,None,322.9981512759696,None,1,1,0.6359784770174883,322.9981512759696,None,323.6318126758677,None,None,None,None,,30,001,2023_Jan_24_1321,searchDisc5,2021.2.3,60.05429772721923,
images/exp2b_trial_302_colour3_distractors31_r.png,r,3,3,31,0,,,,,0,94,94,94,,,,,,,,,,,,,,,,,,,,,,,,,,,,,,,,,,,,,,,,,,,323.64849809301086,None,2,0.3205329069751315,323.64849809301086,None,,,,,,,,,,,,,,,,None,None,None,,None,None,324.01506106200395,None,3,1,0.6893999649910256,324.01506106200395,None,324.6985805078992,None,None,None,None,,30,001,2023_Jan_24_1321,searchDisc5,2021.2.3,60.05429772721923,
images/exp2a_trial_16_colour1_distractors4_l.png,l,1,1,4,0,,,,,0,95,95,95,,,,,,,,,,,,,,,,,,,,,,,,,,,,,,,,,,,,,,,,,,,324.715155797021,None,2,0.38584304199321195,324.715155797021,None,,,,,,,,,,,,,,,,None,None,None,,None,None,325.15037258400116,None,1,1,0.7060650290222839,325.15037258400116,None,325.8486186759081,None,None,None,None,,30,001,2023_Jan_24_1321,searchDisc5,2021.2.3,60.05429772721923,
images/exp2b_trial_40_colour2_distractors19_r.png,r,3,2,19,0,,,,,0,96,96,96,,,,,,,,,,,,,,,,,,,,,,,,,,,,,,,,,,,,,,,,,,,325.8672968239989,None,2,0.6209230130189098,325.8672968239989,None,,,,,,,,,,,,,,,,None,None,None,,None,None,326.5316322139697,None,3,1,0.6375698060146533,326.5316322139697,None,327.16529328790494,None,None,None,None,,30,001,2023_Jan_24_1321,searchDisc5,2021.2.3,60.05429772721923,
images/exp1a_trial_271_colour1_distractors1_l.png,l,1,1,1,0,,,,,0,97,97,97,,,,,,,,,,,,,,,,,,,,,,,,,,,,,,,,,,,,,,,,,,,327.18190202699043,None,2,0.40415094897616655,327.18190202699043,None,,,,,,,,,,,,,,,,None,None,None,,None,None,327.6338884459692,None,1,1,0.7901565450010821,327.6338884459692,None,328.41519158491866,None,None,None,None,,30,001,2023_Jan_24_1321,searchDisc5,2021.2.3,60.05429772721923,
images/exp1a_trial_185_colour3_distractors1_l.png,l,1,3,1,0,,,,,0,98,98,98,,,,,,,,,,,,,,,,,,,,,,,,,,,,,,,,,,,,,,,,,,,328.4339407379739,None,2,0.5567248989827931,328.4339407379739,None,,,,,,,,,,,,,,,,None,None,None,,None,None,329.03426895599114,None,1,1,0.6714428759878501,329.03426895599114,None,329.6985432959162,None,None,None,None,,30,001,2023_Jan_24_1321,searchDisc5,2021.2.3,60.05429772721923,
images/exp2a_trial_95_colour0_distractors0_l.png,l,1,0,0,0,,,,,0,99,99,99,,,,,,,,,,,,,,,,,,,,,,,,,,,,,,,,,,,,,,,,,,,329.71530247700866,None,2,0.3379236119799316,329.71530247700866,None,,,,,,,,,,,,,,,,None,None,None,,None,None,330.09860638697864,None,1,1,0.6238127340329811,330.09860638697864,None,330.7154872769141,None,None,None,None,,30,001,2023_Jan_24_1321,searchDisc5,2021.2.3,60.05429772721923,
images/exp2a_trial_279_colour2_distractors19_l.png,l,1,2,19,0,,,,,0,100,100,100,,,,,,,,,,,,,,,,,,,,,,,,,,,,,,,,,,,,,,,,,,,330.7340942369774,None,2,0.35409752500709146,330.7340942369774,None,,,,,,,,,,,,,,,,None,None,None,,None,None,331.1341150919907,None,1,1,0.6982907479978167,331.1341150919907,None,331.83168330690825,None,None,None,None,,30,001,2023_Jan_24_1321,searchDisc5,2021.2.3,60.05429772721923,
images/exp2c_trial_22_colour2_distractors9_l.png,l,1,2,9,0,,,,,0,101,101,101,,,,,,,,,,,,,,,,,,,,,,,,,,,,,,,,,,,,,,,,,,,331.84860899997875,None,2,0.3046625749557279,331.84860899997875,None,,,,,,,,,,,,,,,,None,None,None,,None,None,332.1986747219926,None,1,1,0.6885036510066129,332.1986747219926,None,332.8820844488917,None,None,None,None,,30,001,2023_Jan_24_1321,searchDisc5,2021.2.3,60.05429772721923,
images/exp2b_trial_191_colour0_distractors0_l.png,l,1,0,0,0,,,,,0,102,102,102,,,,,,,,,,,,,,,,,,,,,,,,,,,,,,,,,,,,,,,,,,,332.89859475701815,None,2,0.3877538539818488,332.89859475701815,None,,,,,,,,,,,,,,,,None,None,None,,None,None,333.3319053319865,None,1,1,0.6073792130337097,333.3319053319865,None,333.93214898988373,None,None,None,None,,30,001,2023_Jan_24_1321,searchDisc5,2021.2.3,60.05429772721923,
images/exp2c_trial_95_colour0_distractors0_l.png,l,1,0,0,0,,,,,0,103,103,103,,,,,,,,,,,,,,,,,,,,,,,,,,,,,,,,,,,,,,,,,,,333.9486466940143,None,2,0.5379553160164505,333.9486466940143,None,,,,,,,,,,,,,,,,None,None,None,,None,None,334.53415688400855,None,1,1,0.723537124984432,334.53415688400855,None,335.24874875986717,None,None,None,None,,30,001,2023_Jan_24_1321,searchDisc5,2021.2.3,60.05429772721923,
images/exp2a_trial_215_colour2_distractors19_l.png,l,1,2,19,0,,,,,0,104,104,104,,,,,,,,,,,,,,,,,,,,,,,,,,,,,,,,,,,,,,,,,,,335.2648590049939,None,2,0.3210786139825359,335.2648590049939,None,,,,,,,,,,,,,,,,None,None,None,,None,None,335.6318196809734,None,1,1,0.8993797160219401,335.6318196809734,None,336.5321913468768,None,None,None,None,,30,001,2023_Jan_24_1321,searchDisc5,2021.2.3,60.05429772721923,
images/exp2c_trial_111_colour1_distractors1_l.png,l,1,1,1,0,,,,,0,105,105,105,,,,,,,,,,,,,,,,,,,,,,,,,,,,,,,,,,,,,,,,,,,336.55007171299076,None,2,0.40605708002112806,336.55007171299076,None,,,,,,,,,,,,,,,,None,None,None,,None,None,337.00107192399446,None,1,1,0.5383311969926581,337.00107192399446,None,337.53157426691615,None,None,None,None,,30,001,2023_Jan_24_1321,searchDisc5,2021.2.3,60.05429772721923,
images/exp1a_trial_297_colour2_distractors31_r.png,r,3,2,31,0,,,,,0,106,106,106,,,,,,,,,,,,,,,,,,,,,,,,,,,,,,,,,,,,,,,,,,,337.54870242998004,None,2,0.30247727601090446,337.54870242998004,None,,,,,,,,,,,,,,,,None,None,None,,None,None,337.8986573209986,None,3,1,0.9012151340139098,337.8986573209986,None,338.7988659839146,None,None,None,None,,30,001,2023_Jan_24_1321,searchDisc5,2021.2.3,60.05429772721923,
images/exp2a_trial_165_colour2_distractors1_r.png,r,3,2,1,0,,,,,0,107,107,107,,,,,,,,,,,,,,,,,,,,,,,,,,,,,,,,,,,,,,,,,,,338.8154604170122,None,2,0.23799772100755945,338.8154604170122,None,,,,,,,,,,,,,,,,None,None,None,,None,None,339.09933959000045,None,3,1,0.9728664620197378,339.09933959000045,None,340.06566060387996,None,None,None,None,,30,001,2023_Jan_24_1321,searchDisc5,2021.2.3,60.05429772721923,
images/exp2b_trial_111_colour1_distractors1_l.png,l,1,1,1,0,,,,,0,108,108,108,,,,,,,,,,,,,,,,,,,,,,,,,,,,,,,,,,,,,,,,,,,340.0821633400046,None,2,0.27297979401191697,340.0821633400046,None,,,,,,,,,,,,,,,,None,None,None,,None,None,340.3993483039667,None,1,1,0.6883494220091961,340.3993483039667,None,341.0823096368811,None,None,None,None,,30,001,2023_Jan_24_1321,searchDisc5,2021.2.3,60.05429772721923,
images/exp2c_trial_317_colour3_distractors31_l.png,l,1,3,31,0,,,,,0,109,109,109,,,,,,,,,,,,,,,,,,,,,,,,,,,,,,,,,,,,,,,,,,,341.1006295339903,None,2,0.23777075699763373,341.1006295339903,None,,,,,,,,,,,,,,,,None,None,None,,None,None,341.3825382280047,None,1,1,0.870054300990887,341.3825382280047,None,342.2488338028896,None,None,None,None,,30,001,2023_Jan_24_1321,searchDisc5,2021.2.3,60.05429772721923,
images/exp2c_trial_144_colour1_distractors4_l.png,l,1,1,4,0,,,,,0,110,110,110,,,,,,,,,,,,,,,,,,,,,,,,,,,,,,,,,,,,,,,,,,,342.2655365219689,None,2,0.3211692050099373,342.2655365219689,None,,,,,,,,,,,,,,,,None,None,None,,None,None,342.6325563219725,None,1,1,0.7064958449918777,342.6325563219725,None,343.3323714638944,None,None,None,None,,30,001,2023_Jan_24_1321,searchDisc5,2021.2.3,60.05429772721923,
images/exp2a_trial_261_colour2_distractors1_r.png,r,3,2,1,0,,,,,0,111,111,111,,,,,,,,,,,,,,,,,,,,,,,,,,,,,,,,,,,,,,,,,,,343.348676241003,None,2,0.3045754019985907,343.348676241003,None,,,,,,,,,,,,,,,,None,None,None,,None,None,343.6991894739913,None,3,1,0.8561699980054982,343.6991894739913,None,344.54895464087605,None,None,None,None,,30,001,2023_Jan_24_1321,searchDisc5,2021.2.3,60.05429772721923,
images/exp2b_trial_287_colour0_distractors0_l.png,l,1,0,0,0,,,,,0,112,112,112,,,,,,,,,,,,,,,,,,,,,,,,,,,,,,,,,,,,,,,,,,,344.56558324501384,None,2,0.3227739569847472,344.56558324501384,None,,,,,,,,,,,,,,,,None,None,None,,None,None,344.93199618702056,None,1,1,0.7411516809952445,344.93199618702056,None,345.66577281792416,None,None,None,None,,30,001,2023_Jan_24_1321,searchDisc5,2021.2.3,60.05429772721923,
images/exp2b_trial_278_colour2_distractors9_l.png,l,1,2,9,0,,,,,0,113,113,113,,,,,,,,,,,,,,,,,,,,,,,,,,,,,,,,,,,,,,,,,,,345.68407147499966,None,2,0.30234950699377805,345.68407147499966,None,,,,,,,,,,,,,,,,None,None,None,,None,None,346.03245394997066,None,1,1,0.6224167739856057,346.03245394997066,None,346.64900285390905,None,None,None,None,,30,001,2023_Jan_24_1321,searchDisc5,2021.2.3,60.05429772721923,
images/exp2a_trial_286_colour0_distractors0_r.png,r,3,0,0,0,,,,,0,114,114,114,,,,,,,,,,,,,,,,,,,,,,,,,,,,,,,,,,,,,,,,,,,346.66566706000594,None,2,0.3056082399562001,346.66566706000594,None,,,,,,,,,,,,,,,,None,None,None,,None,None,347.0160290009808,None,3,1,0.6553345510037616,347.0160290009808,None,347.6658345428994,None,None,None,None,,30,001,2023_Jan_24_1321,searchDisc5,2021.2.3,60.05429772721923,
images/exp2a_trial_116_colour2_distractors1_l.png,l,1,2,1,0,,,,,0,115,115,115,,,,,,,,,,,,,,,,,,,,,,,,,,,,,,,,,,,,,,,,,,,347.68382349499734,None,2,0.3051112529938109,347.68382349499734,None,,,,,,,,,,,,,,,,None,None,None,,None,None,348.03189216798637,None,1,1,0.5896440339856781,348.03189216798637,None,348.61593909690856,None,None,None,None,,30,001,2023_Jan_24_1321,searchDisc5,2021.2.3,60.05429772721923,
images/exp2a_trial_47_colour1_distractors1_l.png,l,1,1,1,0,,,,,0,116,116,116,,,,,,,,,,,,,,,,,,,,,,,,,,,,,,,,,,,,,,,,,,,348.63277141196886,None,2,0.30388368997955695,348.63277141196886,None,,,,,,,,,,,,,,,,None,None,None,,None,None,348.9826841999893,None,1,1,0.722986878012307,348.9826841999893,None,349.69930261590054,None,None,None,None,,30,001,2023_Jan_24_1321,searchDisc5,2021.2.3,60.05429772721923,
images/exp2a_trial_133_colour2_distractors1_r.png,r,3,2,1,0,,,,,0,117,117,117,,,,,,,,,,,,,,,,,,,,,,,,,,,,,,,,,,,,,,,,,,,349.7158372919657,None,2,0.272170775977429,349.7158372919657,None,,,,,,,,,,,,,,,,None,None,None,,None,None,350.0348145699827,None,3,1,0.6886521580163389,350.0348145699827,None,350.7160444578738,None,None,None,None,,30,001,2023_Jan_24_1321,searchDisc5,2021.2.3,60.05429772721923,
images/exp2b_trial_235_colour3_distractors4_r.png,r,3,3,4,0,,,,,0,118,118,118,,,,,,,,,,,,,,,,,,,,,,,,,,,,,,,,,,,,,,,,,,,350.7330321019981,None,2,0.3051666829851456,350.7330321019981,None,,,,,,,,,,,,,,,,None,None,None,,None,None,351.08237018599175,None,3,1,0.655470825964585,351.08237018599175,None,351.7326349748881,None,None,None,None,,30,001,2023_Jan_24_1321,searchDisc5,2021.2.3,60.05429772721923,
images/exp2a_trial_260_colour1_distractors31_r.png,r,3,1,31,0,,,,,0,119,119,119,,,,,,,,,,,,,,,,,,,,,,,,,,,,,,,,,,,,,,,,,,,351.74914093501866,None,2,0.303919022961054,351.74914093501866,None,,,,,,,,,,,,,,,,None,None,None,,None,None,352.0999727519811,None,3,1,0.7213281250442378,352.0999727519811,None,352.8160478948965,None,None,None,None,,30,001,2023_Jan_24_1321,searchDisc5,2021.2.3,60.05429772721923,
images/exp2a_trial_228_colour1_distractors31_r.png,r,3,1,31,0,,,,,0,120,120,120,,,,,,,,,,,,,,,,,,,,,,,,,,,,,,,,,,,,,,,,,,,352.832609642006,None,2,0.28717616898939013,352.832609642006,None,,,,,,,,,,,,,,,,None,None,None,,None,None,353.1664200479863,None,3,1,0.8368462690268643,353.1664200479863,None,353.99933015690186,None,None,None,None,,30,001,2023_Jan_24_1321,searchDisc5,2021.2.3,60.05429772721923,
images/exp1a_trial_315_colour3_distractors9_l.png,l,1,3,9,0,,,,,0,121,121,121,,,,,,,,,,,,,,,,,,,,,,,,,,,,,,,,,,,,,,,,,,,354.0181425670162,None,2,0.27215198398334906,354.0181425670162,None,,,,,,,,,,,,,,,,None,None,None,,None,None,354.3328413310228,None,1,1,0.9546771540190093,354.3328413310228,None,355.28383576289053,None,None,None,None,,30,001,2023_Jan_24_1321,searchDisc5,2021.2.3,60.05429772721923,
images/exp2c_trial_187_colour3_distractors9_l.png,l,1,3,9,0,,,,,0,122,122,122,,,,,,,,,,,,,,,,,,,,,,,,,,,,,,,,,,,,,,,,,,,355.3014770639711,None,2,0.2700605770223774,355.3014770639711,None,,,,,,,,,,,,,,,,None,None,None,,None,None,355.6163103969884,None,1,1,0.6732759469887242,355.6163103969884,None,356.28382634390147,None,None,None,None,,30,001,2023_Jan_24_1321,searchDisc5,2021.2.3,60.05429772721923,
images/exp2b_trial_128_colour1_distractors1_r.png,r,3,1,1,0,,,,,0,123,123,123,,,,,,,,,,,,,,,,,,,,,,,,,,,,,,,,,,,,,,,,,,,356.2994479199988,None,2,0.2700378369772807,356.2994479199988,None,,,,,,,,,,,,,,,,None,None,None,,None,None,356.6162160609965,None,3,1,0.7569418830098584,356.6162160609965,None,357.3663893519086,None,None,None,None,,30,001,2023_Jan_24_1321,searchDisc5,2021.2.3,60.05429772721923,
images/exp2a_trial_205_colour3_distractors19_r.png,r,3,3,19,0,,,,,0,124,124,124,,,,,,,,,,,,,,,,,,,,,,,,,,,,,,,,,,,,,,,,,,,357.3820348959998,None,2,0.28750473901163787,357.3820348959998,None,,,,,,,,,,,,,,,,None,None,None,,None,None,357.7171828059945,None,3,1,0.7228598560323007,357.7171828059945,None,358.43383858889575,None,None,None,None,,30,001,2023_Jan_24_1321,searchDisc5,2021.2.3,60.05429772721923,
images/exp1a_trial_195_colour1_distractors19_r.png,r,3,1,19,0,,,,,0,125,125,125,,,,,,,,,,,,,,,,,,,,,,,,,,,,,,,,,,,,,,,,,,,358.4515751799918,None,2,0.2687829149654135,358.4515751799918,None,,,,,,,,,,,,,,,,None,None,None,,None,None,358.7672762729926,None,3,1,0.9179135659942403,358.7672762729926,None,359.68293842191343,None,None,None,None,,30,001,2023_Jan_24_1321,searchDisc5,2021.2.3,60.05429772721923,
images/exp2c_trial_267_colour3_distractors4_r.png,r,3,3,4,0,,,,,0,126,126,126,,,,,,,,,,,,,,,,,,,,,,,,,,,,,,,,,,,,,,,,,,,359.6992909180117,None,2,0.30485100601799786,359.6992909180117,None,,,,,,,,,,,,,,,,None,None,None,,None,None,360.04958756500855,None,3,1,0.6399182069581002,360.04958756500855,None,360.6838947559125,None,None,None,None,,30,001,2023_Jan_24_1321,searchDisc5,2021.2.3,60.05429772721923,
images/exp2b_trial_156_colour3_distractors19_l.png,l,1,3,19,0,,,,,0,127,127,127,,,,,,,,,,,,,,,,,,,,,,,,,,,,,,,,,,,,,,,,,,,360.6992718729889,None,2,0.30320903699612245,360.6992718729889,None,,,,,,,,,,,,,,,,None,None,None,,None,None,361.04928316397127,None,1,1,0.8361136310268193,361.04928316397127,None,361.8828975759214,None,None,None,None,,30,001,2023_Jan_24_1321,searchDisc5,2021.2.3,60.05429772721923,
images/exp2a_trial_278_colour2_distractors9_l.png,l,1,2,9,0,,,,,0,128,128,128,,,,,,,,,,,,,,,,,,,,,,,,,,,,,,,,,,,,,,,,,,,361.898824169999,None,2,0.28794197604293004,361.898824169999,None,,,,,,,,,,,,,,,,None,None,None,,None,None,362.23308111401275,None,1,1,0.7539775259792805,362.23308111401275,None,362.9829214519239,None,None,None,None,,30,001,2023_Jan_24_1321,searchDisc5,2021.2.3,60.05429772721923,
images/exp2a_trial_243_colour1_distractors31_l.png,l,1,1,31,0,,,,,0,129,129,129,,,,,,,,,,,,,,,,,,,,,,,,,,,,,,,,,,,,,,,,,,,363.0018897309783,None,2,0.3040630159666762,363.0018897309783,None,,,,,,,,,,,,,,,,None,None,None,,None,None,363.3521588490112,None,1,1,0.7692784569808282,363.3521588490112,None,364.1163510899176,None,None,None,None,,30,001,2023_Jan_24_1321,searchDisc5,2021.2.3,60.05429772721923,
images/exp2c_trial_57_colour3_distractors1_l.png,l,1,3,1,0,,,,,0,130,130,130,,,,,,,,,,,,,,,,,,,,,,,,,,,,,,,,,,,,,,,,,,,364.1339064229978,None,2,0.3715790589922108,364.1339064229978,None,,,,,,,,,,,,,,,,None,None,None,,None,None,364.5519675280084,None,1,1,0.6903448540251702,364.5519675280084,None,365.23401145987447,None,None,None,None,,30,001,2023_Jan_24_1321,searchDisc5,2021.2.3,60.05429772721923,
images/exp2b_trial_313_colour3_distractors1_l.png,l,1,3,1,0,,,,,0,131,131,131,,,,,,,,,,,,,,,,,,,,,,,,,,,,,,,,,,,,,,,,,,,365.2493878760142,None,2,0.32107475999509916,365.2493878760142,None,,,,,,,,,,,,,,,,None,None,None,,None,None,365.6176181570045,None,1,1,0.5553318369784392,365.6176181570045,None,366.16574769887376,None,None,None,None,,30,001,2023_Jan_24_1321,searchDisc5,2021.2.3,60.05429772721923,
images/exp2a_trial_199_colour2_distractors9_r.png,r,3,2,9,0,,,,,0,132,132,132,,,,,,,,,,,,,,,,,,,,,,,,,,,,,,,,,,,,,,,,,,,366.1839084230014,None,2,0.274642979959026,366.1839084230014,None,,,,,,,,,,,,,,,,None,None,None,,None,None,366.4998270699871,None,3,1,0.5670614140108228,366.4998270699871,None,367.06741506991676,None,None,None,None,,30,001,2023_Jan_24_1321,searchDisc5,2021.2.3,60.05429772721923,
images/exp1a_trial_126_colour0_distractors0_r.png,r,3,0,0,0,,,,,0,133,133,133,,,,,,,,,,,,,,,,,,,,,,,,,,,,,,,,,,,,,,,,,,,367.08381022600224,None,2,0.2542613809928298,367.08381022600224,None,,,,,,,,,,,,,,,,None,None,None,,None,None,367.38384022697574,None,3,1,0.8226346140145324,367.38384022697574,None,368.19961746591144,None,None,None,None,,30,001,2023_Jan_24_1321,searchDisc5,2021.2.3,60.05429772721923,
images/exp2c_trial_164_colour1_distractors31_r.png,r,3,1,31,0,,,,,0,134,134,134,,,,,,,,,,,,,,,,,,,,,,,,,,,,,,,,,,,,,,,,,,,368.2167199620162,None,2,0.22231744101736695,368.2167199620162,None,,,,,,,,,,,,,,,,None,None,None,,None,None,368.4832238329691,None,3,1,0.7857977529638447,368.4832238329691,None,369.26658403688344,None,None,None,None,,30,001,2023_Jan_24_1321,searchDisc5,2021.2.3,60.05429772721923,
images/exp2a_trial_139_colour3_distractors4_r.png,r,3,3,4,0,,,,,0,135,135,135,,,,,,,,,,,,,,,,,,,,,,,,,,,,,,,,,,,,,,,,,,,369.2839835190098,None,2,0.25678716000402346,369.2839835190098,None,,,,,,,,,,,,,,,,None,None,None,,None,None,369.58363874896895,None,3,1,0.6031697819707915,369.58363874896895,None,370.1832767799031,None,None,None,None,,30,001,2023_Jan_24_1321,searchDisc5,2021.2.3,60.05429772721923,
images/exp1a_trial_143_colour1_distractors1_l.png,l,1,1,1,0,,,,,0,136,136,136,,,,,,,,,,,,,,,,,,,,,,,,,,,,,,,,,,,,,,,,,,,370.2004827519995,None,2,0.27198439196217805,370.2004827519995,None,,,,,,,,,,,,,,,,None,None,None,,None,None,370.5173448069836,None,1,1,1.339247118041385,370.5173448069836,None,371.8498346128734,None,None,None,None,,30,001,2023_Jan_24_1321,searchDisc5,2021.2.3,60.05429772721923,
images/exp1a_trial_263_colour2_distractors9_r.png,r,3,2,9,0,,,,,0,137,137,137,,,,,,,,,,,,,,,,,,,,,,,,,,,,,,,,,,,,,,,,,,,371.8667284650146,None,2,0.22127850202377886,371.8667284650146,None,,,,,,,,,,,,,,,,None,None,None,,None,None,372.13427383598173,None,3,1,0.9543047960032709,372.13427383598173,None,373.0833290778799,None,None,None,None,,30,001,2023_Jan_24_1321,searchDisc5,2021.2.3,60.05429772721923,
images/exp2b_trial_157_colour3_distractors31_l.png,l,1,3,31,0,,,,,0,138,138,138,,,,,,,,,,,,,,,,,,,,,,,,,,,,,,,,,,,,,,,,,,,373.1025565129821,None,2,0.2376526030129753,373.1025565129821,None,,,,,,,,,,,,,,,,None,None,None,,None,None,373.38415006297873,None,1,1,0.8229565210058354,373.38415006297873,None,374.2008102968801,None,None,None,None,,30,001,2023_Jan_24_1321,searchDisc5,2021.2.3,60.05429772721923,
images/exp2c_trial_14_colour3_distractors31_r.png,r,3,3,31,0,,,,,0,139,139,139,,,,,,,,,,,,,,,,,,,,,,,,,,,,,,,,,,,,,,,,,,,374.216512148967,None,2,0.23784866300411522,374.216512148967,None,,,,,,,,,,,,,,,,None,None,None,,None,None,374.50067549501546,None,3,1,1.1522735680337064,374.50067549501546,None,375.6510243188939,None,None,None,None,,30,001,2023_Jan_24_1321,searchDisc5,2021.2.3,60.05429772721923,
images/exp2b_trial_8_colour2_distractors19_r.png,r,3,2,19,0,,,,,0,140,140,140,,,,,,,,,,,,,,,,,,,,,,,,,,,,,,,,,,,,,,,,,,,375.66899137897417,None,2,0.2540671280003153,375.66899137897417,None,,,,,,,,,,,,,,,,None,None,None,,None,None,375.96632314496674,None,3,1,0.6381296109757386,375.96632314496674,None,376.6010116228834,None,None,None,None,,30,001,2023_Jan_24_1321,searchDisc5,2021.2.3,60.05429772721923,
images/exp2a_trial_73_colour2_distractors31_r.png,r,3,2,31,0,,,,,0,141,141,141,,,,,,,,,,,,,,,,,,,,,,,,,,,,,,,,,,,,,,,,,,,376.6157359050121,None,2,0.2695528749609366,376.6157359050121,None,,,,,,,,,,,,,,,,None,None,None,,None,None,376.93349748197943,None,3,1,0.7642050979775377,376.93349748197943,None,377.70101772290656,None,None,None,None,,30,001,2023_Jan_24_1321,searchDisc5,2021.2.3,60.05429772721923,
images/exp1a_trial_243_colour1_distractors31_l.png,l,1,1,31,0,,,,,0,142,142,142,,,,,,,,,,,,,,,,,,,,,,,,,,,,,,,,,,,,,,,,,,,377.71661167097045,None,2,0.5200461620115675,377.71661167097045,None,,,,,,,,,,,,,,,,None,None,None,,None,None,378.2856219019741,None,1,1,0.7684493280248716,378.2856219019741,None,379.05098560587504,None,None,None,None,,30,001,2023_Jan_24_1321,searchDisc5,2021.2.3,60.05429772721923,
images/exp2a_trial_90_colour3_distractors4_l.png,l,1,3,4,0,,,,,0,143,143,143,,,,,,,,,,,,,,,,,,,,,,,,,,,,,,,,,,,,,,,,,,,379.0666645260062,None,2,0.23700728901894763,379.0666645260062,None,,,,,,,,,,,,,,,,None,None,None,,None,None,379.3511676249909,None,1,1,0.8229009329807013,379.3511676249909,None,380.1667276168708,None,None,None,None,,30,001,2023_Jan_24_1321,searchDisc5,2021.2.3,60.05429772721923,
images/exp1a_trial_9_colour2_distractors31_r.png,r,3,2,31,0,,,,,0,144,144,144,,,,,,,,,,,,,,,,,,,,,,,,,,,,,,,,,,,,,,,,,,,380.18342832499184,None,2,0.23875640804180875,380.18342832499184,None,,,,,,,,,,,,,,,,None,None,None,,None,None,380.4677201129962,None,3,1,0.7151933510322124,380.4677201129962,None,381.1828530338942,None,None,None,None,,30,001,2023_Jan_24_1321,searchDisc5,2021.2.3,60.05429772721923,
images/exp1a_trial_137_colour2_distractors31_r.png,r,3,2,31,0,,,,,0,145,145,145,,,,,,,,,,,,,,,,,,,,,,,,,,,,,,,,,,,,,,,,,,,381.2003369560116,None,2,0.24039304297184572,381.2003369560116,None,,,,,,,,,,,,,,,,None,None,None,,None,None,381.4837051269715,None,3,1,0.6492862540180795,381.4837051269715,None,382.13449890092016,None,None,None,None,,30,001,2023_Jan_24_1321,searchDisc5,2021.2.3,60.05429772721923,
images/exp2b_trial_183_colour2_distractors19_l.png,l,1,2,19,0,,,,,0,146,146,146,,,,,,,,,,,,,,,,,,,,,,,,,,,,,,,,,,,,,,,,,,,382.15004742500605,None,2,0.3033784520230256,382.15004742500605,None,,,,,,,,,,,,,,,,None,None,None,,None,None,382.50080113398144,None,1,1,0.75543685402954,382.50080113398144,None,383.2511172719067,None,None,None,None,,30,001,2023_Jan_24_1321,searchDisc5,2021.2.3,60.05429772721923,
images/exp2a_trial_151_colour2_distractors19_l.png,l,1,2,19,0,,,,,0,147,147,147,,,,,,,,,,,,,,,,,,,,,,,,,,,,,,,,,,,,,,,,,,,383.2667413279996,None,2,0.23879082698840648,383.2667413279996,None,,,,,,,,,,,,,,,,None,None,None,,None,None,383.5503795029945,None,1,1,1.0668657760252245,383.5503795029945,None,384.6179346538964,None,None,None,None,,30,001,2023_Jan_24_1321,searchDisc5,2021.2.3,60.05429772721923,
images/exp2c_trial_97_colour1_distractors4_r.png,r,3,1,4,0,,,,,0,148,148,148,,,,,,,,,,,,,,,,,,,,,,,,,,,,,,,,,,,,,,,,,,,384.6343462759978,None,2,0.15139953896868974,384.6343462759978,None,,,,,,,,,,,,,,,,None,None,None,,None,None,384.83598442497896,None,3,1,0.6921661170199513,384.83598442497896,None,385.5179005428916,None,None,None,None,,30,001,2023_Jan_24_1321,searchDisc5,2021.2.3,60.05429772721923,
images/exp2a_trial_132_colour1_distractors31_r.png,r,3,1,31,0,,,,,0,149,149,149,,,,,,,,,,,,,,,,,,,,,,,,,,,,,,,,,,,,,,,,,,,385.53361187002156,None,2,0.2376656560227275,385.53361187002156,None,,,,,,,,,,,,,,,,None,None,None,,None,None,385.82010334398365,None,3,1,0.6342005500337109,385.82010334398365,None,386.4503353329026,None,None,None,None,,30,001,2023_Jan_24_1321,searchDisc5,2021.2.3,60.05429772721923,
images/exp1a_trial_231_colour2_distractors9_r.png,r,3,2,9,0,,,,,0,150,150,150,,,,,,,,,,,,,,,,,,,,,,,,,,,,,,,,,,,,,,,,,,,386.46772180701373,None,2,0.3066393240005709,386.46772180701373,None,,,,,,,,,,,,,,,,None,None,None,,None,None,386.81740084302146,None,3,1,0.6518667460186407,386.81740084302146,None,387.467067276896,None,None,None,None,,30,001,2023_Jan_24_1321,searchDisc5,2021.2.3,60.05429772721923,
images/exp1a_trial_11_colour3_distractors4_r.png,r,3,3,4,0,,,,,0,151,151,151,,,,,,,,,,,,,,,,,,,,,,,,,,,,,,,,,,,,,,,,,,,387.48575983499177,None,2,0.25512778601842,387.48575983499177,None,,,,,,,,,,,,,,,,None,None,None,,None,None,387.78387386299437,None,3,1,0.7884967100108042,387.78387386299437,None,388.5670223249006,None,None,None,None,,30,001,2023_Jan_24_1321,searchDisc5,2021.2.3,60.05429772721923,
images/exp1a_trial_72_colour2_distractors19_r.png,r,3,2,19,0,,,,,0,152,152,152,,,,,,,,,,,,,,,,,,,,,,,,,,,,,,,,,,,,,,,,,,,388.58627182396594,None,2,0.25522837904281914,388.58627182396594,None,,,,,,,,,,,,,,,,None,None,None,,None,None,388.8837494259933,None,3,1,0.6173637760221027,388.8837494259933,None,389.50020763890353,None,None,None,None,,30,001,2023_Jan_24_1321,searchDisc5,2021.2.3,60.05429772721923,
images/exp1a_trial_187_colour3_distractors9_l.png,l,1,3,9,0,,,,,0,153,153,153,,,,,,,,,,,,,,,,,,,,,,,,,,,,,,,,,,,,,,,,,,,389.51740725297714,None,2,0.25665615196339786,389.51740725297714,None,,,,,,,,,,,,,,,,None,None,None,,None,None,389.81964131002314,None,1,1,0.9533515060320497,389.81964131002314,None,390.76793755691034,None,None,None,None,,30,001,2023_Jan_24_1321,searchDisc5,2021.2.3,60.05429772721923,
images/exp2a_trial_49_colour1_distractors9_l.png,l,1,1,9,0,,,,,0,154,154,154,,,,,,,,,,,,,,,,,,,,,,,,,,,,,,,,,,,,,,,,,,,390.7850494509912,None,2,0.23692083702189848,390.7850494509912,None,,,,,,,,,,,,,,,,None,None,None,,None,None,391.06797778699547,None,1,1,0.6566618659999222,391.06797778699547,None,391.71808061586927,None,None,None,None,,30,001,2023_Jan_24_1321,searchDisc5,2021.2.3,60.05429772721923,
images/exp2b_trial_167_colour2_distractors9_r.png,r,3,2,9,0,,,,,0,155,155,155,,,,,,,,,,,,,,,,,,,,,,,,,,,,,,,,,,,,,,,,,,,391.7348220620188,None,2,0.2695468179881573,391.7348220620188,None,,,,,,,,,,,,,,,,None,None,None,,None,None,392.0506191540044,None,3,1,0.673366344999522,392.0506191540044,None,392.7171350199031,None,None,None,None,,30,001,2023_Jan_24_1321,searchDisc5,2021.2.3,60.05429772721923,
images/exp1a_trial_153_colour3_distractors1_l.png,l,1,3,1,0,,,,,0,156,156,156,,,,,,,,,,,,,,,,,,,,,,,,,,,,,,,,,,,,,,,,,,,392.7338475889992,None,2,0.23755594698013738,392.7338475889992,None,,,,,,,,,,,,,,,,None,None,None,,None,None,393.01825326500693,None,1,1,0.7401687439996749,393.01825326500693,None,393.751425781881,None,None,None,None,,30,001,2023_Jan_24_1321,searchDisc5,2021.2.3,60.05429772721923,
images/exp2c_trial_168_colour2_distractors19_r.png,r,3,2,19,0,,,,,0,157,157,157,,,,,,,,,,,,,,,,,,,,,,,,,,,,,,,,,,,,,,,,,,,393.7670848770067,None,2,0.28684284299379215,393.7670848770067,None,,,,,,,,,,,,,,,,None,None,None,,None,None,394.1010498779942,None,3,1,0.8388253090088256,394.1010498779942,None,394.9347548728809,None,None,None,None,,30,001,2023_Jan_24_1321,searchDisc5,2021.2.3,60.05429772721923,
images/exp2b_trial_185_colour3_distractors1_l.png,l,1,3,1,0,,,,,0,158,158,158,,,,,,,,,,,,,,,,,,,,,,,,,,,,,,,,,,,,,,,,,,,394.950482122018,None,2,0.2530672050197609,394.950482122018,None,,,,,,,,,,,,,,,,None,None,None,,None,None,395.250651180977,None,1,1,0.6253407609765418,395.250651180977,None,395.8682361458894,None,None,None,None,,30,001,2023_Jan_24_1321,searchDisc5,2021.2.3,60.05429772721923,
images/exp2a_trial_248_colour2_distractors31_l.png,l,1,2,31,0,,,,,0,159,159,159,,,,,,,,,,,,,,,,,,,,,,,,,,,,,,,,,,,,,,,,,,,395.88320373697206,None,2,0.2386179490131326,395.88320373697206,None,,,,,,,,,,,,,,,,None,None,None,,None,None,396.1721312979935,None,1,1,0.9783461639890447,396.1721312979935,None,397.15052482690663,None,None,None,None,,30,001,2023_Jan_24_1321,searchDisc5,2021.2.3,60.05429772721923,
images/exp2c_trial_118_colour2_distractors9_l.png,l,1,2,9,0,,,,,0,160,160,160,,,,,,,,,,,,,,,,,,,,,,,,,,,,,,,,,,,,,,,,,,,397.17007904400816,None,2,0.321029921004083,397.17007904400816,None,,,,,,,,,,,,,,,,None,None,None,,None,None,397.5372269289801,None,1,1,0.6385325259761885,397.5372269289801,None,398.1672874068725,None,None,None,None,,30,001,2023_Jan_24_1321,searchDisc5,2021.2.3,60.05429772721923,
images/exp2c_trial_155_colour3_distractors9_l.png,l,1,3,9,0,,,,,0,161,161,161,,,,,,,,,,,,,,,,,,,,,,,,,,,,,,,,,,,,,,,,,,,398.18438434798736,None,2,0.2407456579967402,398.18438434798736,None,,,,,,,,,,,,,,,,None,None,None,,None,None,398.4676262619905,None,1,1,0.8527013700222597,398.4676262619905,None,399.317326981877,None,None,None,None,,30,001,2023_Jan_24_1321,searchDisc5,2021.2.3,60.05429772721923,
images/exp2c_trial_101_colour2_distractors1_r.png,r,3,2,1,0,,,,,0,162,162,162,,,,,,,,,,,,,,,,,,,,,,,,,,,,,,,,,,,,,,,,,,,399.33387057099026,None,2,0.20657881803344935,399.33387057099026,None,,,,,,,,,,,,,,,,None,None,None,,None,None,399.58728922798764,None,3,1,0.6224699069862254,399.58728922798764,None,400.20171645989177,None,None,None,None,,30,001,2023_Jan_24_1321,searchDisc5,2021.2.3,60.05429772721923,
images/exp1a_trial_313_colour3_distractors1_l.png,l,1,3,1,0,,,,,0,163,163,163,,,,,,,,,,,,,,,,,,,,,,,,,,,,,,,,,,,,,,,,,,,400.2178411890054,None,2,0.25401222897926345,400.2178411890054,None,,,,,,,,,,,,,,,,None,None,None,,None,None,400.5182015179889,None,1,1,0.6061956679914147,400.5182015179889,None,401.1173384349211,None,None,None,None,,30,001,2023_Jan_24_1321,searchDisc5,2021.2.3,60.05429772721923,
images/exp2b_trial_56_colour2_distractors31_l.png,l,1,2,31,0,,,,,0,164,164,164,,,,,,,,,,,,,,,,,,,,,,,,,,,,,,,,,,,,,,,,,,,401.1339268410229,None,2,0.20648483803961426,401.1339268410229,None,,,,,,,,,,,,,,,,None,None,None,,None,None,401.384588779998,None,1,1,0.8027709539746866,401.384588779998,None,402.1850085618906,None,None,None,None,,30,001,2023_Jan_24_1321,searchDisc5,2021.2.3,60.05429772721923,
images/exp2a_trial_22_colour2_distractors9_l.png,l,1,2,9,0,,,,,0,165,165,165,,,,,,,,,,,,,,,,,,,,,,,,,,,,,,,,,,,,,,,,,,,402.20060640299926,None,2,0.18849940004292876,402.20060640299926,None,,,,,,,,,,,,,,,,None,None,None,,None,None,402.4351360530127,None,1,1,0.7992631829692982,402.4351360530127,None,403.23404145987007,None,None,None,None,,30,001,2023_Jan_24_1321,searchDisc5,2021.2.3,60.05429772721923,
images/exp2b_trial_141_colour3_distractors19_r.png,r,3,3,19,0,,,,,0,166,166,166,,,,,,,,,,,,,,,,,,,,,,,,,,,,,,,,,,,,,,,,,,,403.250491298968,None,2,0.253473499964457,403.250491298968,None,,,,,,,,,,,,,,,,None,None,None,,None,None,403.55061913997633,None,3,1,0.5901558799669147,403.55061913997633,None,404.13411552890904,None,None,None,None,,30,001,2023_Jan_24_1321,searchDisc5,2021.2.3,60.05429772721923,
images/exp2a_trial_31_colour0_distractors0_l.png,l,1,0,0,0,,,,,0,167,167,167,,,,,,,,,,,,,,,,,,,,,,,,,,,,,,,,,,,,,,,,,,,404.15033919899724,None,2,0.2853629169985652,404.15033919899724,None,,,,,,,,,,,,,,,,None,None,None,,None,None,404.4863367470098,None,1,1,0.7574052470154129,404.4863367470098,None,405.23414102087264,None,None,None,None,,30,001,2023_Jan_24_1321,searchDisc5,2021.2.3,60.05429772721923,
images/exp2a_trial_220_colour3_distractors19_l.png,l,1,3,19,0,,,,,0,168,168,168,,,,,,,,,,,,,,,,,,,,,,,,,,,,,,,,,,,,,,,,,,,405.25041003501974,None,2,0.2378952989820391,405.25041003501974,None,,,,,,,,,,,,,,,,None,None,None,,None,None,405.53405709698563,None,1,1,0.837671072978992,405.53405709698563,None,406.3674148639082,None,None,None,None,,30,001,2023_Jan_24_1321,searchDisc5,2021.2.3,60.05429772721923,
images/exp2a_trial_300_colour3_distractors9_r.png,r,3,3,9,0,,,,,0,169,169,169,,,,,,,,,,,,,,,,,,,,,,,,,,,,,,,,,,,,,,,,,,,406.3847534619854,None,2,0.1887963109766133,406.3847534619854,None,,,,,,,,,,,,,,,,None,None,None,,None,None,406.61880776501494,None,3,1,0.6374958889791742,406.61880776501494,None,407.2508506329148,None,None,None,None,,30,001,2023_Jan_24_1321,searchDisc5,2021.2.3,60.05429772721923,
images/exp2a_trial_111_colour1_distractors1_l.png,l,1,1,1,0,,,,,0,170,170,170,,,,,,,,,,,,,,,,,,,,,,,,,,,,,,,,,,,,,,,,,,,407.26836409798125,None,2,0.35411703697172925,407.26836409798125,None,,,,,,,,,,,,,,,,None,None,None,,None,None,407.66771178902127,None,1,1,0.5900967770139687,407.66771178902127,None,408.2508259528666,None,None,None,None,,30,001,2023_Jan_24_1321,searchDisc5,2021.2.3,60.05429772721923,
images/exp2a_trial_7_colour2_distractors9_r.png,r,3,2,9,0,,,,,0,171,171,171,,,,,,,,,,,,,,,,,,,,,,,,,,,,,,,,,,,,,,,,,,,408.2675075000152,None,2,0.3220901460153982,408.2675075000152,None,,,,,,,,,,,,,,,,None,None,None,,None,None,408.63542884297203,None,3,1,0.7176195159554482,408.63542884297203,None,409.3509787639021,None,None,None,None,,30,001,2023_Jan_24_1321,searchDisc5,2021.2.3,60.05429772721923,
images/exp2b_trial_294_colour2_distractors4_r.png,r,3,2,4,0,,,,,0,172,172,172,,,,,,,,,,,,,,,,,,,,,,,,,,,,,,,,,,,,,,,,,,,409.3702202899731,None,2,0.27108947501983494,409.3702202899731,None,,,,,,,,,,,,,,,,None,None,None,,None,None,409.68471674696775,None,3,1,0.6394326399895363,409.68471674696775,None,410.3175652388716,None,None,None,None,,30,001,2023_Jan_24_1321,searchDisc5,2021.2.3,60.05429772721923,
images/exp2b_trial_293_colour2_distractors1_r.png,r,3,2,1,0,,,,,0,173,173,173,,,,,,,,,,,,,,,,,,,,,,,,,,,,,,,,,,,,,,,,,,,410.33416370797204,None,2,0.2720973740215413,410.33416370797204,None,,,,,,,,,,,,,,,,None,None,None,,None,None,410.65139646996977,None,3,1,0.5400202380260453,410.65139646996977,None,411.1853734768927,None,None,None,None,,30,001,2023_Jan_24_1321,searchDisc5,2021.2.3,60.05429772721923,
images/exp2b_trial_84_colour2_distractors1_l.png,l,1,2,1,0,,,,,0,174,174,174,,,,,,,,,,,,,,,,,,,,,,,,,,,,,,,,,,,,,,,,,,,411.2016412439989,None,2,0.2534013710101135,411.2016412439989,None,,,,,,,,,,,,,,,,None,None,None,,None,None,411.5010487289983,None,1,1,0.7233770120074041,411.5010487289983,None,412.2176503169001,None,None,None,None,,30,001,2023_Jan_24_1321,searchDisc5,2021.2.3,60.05429772721923,
images/exp1a_trial_212_colour2_distractors1_l.png,l,1,2,1,0,,,,,0,175,175,175,,,,,,,,,,,,,,,,,,,,,,,,,,,,,,,,,,,,,,,,,,,412.23517602396896,None,2,0.20400326402159408,412.23517602396896,None,,,,,,,,,,,,,,,,None,None,None,,None,None,412.4867749729892,None,1,1,1.3260790380300023,412.4867749729892,None,413.8020209188806,None,None,None,None,,30,001,2023_Jan_24_1321,searchDisc5,2021.2.3,60.05429772721923,
images/exp1a_trial_293_colour2_distractors1_r.png,r,3,2,1,0,,,,,0,176,176,176,,,,,,,,,,,,,,,,,,,,,,,,,,,,,,,,,,,,,,,,,,,413.8197945029824,None,2,0.26821679895510897,413.8197945029824,None,,,,,,,,,,,,,,,,None,None,None,,None,None,414.13506220601266,None,3,1,0.6398099720245227,414.13506220601266,None,414.7676975688781,None,None,None,None,,30,001,2023_Jan_24_1321,searchDisc5,2021.2.3,60.05429772721923,
images/exp2c_trial_242_colour1_distractors19_l.png,l,1,1,19,0,,,,,0,177,177,177,,,,,,,,,,,,,,,,,,,,,,,,,,,,,,,,,,,,,,,,,,,414.78438402799657,None,2,0.2885283269570209,414.78438402799657,None,,,,,,,,,,,,,,,,None,None,None,,None,None,415.1182420779951,None,1,1,0.6703507350175641,415.1182420779951,None,415.7844044519123,None,None,None,None,,30,001,2023_Jan_24_1321,searchDisc5,2021.2.3,60.05429772721923,
images/exp2b_trial_25_colour3_distractors1_l.png,l,1,3,1,0,,,,,0,178,178,178,,,,,,,,,,,,,,,,,,,,,,,,,,,,,,,,,,,,,,,,,,,415.80154448299436,None,2,0.22110562399029732,415.80154448299436,None,,,,,,,,,,,,,,,,None,None,None,,None,None,416.07009713497246,None,1,1,0.7901287850108929,416.07009713497246,None,416.8512326898752,None,None,None,None,,30,001,2023_Jan_24_1321,searchDisc5,2021.2.3,60.05429772721923,
images/exp1a_trial_117_colour2_distractors4_l.png,l,1,2,4,0,,,,,0,179,179,179,,,,,,,,,,,,,,,,,,,,,,,,,,,,,,,,,,,,,,,,,,,416.8698310669861,None,2,0.25534925900865346,416.8698310669861,None,,,,,,,,,,,,,,,,None,None,None,,None,None,417.1682401529979,None,1,1,0.7208992799860425,417.1682401529979,None,417.8841127479216,None,None,None,None,,30,001,2023_Jan_24_1321,searchDisc5,2021.2.3,60.05429772721923,
images/exp2c_trial_2_colour1_distractors9_r.png,r,3,1,9,0,,,,,0,180,180,180,,,,,,,,,,,,,,,,,,,,,,,,,,,,,,,,,,,,,,,,,,,417.9010853159707,None,2,0.23774891800712794,417.9010853159707,None,,,,,,,,,,,,,,,,None,None,None,,None,None,418.18507249001414,None,3,1,0.7388326560030691,418.18507249001414,None,418.91785646888894,None,None,None,None,,30,001,2023_Jan_24_1321,searchDisc5,2021.2.3,60.05429772721923,
images/exp2c_trial_229_colour2_distractors1_r.png,r,3,2,1,0,,,,,0,181,181,181,,,,,,,,,,,,,,,,,,,,,,,,,,,,,,,,,,,,,,,,,,,418.93533503002254,None,2,0.23759051295928657,418.93533503002254,None,,,,,,,,,,,,,,,,None,None,None,,None,None,419.21729176299414,None,3,1,0.6402497100061737,419.21729176299414,None,419.8512242979021,None,None,None,None,,30,001,2023_Jan_24_1321,searchDisc5,2021.2.3,60.05429772721923,
images/exp1a_trial_314_colour3_distractors4_l.png,l,1,3,4,0,,,,,0,182,182,182,,,,,,,,,,,,,,,,,,,,,,,,,,,,,,,,,,,,,,,,,,,419.8679256979958,None,2,0.25521121895872056,419.8679256979958,None,,,,,,,,,,,,,,,,None,None,None,,None,None,420.1683496320038,None,1,1,0.5717768959584646,420.1683496320038,None,420.7346977688838,None,None,None,None,,30,001,2023_Jan_24_1321,searchDisc5,2021.2.3,60.05429772721923,
images/exp2c_trial_189_colour3_distractors31_l.png,l,1,3,31,0,,,,,0,183,183,183,,,,,,,,,,,,,,,,,,,,,,,,,,,,,,,,,,,,,,,,,,,420.7518874660018,None,2,0.25522172497585416,420.7518874660018,None,,,,,,,,,,,,,,,,None,None,None,,None,None,421.0515846469789,None,1,1,0.837182704010047,421.0515846469789,None,421.88560610486894,None,None,None,None,,30,001,2023_Jan_24_1321,searchDisc5,2021.2.3,60.05429772721923,
images/exp2c_trial_133_colour2_distractors1_r.png,r,3,2,1,0,,,,,0,184,184,184,,,,,,,,,,,,,,,,,,,,,,,,,,,,,,,,,,,,,,,,,,,421.9019499649876,None,2,0.2543953909771517,421.9019499649876,None,,,,,,,,,,,,,,,,None,None,None,,None,None,422.2014255269896,None,3,1,0.7386638079769909,422.2014255269896,None,422.9342704538838,None,None,None,None,,30,001,2023_Jan_24_1321,searchDisc5,2021.2.3,60.05429772721923,
images/exp1a_trial_150_colour2_distractors9_l.png,l,1,2,9,0,,,,,0,185,185,185,,,,,,,,,,,,,,,,,,,,,,,,,,,,,,,,,,,,,,,,,,,422.95192670897814,None,2,0.322031702962704,422.95192670897814,None,,,,,,,,,,,,,,,,None,None,None,,None,None,423.3187111149891,None,1,1,0.7695849240408279,423.3187111149891,None,424.0839713598951,None,None,None,None,,30,001,2023_Jan_24_1321,searchDisc5,2021.2.3,60.05429772721923,
images/exp1a_trial_81_colour1_distractors9_l.png,l,1,1,9,0,,,,,0,186,186,186,,,,,,,,,,,,,,,,,,,,,,,,,,,,,,,,,,,,,,,,,,,424.101446243003,None,2,0.24040011898614466,424.101446243003,None,,,,,,,,,,,,,,,,None,None,None,,None,None,424.3851586129749,None,1,1,0.7193684019730426,424.3851586129749,None,425.1013932288741,None,None,None,None,,30,001,2023_Jan_24_1321,searchDisc5,2021.2.3,60.05429772721923,
images/exp1a_trial_286_colour0_distractors0_r.png,r,3,0,0,0,,,,,0,187,187,187,,,,,,,,,,,,,,,,,,,,,,,,,,,,,,,,,,,,,,,,,,,425.11888272099895,None,2,0.22073242999613285,425.11888272099895,None,,,,,,,,,,,,,,,,None,None,None,,None,None,425.3856223350158,None,3,1,0.6248835459700786,425.3856223350158,None,426.0026910848799,None,None,None,None,,30,001,2023_Jan_24_1321,searchDisc5,2021.2.3,60.05429772721923,
images/exp1a_trial_166_colour2_distractors4_r.png,r,3,2,4,0,,,,,0,188,188,188,,,,,,,,,,,,,,,,,,,,,,,,,,,,,,,,,,,,,,,,,,,426.0186078179977,None,2,0.23657451500184834,426.0186078179977,None,,,,,,,,,,,,,,,,None,None,None,,None,None,426.3024959259783,None,3,1,0.8894087750231847,426.3024959259783,None,427.18486308488065,None,None,None,None,,30,001,2023_Jan_24_1321,searchDisc5,2021.2.3,60.05429772721923,
images/exp2c_trial_114_colour1_distractors19_l.png,l,1,1,19,0,,,,,0,189,189,189,,,,,,,,,,,,,,,,,,,,,,,,,,,,,,,,,,,,,,,,,,,427.201984386018,None,2,0.256111195019912,427.201984386018,None,,,,,,,,,,,,,,,,None,None,None,,None,None,427.5014636790147,None,1,1,0.6359799430356361,427.5014636790147,None,428.1347350949189,None,None,None,None,,30,001,2023_Jan_24_1321,searchDisc5,2021.2.3,60.05429772721923,
images/exp2b_trial_102_colour2_distractors4_r.png,r,3,2,4,0,,,,,0,190,190,190,,,,,,,,,,,,,,,,,,,,,,,,,,,,,,,,,,,,,,,,,,,428.152276289009,None,2,0.27159101801225916,428.152276289009,None,,,,,,,,,,,,,,,,None,None,None,,None,None,428.46825927798636,None,3,1,1.0731432489701547,428.46825927798636,None,429.5358809068683,None,None,None,None,,30,001,2023_Jan_24_1321,searchDisc5,2021.2.3,60.05429772721923,
images/exp1a_trial_251_colour3_distractors9_l.png,l,1,3,9,0,,,,,0,191,191,191,,,,,,,,,,,,,,,,,,,,,,,,,,,,,,,,,,,,,,,,,,,429.55212195398053,None,2,0.30346255598124117,429.55212195398053,None,,,,,,,,,,,,,,,,None,None,None,,None,None,429.9019946909975,None,1,1,0.7051032339804806,429.9019946909975,None,430.6018163848901,None,None,None,None,,30,001,2023_Jan_24_1321,searchDisc5,2021.2.3,60.05429772721923,
images/exp2a_trial_40_colour2_distractors19_r.png,r,3,2,19,0,,,,,0,192,192,192,,,,,,,,,,,,,,,,,,,,,,,,,,,,,,,,,,,,,,,,,,,430.6188105439651,None,2,0.1898339810431935,430.6188105439651,None,,,,,,,,,,,,,,,,None,None,None,,None,None,430.85144279699307,None,3,1,0.8644536859937944,430.85144279699307,None,431.7183680578717,None,None,None,None,,30,001,2023_Jan_24_1321,searchDisc5,2021.2.3,60.05429772721923,
images/exp2b_trial_114_colour1_distractors19_l.png,l,1,1,19,0,,,,,0,193,193,193,,,,,,,,,,,,,,,,,,,,,,,,,,,,,,,,,,,,,,,,,,,431.7348474430037,None,2,0.20234081899980083,431.7348474430037,None,,,,,,,,,,,,,,,,None,None,None,,None,None,431.98690985597204,None,1,1,0.7873601220198907,431.98690985597204,None,432.76823364991,None,None,None,None,,30,001,2023_Jan_24_1321,searchDisc5,2021.2.3,60.05429772721923,
images/exp2a_trial_27_colour3_distractors9_l.png,l,1,3,9,0,,,,,0,194,194,194,,,,,,,,,,,,,,,,,,,,,,,,,,,,,,,,,,,,,,,,,,,432.78668600297533,None,2,0.2406022569630295,432.78668600297533,None,,,,,,,,,,,,,,,,None,None,None,,None,None,433.0713674540166,None,1,1,0.7033995980164036,433.0713674540166,None,433.768313591904,None,None,None,None,,30,001,2023_Jan_24_1321,searchDisc5,2021.2.3,60.05429772721923,
images/exp2c_trial_153_colour3_distractors1_l.png,l,1,3,1,0,,,,,0,195,195,195,,,,,,,,,,,,,,,,,,,,,,,,,,,,,,,,,,,,,,,,,,,433.7842725890223,None,2,0.2749844450154342,433.7842725890223,None,,,,,,,,,,,,,,,,None,None,None,,None,None,434.1026502730092,None,1,1,0.6709058089763857,434.1026502730092,None,434.7683223628672,None,None,None,None,,30,001,2023_Jan_24_1321,searchDisc5,2021.2.3,60.05429772721923,
images/exp2b_trial_151_colour2_distractors19_l.png,l,1,2,19,0,,,,,0,196,196,196,,,,,,,,,,,,,,,,,,,,,,,,,,,,,,,,,,,,,,,,,,,434.7851637940039,None,2,0.2218835669918917,434.7851637940039,None,,,,,,,,,,,,,,,,None,None,None,,None,None,435.0547138369875,None,1,1,0.5533652279991657,435.0547138369875,None,435.60275135289413,None,None,None,None,,30,001,2023_Jan_24_1321,searchDisc5,2021.2.3,60.05429772721923,
images/exp2b_trial_145_colour1_distractors9_l.png,l,1,1,9,0,,,,,0,197,197,197,,,,,,,,,,,,,,,,,,,,,,,,,,,,,,,,,,,,,,,,,,,435.61898117000237,None,2,0.20549494202714413,435.61898117000237,None,,,,,,,,,,,,,,,,None,None,None,,None,None,435.8705400910112,None,1,1,0.6726686260080896,435.8705400910112,None,436.5352239819011,None,None,None,None,,30,001,2023_Jan_24_1321,searchDisc5,2021.2.3,60.05429772721923,
images/exp2c_trial_198_colour2_distractors4_r.png,r,3,2,4,0,,,,,0,198,198,198,,,,,,,,,,,,,,,,,,,,,,,,,,,,,,,,,,,,,,,,,,,436.5522576009971,None,2,0.2551855489728041,436.5522576009971,None,,,,,,,,,,,,,,,,None,None,None,,None,None,436.8539756310056,None,3,1,0.6866793269873597,436.8539756310056,None,437.53511881689775,None,None,None,None,,30,001,2023_Jan_24_1321,searchDisc5,2021.2.3,60.05429772721923,
images/exp2a_trial_296_colour2_distractors19_r.png,r,3,2,19,0,,,,,0,199,199,199,,,,,,,,,,,,,,,,,,,,,,,,,,,,,,,,,,,,,,,,,,,437.55373000202235,None,2,0.2551295399898663,437.55373000202235,None,,,,,,,,,,,,,,,,None,None,None,,None,None,437.85238020698307,None,3,1,0.7313375569647178,437.85238020698307,None,438.5849878668785,None,None,None,None,,30,001,2023_Jan_24_1321,searchDisc5,2021.2.3,60.05429772721923,
images/exp2b_trial_162_colour1_distractors9_r.png,r,3,1,9,0,,,,,0,200,200,200,,,,,,,,,,,,,,,,,,,,,,,,,,,,,,,,,,,,,,,,,,,438.6044768160209,None,2,0.27137624903116375,438.6044768160209,None,,,,,,,,,,,,,,,,None,None,None,,None,None,438.9192714029923,None,3,1,0.6394588029943407,438.9192714029923,None,439.5528281909181,None,None,None,None,,30,001,2023_Jan_24_1321,searchDisc5,2021.2.3,60.05429772721923,
images/exp2c_trial_193_colour1_distractors4_r.png,r,3,1,4,0,,,,,0,201,201,201,,,,,,,,,,,,,,,,,,,,,,,,,,,,,,,,,,,,,,,,,,,439.56907647597836,None,2,0.22068199299974367,439.56907647597836,None,,,,,,,,,,,,,,,,None,None,None,,None,None,439.837777526991,None,3,1,0.605569718987681,439.837777526991,None,440.4352219398832,None,None,None,None,,30,001,2023_Jan_24_1321,searchDisc5,2021.2.3,60.05429772721923,
images/exp2a_trial_196_colour1_distractors31_r.png,r,3,1,31,0,,,,,0,202,202,202,,,,,,,,,,,,,,,,,,,,,,,,,,,,,,,,,,,,,,,,,,,440.4516247379943,None,2,0.2377264199894853,440.4516247379943,None,,,,,,,,,,,,,,,,None,None,None,,None,None,440.7373593469965,None,3,1,0.7035073509905487,440.7373593469965,None,441.4352519429056,None,None,None,None,,30,001,2023_Jan_24_1321,searchDisc5,2021.2.3,60.05429772721923,
images/exp2b_trial_155_colour3_distractors9_l.png,l,1,3,9,0,,,,,0,203,203,203,,,,,,,,,,,,,,,,,,,,,,,,,,,,,,,,,,,,,,,,,,,441.45253723399946,None,2,0.24079447699477896,441.45253723399946,None,,,,,,,,,,,,,,,,None,None,None,,None,None,441.73827210697345,None,1,1,0.6853013499639928,441.73827210697345,None,442.4183641218813,None,None,None,None,,30,001,2023_Jan_24_1321,searchDisc5,2021.2.3,60.05429772721923,
images/exp2a_trial_210_colour1_distractors19_l.png,l,1,1,19,0,,,,,0,204,204,204,,,,,,,,,,,,,,,,,,,,,,,,,,,,,,,,,,,,,,,,,,,442.4371123579913,None,2,0.2380255659809336,442.4371123579913,None,,,,,,,,,,,,,,,,None,None,None,,None,None,442.71912666602293,None,1,1,0.8211490500252694,442.71912666602293,None,443.53518155288185,None,None,None,None,,30,001,2023_Jan_24_1321,searchDisc5,2021.2.3,60.05429772721923,
images/exp1a_trial_71_colour2_distractors9_r.png,r,3,2,9,0,,,,,0,205,205,205,,,,,,,,,,,,,,,,,,,,,,,,,,,,,,,,,,,,,,,,,,,443.55215827398933,None,2,0.22097851696889848,443.55215827398933,None,,,,,,,,,,,,,,,,None,None,None,,None,None,443.81877750199055,None,3,1,0.6042450609966181,443.81877750199055,None,444.4186386438785,None,None,None,None,,30,001,2023_Jan_24_1321,searchDisc5,2021.2.3,60.05429772721923,
images/exp2b_trial_247_colour2_distractors19_l.png,l,1,2,19,0,,,,,0,206,206,206,,,,,,,,,,,,,,,,,,,,,,,,,,,,,,,,,,,,,,,,,,,444.4371953639784,None,2,0.2551855809870176,444.4371953639784,None,,,,,,,,,,,,,,,,None,None,None,,None,None,444.73536115902243,None,1,1,0.7371980610187165,444.73536115902243,None,445.4687322789221,None,None,None,None,,30,001,2023_Jan_24_1321,searchDisc5,2021.2.3,60.05429772721923,
images/exp2b_trial_26_colour3_distractors4_l.png,l,1,3,4,0,,,,,0,207,207,207,,,,,,,,,,,,,,,,,,,,,,,,,,,,,,,,,,,,,,,,,,,445.48594572598813,None,2,0.2718835609848611,445.48594572598813,None,,,,,,,,,,,,,,,,None,None,None,,None,None,445.8018741590204,None,1,1,0.6909006829955615,445.8018741590204,None,446.4862925718888,None,None,None,None,,30,001,2023_Jan_24_1321,searchDisc5,2021.2.3,60.05429772721923,
images/exp2a_trial_122_colour3_distractors4_l.png,l,1,3,4,0,,,,,0,208,208,208,,,,,,,,,,,,,,,,,,,,,,,,,,,,,,,,,,,,,,,,,,,446.5026688380167,None,2,0.23868578899418935,446.5026688380167,None,,,,,,,,,,,,,,,,None,None,None,,None,None,446.78809031797573,None,1,1,0.6866938819875941,446.78809031797573,None,447.46864421387437,None,None,None,None,,30,001,2023_Jan_24_1321,searchDisc5,2021.2.3,60.05429772721923,
images/exp2b_trial_215_colour2_distractors19_l.png,l,1,2,19,0,,,,,0,209,209,209,,,,,,,,,,,,,,,,,,,,,,,,,,,,,,,,,,,,,,,,,,,447.48514551698463,None,2,0.20651952299522236,447.48514551698463,None,,,,,,,,,,,,,,,,None,None,None,,None,None,447.7384854219854,None,1,1,0.6687522740103304,447.7384854219854,None,448.4019944899017,None,None,None,None,,30,001,2023_Jan_24_1321,searchDisc5,2021.2.3,60.05429772721923,
images/exp1a_trial_220_colour3_distractors19_l.png,l,1,3,19,0,,,,,0,210,210,210,,,,,,,,,,,,,,,,,,,,,,,,,,,,,,,,,,,,,,,,,,,448.4185722009861,None,2,0.18777319497894496,448.4185722009861,None,,,,,,,,,,,,,,,,None,None,None,,None,None,448.654112956021,None,1,1,0.569137929007411,448.654112956021,None,449.2186113429023,None,None,None,None,,30,001,2023_Jan_24_1321,searchDisc5,2021.2.3,60.05429772721923,
images/exp1a_trial_255_colour0_distractors0_l.png,l,1,0,0,0,,,,,0,211,211,211,,,,,,,,,,,,,,,,,,,,,,,,,,,,,,,,,,,,,,,,,,,449.2352396309725,None,2,0.20458083401899785,449.2352396309725,None,,,,,,,,,,,,,,,,None,None,None,,None,None,449.4886593139963,None,1,1,0.7078836750006303,449.4886593139963,None,450.18642215391156,None,None,None,None,,30,001,2023_Jan_24_1321,searchDisc5,2021.2.3,60.05429772721923,
images/exp1a_trial_274_colour1_distractors19_l.png,l,1,1,19,0,,,,,0,212,212,212,,,,,,,,,,,,,,,,,,,,,,,,,,,,,,,,,,,,,,,,,,,450.20218368497444,None,2,0.22215148899704218,450.20218368497444,None,,,,,,,,,,,,,,,,None,None,None,,None,None,450.47085959801916,None,1,1,1.417316225997638,450.47085959801916,None,451.885528211901,None,None,None,None,,30,001,2023_Jan_24_1321,searchDisc5,2021.2.3,60.05429772721923,
images/exp2b_trial_223_colour0_distractors0_l.png,l,1,0,0,0,,,,,0,213,213,213,,,,,,,,,,,,,,,,,,,,,,,,,,,,,,,,,,,,,,,,,,,451.9040584709728,None,2,0.23775453498819843,451.9040584709728,None,,,,,,,,,,,,,,,,None,None,None,,None,None,452.18609471298987,None,1,1,0.5395714449696243,452.18609471298987,None,452.7183153518825,None,None,None,None,,30,001,2023_Jan_24_1321,searchDisc5,2021.2.3,60.05429772721923,
images/exp1a_trial_130_colour1_distractors9_r.png,r,3,1,9,0,,,,,0,214,214,214,,,,,,,,,,,,,,,,,,,,,,,,,,,,,,,,,,,,,,,,,,,452.73534805799136,None,2,0.2253429429838434,452.73534805799136,None,,,,,,,,,,,,,,,,None,None,None,,None,None,453.00429371302016,None,3,1,1.133738704957068,453.00429371302016,None,454.1355193308671,None,None,None,None,,30,001,2023_Jan_24_1321,searchDisc5,2021.2.3,60.05429772721923,
images/exp2b_trial_281_colour3_distractors1_l.png,l,1,3,1,0,,,,,0,215,215,215,,,,,,,,,,,,,,,,,,,,,,,,,,,,,,,,,,,,,,,,,,,454.15278925502207,None,2,0.22367302095517516,454.15278925502207,None,,,,,,,,,,,,,,,,None,None,None,,None,None,454.4211370869889,None,1,1,0.6206364370300435,454.4211370869889,None,455.03536037188024,None,None,None,None,,30,001,2023_Jan_24_1321,searchDisc5,2021.2.3,60.05429772721923,
images/exp2c_trial_157_colour3_distractors31_l.png,l,1,3,31,0,,,,,0,216,216,216,,,,,,,,,,,,,,,,,,,,,,,,,,,,,,,,,,,,,,,,,,,455.05479662900325,None,2,0.18864279001718387,455.05479662900325,None,,,,,,,,,,,,,,,,None,None,None,,None,None,455.28794080397347,None,1,1,0.8702486309921369,455.28794080397347,None,456.1531053878833,None,None,None,None,,30,001,2023_Jan_24_1321,searchDisc5,2021.2.3,60.05429772721923,
images/exp2a_trial_118_colour2_distractors9_l.png,l,1,2,9,0,,,,,0,217,217,217,,,,,,,,,,,,,,,,,,,,,,,,,,,,,,,,,,,,,,,,,,,456.16941160697024,None,2,0.17112438898766413,456.16941160697024,None,,,,,,,,,,,,,,,,None,None,None,,None,None,456.387986938993,None,1,1,0.9509116130066104,456.387986938993,None,457.3355260159122,None,None,None,None,,30,001,2023_Jan_24_1321,searchDisc5,2021.2.3,60.05429772721923,
images/exp1a_trial_266_colour3_distractors1_r.png,r,3,3,1,0,,,,,0,218,218,218,,,,,,,,,,,,,,,,,,,,,,,,,,,,,,,,,,,,,,,,,,,457.35294219397474,None,2,0.17200666101416573,457.35294219397474,None,,,,,,,,,,,,,,,,None,None,None,,None,None,457.56970365101006,None,3,1,0.7051591940107755,457.56970365101006,None,458.2682431059191,None,None,None,None,,30,001,2023_Jan_24_1321,searchDisc5,2021.2.3,60.05429772721923,
images/exp1a_trial_123_colour3_distractors9_l.png,l,1,3,9,0,,,,,0,219,219,219,,,,,,,,,,,,,,,,,,,,,,,,,,,,,,,,,,,,,,,,,,,458.2870575429988,None,2,0.17464550700969994,458.2870575429988,None,,,,,,,,,,,,,,,,None,None,None,,None,None,458.50473328400403,None,1,1,0.6683604890131392,458.50473328400403,None,459.1688873279025,None,None,None,None,,30,001,2023_Jan_24_1321,searchDisc5,2021.2.3,60.05429772721923,
images/exp2b_trial_267_colour3_distractors4_r.png,r,3,3,4,0,,,,,0,220,220,220,,,,,,,,,,,,,,,,,,,,,,,,,,,,,,,,,,,,,,,,,,,459.18597194796894,None,2,0.23856479598907754,459.18597194796894,None,,,,,,,,,,,,,,,,None,None,None,,None,None,459.46928943600506,None,3,1,0.6723204369773157,459.46928943600506,None,460.1354877989041,None,None,None,None,,30,001,2023_Jan_24_1321,searchDisc5,2021.2.3,60.05429772721923,
images/exp2b_trial_250_colour3_distractors4_l.png,l,1,3,4,0,,,,,0,221,221,221,,,,,,,,,,,,,,,,,,,,,,,,,,,,,,,,,,,,,,,,,,,460.15309698099736,None,2,0.28745345200877637,460.15309698099736,None,,,,,,,,,,,,,,,,None,None,None,,None,None,460.4858561360161,None,1,1,0.5251820150297135,460.4858561360161,None,461.00348895690405,None,None,None,None,,30,001,2023_Jan_24_1321,searchDisc5,2021.2.3,60.05429772721923,
images/exp2a_trial_34_colour1_distractors9_r.png,r,3,1,9,0,,,,,0,222,222,222,,,,,,,,,,,,,,,,,,,,,,,,,,,,,,,,,,,,,,,,,,,461.01884076098213,None,2,0.2709084990201518,461.01884076098213,None,,,,,,,,,,,,,,,,None,None,None,,None,None,461.33847072697245,None,3,1,0.6534532649675384,461.33847072697245,None,461.98571608589265,None,None,None,None,,30,001,2023_Jan_24_1321,searchDisc5,2021.2.3,60.05429772721923,
images/exp2a_trial_160_colour1_distractors1_r.png,r,3,1,1,0,,,,,0,223,223,223,,,,,,,,,,,,,,,,,,,,,,,,,,,,,,,,,,,,,,,,,,,462.0043201940134,None,2,0.3060676319873892,462.0043201940134,None,,,,,,,,,,,,,,,,None,None,None,,None,None,462.35278962901793,None,3,1,0.6046338029555045,462.35278962901793,None,462.95231656387915,None,None,None,None,,30,001,2023_Jan_24_1321,searchDisc5,2021.2.3,60.05429772721923,
images/exp1a_trial_270_colour3_distractors31_r.png,r,3,3,31,0,,,,,0,224,224,224,,,,,,,,,,,,,,,,,,,,,,,,,,,,,,,,,,,,,,,,,,,462.9689041309757,None,2,0.28777637402527034,462.9689041309757,None,,,,,,,,,,,,,,,,None,None,None,,None,None,463.30318567401264,None,3,1,0.5531276010442525,463.30318567401264,None,463.85233650491574,None,None,None,None,,30,001,2023_Jan_24_1321,searchDisc5,2021.2.3,60.05429772721923,
