ImageFile,targ_side,correctAnswer,colour,distNo,targetType,trials_2.thisRepN,trials_2.thisTrialN,trials_2.thisN,trials_2.thisIndex,trials.thisRepN,trials.thisTrialN,trials.thisN,trials.thisIndex,text_6.started,text_6.stopped,buttonBox.keys,buttonBox.rt,buttonBox.started,buttonBox.stopped,text_7.started,text_7.stopped,buttonBox_3.keys,buttonBox_3.rt,buttonBox_3.started,buttonBox_3.stopped,text_8.started,text_8.stopped,buttonBox_4.keys,buttonBox_4.rt,buttonBox_4.started,buttonBox_4.stopped,text_9.started,text_9.stopped,buttonBox_5.keys,buttonBox_5.rt,buttonBox_5.started,buttonBox_5.stopped,text_2.started,text_2.stopped,buttonBox_6.keys,buttonBox_6.rt,buttonBox_6.started,buttonBox_6.stopped,text_5.started,text_5.stopped,buttonBox_7.keys,buttonBox_7.rt,image_2.started,image_2.stopped,image_3.started,image_3.stopped,buttonBox_8.keys,buttonBox_8.rt,buttonBox_8.started,buttonBox_8.stopped,polygon.started,polygon.stopped,buttonBox_9.keys,buttonBox_9.rt,buttonBox_9.started,buttonBox_9.stopped,image.started,image.stopped,buttonBox_10.keys,buttonBox_10.corr,buttonBox_10.rt,buttonBox_10.started,buttonBox_10.stopped,text_4.started,text_4.stopped,text.started,text.stopped,buttonBox_11.keys,buttonBox_11.rt,buttonBox_11.started,buttonBox_11.stopped,targetTypeInstruction.started,targetTypeInstruction.stopped,buttonBox_2.keys,buttonBox_2.rt,buttonBox_2.started,buttonBox_2.stopped,dispStimuli.started,dispStimuli.stopped,buttonBox_12.keys,buttonBox_12.corr,buttonBox_12.rt,buttonBox_12.started,buttonBox_12.stopped,breakMessage.started,breakMessage.stopped,buttonBox_13.keys,buttonBox_13.started,buttonBox_13.stopped,buttonBox_13.rt,participant,session,date,expName,psychopyVersion,frameRate,
,,,,,,,,,,,,,,48.95245492801769,None,2,47.99131541402312,48.95245492801769,None,,,,,,,,,,,,,,,,,,,,,,,,,,,,,,,,,,,,,,,,,,,,,,,,,,,,,,,,,,,,,,,,,,,,,,,,,,,,,31,001,2023_Jan_24_1415,searchDisc5,2021.2.3,59.81950838459925,
,,,,,,,,,,,,,,,,,,,,96.93454239401035,None,2,42.16760122496635,96.93454239401035,None,,,,,,,,,,,,,,,,,,,,,,,,,,,,,,,,,,,,,,,,,,,,,,,,,,,,,,,,,,,,,,,,,,,,,,,31,001,2023_Jan_24_1415,searchDisc5,2021.2.3,59.81950838459925,
,,,,,,,,,,,,,,,,,,,,,,,,,,139.104365125997,None,2,16.16319338703761,139.104365125997,None,,,,,,,,,,,,,,,,,,,,,,,,,,,,,,,,,,,,,,,,,,,,,,,,,,,,,,,,,,,,,,,,,31,001,2023_Jan_24_1415,searchDisc5,2021.2.3,59.81950838459925,
,,,,,,,,,,,,,,,,,,,,,,,,,,,,,,,,155.26898895401973,None,2,6.947351120994426,155.26898895401973,None,,,,,,,,,,,,,,,,,,,,,,,,,,,,,,,,,,,,,,,,,,,,,,,,,,,,,,,,,,,31,001,2023_Jan_24_1415,searchDisc5,2021.2.3,59.81950838459925,
,,,,,,,,,,,,,,,,,,,,,,,,,,,,,,,,,,,,,,162.21969537105178,None,2,10.114905192982405,163.2051038510399,None,,,,,,,,,,,,,,,,,,,,,,,,,,,,,,,,,,,,,,,,,,,,,,,,,,,,,31,001,2023_Jan_24_1415,searchDisc5,2021.2.3,59.81950838459925,
,,,,,,,,,,,,,,,,,,,,,,,,,,,,,,,,,,,,,,,,,,,,173.3195259310305,None,2,16.88181492500007,,,,,,,,,,,,,,,,,,,,,,,,,,,,,,,,,,,,,,,,,,,,,,,,,31,001,2023_Jan_24_1415,searchDisc5,2021.2.3,59.81950838459925,
,,,,,,,,,,,,,,,,,,,,,,,,,,,,,,,,,,,,,,,,,,,,,,,,193.20371348701883,None,193.20371348701883,None,2,3.747193821996916,193.20371348701883,None,,,,,,,,,,,,,,,,,,,,,,,,,,,,,,,,,,,,,,,,,31,001,2023_Jan_24_1415,searchDisc5,2021.2.3,59.81950838459925,
Practice arrays/exp1a_trial_12_colour3_distractors9_r.png,r,3,,,,0,0,0,5,,,,,,,,,,,,,,,,,,,,,,,,,,,,,,,,,,,,,,,,,,,,,,,196.97021563502494,None,2,6.18677575601032,196.97021563502494,None,203.2230079760193,None,3,1,3.0720132010173984,203.2230079760193,None,206.28706823603716,None,,,,,,,,,,,,,,,,,,,,,,,,,,31,001,2023_Jan_24_1415,searchDisc5,2021.2.3,59.81950838459925,
Practice arrays/exp1a_trial_21_colour2_distractors4_l.png,l,1,,,,0,1,1,9,,,,,,,,,,,,,,,,,,,,,,,,,,,,,,,,,,,,,,,,,,,,,,,208.28922063304344,None,2,1.2970863790251315,208.28922063304344,None,209.63715228805086,None,1,1,1.103446154971607,209.63715228805086,None,210.7374798830133,None,,,,,,,,,,,,,,,,,,,,,,,,,,31,001,2023_Jan_24_1415,searchDisc5,2021.2.3,59.81950838459925,
Practice arrays/exp1a_trial_0_colour1_distractors1_r.png,r,3,,,,0,2,2,0,,,,,,,,,,,,,,,,,,,,,,,,,,,,,,,,,,,,,,,,,,,,,,,212.73965928104008,None,2,0.6478011379949749,212.73965928104008,None,213.43828659004066,None,3,1,1.6360666389809921,213.43828659004066,None,215.0709647940239,None,,,,,,,,,,,,,,,,,,,,,,,,,,31,001,2023_Jan_24_1415,searchDisc5,2021.2.3,59.81950838459925,
Practice arrays/exp1a_trial_16_colour1_distractors4_l.png,l,1,,,,0,3,3,13,,,,,,,,,,,,,,,,,,,,,,,,,,,,,,,,,,,,,,,,,,,,,,,217.07325130299432,None,2,0.9636033109854907,217.07325130299432,None,218.0881886720308,None,1,1,0.8880667560151778,218.0881886720308,None,218.97133686603047,None,,,,,,,,,,,,,,,,,,,,,,,,,,31,001,2023_Jan_24_1415,searchDisc5,2021.2.3,59.81950838459925,
Practice arrays/exp1a_trial_17_colour1_distractors9_l.png,l,1,,,,0,4,4,7,,,,,,,,,,,,,,,,,,,,,,,,,,,,,,,,,,,,,,,,,,,,,,,220.97306267899694,None,2,0.6302259050426073,220.97306267899694,None,221.6563487960375,None,1,1,0.8531870529986918,221.6563487960375,None,222.5045192600228,None,,,,,,,,,,,,,,,,,,,,,,,,,,31,001,2023_Jan_24_1415,searchDisc5,2021.2.3,59.81950838459925,
Practice arrays/exp1a_trial_1_colour1_distractors4_r.png,r,3,,,,0,5,5,1,,,,,,,,,,,,,,,,,,,,,,,,,,,,,,,,,,,,,,,,,,,,,,,224.5068001730251,None,2,0.4803958089905791,224.5068001730251,None,225.03982305299724,None,3,1,1.021792414947413,225.03982305299724,None,226.0547968110186,None,,,,,,,,,,,,,,,,,,,,,,,,,,31,001,2023_Jan_24_1415,searchDisc5,2021.2.3,59.81950838459925,
Practice arrays/exp1a_trial_27_colour3_distractors9_l.png,l,1,,,,0,6,6,12,,,,,,,,,,,,,,,,,,,,,,,,,,,,,,,,,,,,,,,,,,,,,,,228.05676306702662,None,2,0.4991459770244546,228.05676306702662,None,228.60470881604124,None,1,1,0.7190912659862079,228.60470881604124,None,229.32172034902032,None,,,,,,,,,,,,,,,,,,,,,,,,,,31,001,2023_Jan_24_1415,searchDisc5,2021.2.3,59.81950838459925,
Practice arrays/exp1a_trial_23_colour2_distractors19_l.png,l,1,,,,0,7,7,10,,,,,,,,,,,,,,,,,,,,,,,,,,,,,,,,,,,,,,,,,,,,,,,231.3233607489965,None,2,0.6136675840243697,231.3233607489965,None,231.98838319000788,None,1,1,1.0516518999938853,231.98838319000788,None,233.03813722601626,None,,,,,,,,,,,,,,,,,,,,,,,,,,31,001,2023_Jan_24_1415,searchDisc5,2021.2.3,59.81950838459925,
Practice arrays/exp1a_trial_18_colour1_distractors19_l.png,l,1,,,,0,8,8,8,,,,,,,,,,,,,,,,,,,,,,,,,,,,,,,,,,,,,,,,,,,,,,,235.03996461204952,None,2,0.5156031249789521,235.03996461204952,None,235.60719428700395,None,1,1,1.183409063029103,235.60719428700395,None,236.78783008403843,None,,,,,,,,,,,,,,,,,,,,,,,,,,31,001,2023_Jan_24_1415,searchDisc5,2021.2.3,59.81950838459925,
Practice arrays/exp1a_trial_30_colour0_distractors0_r.png,r,3,,,,0,9,9,14,,,,,,,,,,,,,,,,,,,,,,,,,,,,,,,,,,,,,,,,,,,,,,,238.7903902810067,None,2,0.5157940350472927,238.7903902810067,None,239.35736609302694,None,3,1,1.1534074210212566,239.35736609302694,None,240.50519933504984,None,,,,,,,,,,,,,,,,,,,,,,,,,,31,001,2023_Jan_24_1415,searchDisc5,2021.2.3,59.81950838459925,
Practice arrays/exp1a_trial_7_colour2_distractors9_r.png,r,3,,,,0,10,10,2,,,,,,,,,,,,,,,,,,,,,,,,,,,,,,,,,,,,,,,,,,,,,,,242.50693097303156,None,2,0.5970802399679087,242.50693097303156,None,243.15543641202385,None,3,1,1.3203352729906328,243.15543641202385,None,244.47171506105224,None,,,,,,,,,,,,,,,,,,,,,,,,,,31,001,2023_Jan_24_1415,searchDisc5,2021.2.3,59.81950838459925,
Practice arrays/exp1a_trial_25_colour3_distractors1_l.png,l,1,,,,0,11,11,11,,,,,,,,,,,,,,,,,,,,,,,,,,,,,,,,,,,,,,,,,,,,,,,246.47371076000854,None,2,0.6971152809564956,246.47371076000854,None,247.22439067903906,None,1,1,1.170455301005859,247.22439067903906,None,248.38876635202905,None,,,,,,,,,,,,,,,,,,,,,,,,,,31,001,2023_Jan_24_1415,searchDisc5,2021.2.3,59.81950838459925,
Practice arrays/exp1a_trial_31_colour0_distractors0_l.png,l,1,,,,0,12,12,15,,,,,,,,,,,,,,,,,,,,,,,,,,,,,,,,,,,,,,,,,,,,,,,250.39023949502734,None,2,0.480501706013456,250.39023949502734,None,250.9244006969966,None,1,1,0.7743273099767976,250.9244006969966,None,251.68869365099818,None,,,,,,,,,,,,,,,,,,,,,,,,,,31,001,2023_Jan_24_1415,searchDisc5,2021.2.3,59.81950838459925,
Practice arrays/exp1a_trial_8_colour2_distractors19_r.png,r,3,,,,0,13,13,3,,,,,,,,,,,,,,,,,,,,,,,,,,,,,,,,,,,,,,,,,,,,,,,253.6908433570061,None,2,0.43064771802164614,253.6908433570061,None,254.17228970804717,None,3,1,1.0350998580106534,254.17228970804717,None,255.2051091340254,None,,,,,,,,,,,,,,,,,,,,,,,,,,31,001,2023_Jan_24_1415,searchDisc5,2021.2.3,59.81950838459925,
Practice arrays/exp1a_trial_14_colour3_distractors31_r.png,r,3,,,,0,14,14,6,,,,,,,,,,,,,,,,,,,,,,,,,,,,,,,,,,,,,,,,,,,,,,,257.2077620860073,None,2,0.5640499280416407,257.2077620860073,None,257.8223303380073,None,3,1,0.7176395570277236,257.8223303380073,None,258.538890010037,None,,,,,,,,,,,,,,,,,,,,,,,,,,31,001,2023_Jan_24_1415,searchDisc5,2021.2.3,59.81950838459925,
Practice arrays/exp1a_trial_10_colour3_distractors1_r.png,r,3,,,,0,15,15,4,,,,,,,,,,,,,,,,,,,,,,,,,,,,,,,,,,,,,,,,,,,,,,,260.5406948060263,None,2,0.6656760830082931,260.5406948060263,None,261.2579387410078,None,3,1,1.3039929430233315,261.2579387410078,None,262.5558737810352,None,,,,,,,,,,,,,,,,,,,,,,,,,,31,001,2023_Jan_24_1415,searchDisc5,2021.2.3,59.81950838459925,
,,,,,,,,,,,,,,,,,,,,,,,,,,,,,,,,,,,,,,,,,,,,,,,,,,,,,,,,,,,,,,,,,,,,,,,264.6411757390015,None,2,14.852237918006722,265.62228864000645,None,,,,,,,,,,,,,,,,,,,,31,001,2023_Jan_24_1415,searchDisc5,2021.2.3,59.81950838459925,
images/exp2c_trial_114_colour1_distractors19_l.png,l,1,1,19,0,,,,,0,0,0,0,,,,,,,,,,,,,,,,,,,,,,,,,,,,,,,,,,,,,,,,,,,287.1579920340446,None,2,1.8434752949979156,287.1579920340446,None,,,,,,,,,,,,,,,,281.07489935401827,None,2,4.10018842498539,283.05815036501735,None,289.05740318703465,None,1,1,0.844724964001216,289.05740318703465,None,289.9234832112095,None,None,None,None,,31,001,2023_Jan_24_1415,searchDisc5,2021.2.3,59.81950838459925,
images/exp2c_trial_155_colour3_distractors9_l.png,l,1,3,9,0,,,,,0,1,1,1,,,,,,,,,,,,,,,,,,,,,,,,,,,,,,,,,,,,,,,,,,,289.93960378004704,None,2,1.5043018159922212,289.93960378004704,None,,,,,,,,,,,,,,,,None,None,None,,None,None,291.4919821509975,None,1,1,2.269022687978577,291.4919821509975,None,293.7567478836048,None,None,None,None,,31,001,2023_Jan_24_1415,searchDisc5,2021.2.3,59.81950838459925,
images/exp1a_trial_264_colour2_distractors19_r.png,r,3,2,19,0,,,,,0,2,2,2,,,,,,,,,,,,,,,,,,,,,,,,,,,,,,,,,,,,,,,,,,,293.7752494550077,None,2,2.919564561045263,293.7752494550077,None,,,,,,,,,,,,,,,,None,None,None,,None,None,296.7418908760301,None,3,1,1.052481310965959,296.7418908760301,None,297.7902330866549,None,None,None,None,,31,001,2023_Jan_24_1415,searchDisc5,2021.2.3,59.81950838459925,
images/exp2b_trial_19_colour1_distractors31_l.png,l,1,1,31,0,,,,,0,3,3,3,,,,,,,,,,,,,,,,,,,,,,,,,,,,,,,,,,,,,,,,,,,297.80658401502296,None,2,2.4393342919647694,297.80658401502296,None,,,,,,,,,,,,,,,,None,None,None,,None,None,300.29214763303753,None,1,1,0.948407803021837,300.29214763303753,None,301.2401044796337,None,None,None,None,,31,001,2023_Jan_24_1415,searchDisc5,2021.2.3,59.81950838459925,
images/exp2b_trial_101_colour2_distractors1_r.png,r,3,2,1,0,,,,,0,4,4,4,,,,,,,,,,,,,,,,,,,,,,,,,,,,,,,,,,,,,,,,,,,301.25648210104555,None,2,1.087542787019629,301.25648210104555,None,,,,,,,,,,,,,,,,None,None,None,,None,None,302.3901857540477,None,3,1,0.805546312010847,302.3901857540477,None,303.1901573796407,None,None,None,None,,31,001,2023_Jan_24_1415,searchDisc5,2021.2.3,59.81950838459925,
images/exp2c_trial_60_colour3_distractors19_l.png,l,1,3,19,0,,,,,0,5,5,5,,,,,,,,,,,,,,,,,,,,,,,,,,,,,,,,,,,,,,,,,,,303.206582401006,None,2,1.6567265129997395,303.206582401006,None,,,,,,,,,,,,,,,,None,None,None,,None,None,304.90822432003915,None,1,1,0.9352234959951602,304.90822432003915,None,305.84022431463234,None,None,None,None,,31,001,2023_Jan_24_1415,searchDisc5,2021.2.3,59.81950838459925,
images/exp2a_trial_81_colour1_distractors9_l.png,l,1,1,9,0,,,,,0,6,6,6,,,,,,,,,,,,,,,,,,,,,,,,,,,,,,,,,,,,,,,,,,,305.8587123710313,None,2,1.604858186969068,305.8587123710313,None,,,,,,,,,,,,,,,,None,None,None,,None,None,307.5090468170238,None,1,1,1.1858206700417213,307.5090468170238,None,308.6904814526555,None,None,None,None,,31,001,2023_Jan_24_1415,searchDisc5,2021.2.3,59.81950838459925,
images/exp2b_trial_214_colour2_distractors9_l.png,l,1,2,9,0,,,,,0,7,7,7,,,,,,,,,,,,,,,,,,,,,,,,,,,,,,,,,,,,,,,,,,,308.7088587930193,None,2,1.0535441630054265,308.7088587930193,None,,,,,,,,,,,,,,,,None,None,None,,None,None,309.8091543590417,None,1,1,0.8543739430024289,309.8091543590417,None,310.6571119906497,None,None,None,None,,31,001,2023_Jan_24_1415,searchDisc5,2021.2.3,59.81950838459925,
images/exp2c_trial_103_colour2_distractors9_r.png,r,3,2,9,0,,,,,0,8,8,8,,,,,,,,,,,,,,,,,,,,,,,,,,,,,,,,,,,,,,,,,,,310.67356175300665,None,2,0.7711224679951556,310.67356175300665,None,,,,,,,,,,,,,,,,None,None,None,,None,None,311.4898718710174,None,3,1,1.1048168849665672,311.4898718710174,None,312.59043511763446,None,None,None,None,,31,001,2023_Jan_24_1415,searchDisc5,2021.2.3,59.81950838459925,
images/exp2c_trial_259_colour1_distractors19_r.png,r,3,1,19,0,,,,,0,9,9,9,,,,,,,,,,,,,,,,,,,,,,,,,,,,,,,,,,,,,,,,,,,312.60878728103125,None,2,0.6374870280269533,312.60878728103125,None,,,,,,,,,,,,,,,,None,None,None,,None,None,313.290383167041,None,3,1,0.8531090570031665,313.290383167041,None,314.140298786608,None,None,None,None,,31,001,2023_Jan_24_1415,searchDisc5,2021.2.3,59.81950838459925,
images/exp2b_trial_200_colour2_distractors19_r.png,r,3,2,19,0,,,,,0,10,10,10,,,,,,,,,,,,,,,,,,,,,,,,,,,,,,,,,,,,,,,,,,,314.156853868044,None,2,1.387996078003198,314.156853868044,None,,,,,,,,,,,,,,,,None,None,None,,None,None,315.5905683450401,None,3,1,0.870273704000283,315.5905683450401,None,316.4571422296343,None,None,None,None,,31,001,2023_Jan_24_1415,searchDisc5,2021.2.3,59.81950838459925,
images/exp2b_trial_147_colour1_distractors31_l.png,l,1,1,31,0,,,,,0,11,11,11,,,,,,,,,,,,,,,,,,,,,,,,,,,,,,,,,,,,,,,,,,,316.47362749802414,None,2,0.6372414389625192,316.47362749802414,None,,,,,,,,,,,,,,,,None,None,None,,None,None,317.1572944869986,None,1,1,0.7865506979869679,317.1572944869986,None,317.94069883062036,None,None,None,None,,31,001,2023_Jan_24_1415,searchDisc5,2021.2.3,59.81950838459925,
images/exp2b_trial_134_colour2_distractors4_r.png,r,3,2,4,0,,,,,0,12,12,12,,,,,,,,,,,,,,,,,,,,,,,,,,,,,,,,,,,,,,,,,,,317.9588781540515,None,2,0.5209382650209591,317.9588781540515,None,,,,,,,,,,,,,,,,None,None,None,,None,None,318.5257853229996,None,3,1,0.8219236439908855,318.5257853229996,None,319.34067996862575,None,None,None,None,,31,001,2023_Jan_24_1415,searchDisc5,2021.2.3,59.81950838459925,
images/exp2b_trial_307_colour1_distractors31_l.png,l,1,1,31,0,,,,,0,13,13,13,,,,,,,,,,,,,,,,,,,,,,,,,,,,,,,,,,,,,,,,,,,319.35707903502043,None,2,0.48772786103654653,319.35707903502043,None,,,,,,,,,,,,,,,,None,None,None,,None,None,319.89021368400427,None,1,1,0.7672813289682381,319.89021368400427,None,320.65738308264406,None,None,None,None,,31,001,2023_Jan_24_1415,searchDisc5,2021.2.3,59.81950838459925,
images/exp1a_trial_113_colour1_distractors9_l.png,l,1,1,9,0,,,,,0,14,14,14,,,,,,,,,,,,,,,,,,,,,,,,,,,,,,,,,,,,,,,,,,,320.6732592059998,None,2,0.5211810290347785,320.6732592059998,None,,,,,,,,,,,,,,,,None,None,None,,None,None,321.24076744902413,None,1,1,1.103070885001216,321.24076744902413,None,322.34078113761495,None,None,None,None,,31,001,2023_Jan_24_1415,searchDisc5,2021.2.3,59.81950838459925,
images/exp1a_trial_96_colour1_distractors1_r.png,r,3,1,1,0,,,,,0,15,15,15,,,,,,,,,,,,,,,,,,,,,,,,,,,,,,,,,,,,,,,,,,,322.3588522460195,None,2,0.5044702309533022,322.3588522460195,None,,,,,,,,,,,,,,,,None,None,None,,None,None,322.9090940200258,None,3,1,1.2722547040320933,322.9090940200258,None,324.1740509146242,None,None,None,None,,31,001,2023_Jan_24_1415,searchDisc5,2021.2.3,59.81950838459925,
images/exp2b_trial_280_colour2_distractors31_l.png,l,1,2,31,0,,,,,0,16,16,16,,,,,,,,,,,,,,,,,,,,,,,,,,,,,,,,,,,,,,,,,,,324.19257526803995,None,2,0.43801909999456257,324.19257526803995,None,,,,,,,,,,,,,,,,None,None,None,,None,None,324.6736500120023,None,1,1,1.0327726380201057,324.6736500120023,None,325.70736437963785,None,None,None,None,,31,001,2023_Jan_24_1415,searchDisc5,2021.2.3,59.81950838459925,
images/exp2a_trial_117_colour2_distractors4_l.png,l,1,2,4,0,,,,,0,17,17,17,,,,,,,,,,,,,,,,,,,,,,,,,,,,,,,,,,,,,,,,,,,325.72349960304564,None,2,0.49010640900814906,325.72349960304564,None,,,,,,,,,,,,,,,,None,None,None,,None,None,326.2574444360216,None,1,1,0.951006026007235,326.2574444360216,None,327.2075493786018,None,None,None,None,,31,001,2023_Jan_24_1415,searchDisc5,2021.2.3,59.81950838459925,
images/exp2a_trial_191_colour0_distractors0_l.png,l,1,0,0,0,,,,,0,18,18,18,,,,,,,,,,,,,,,,,,,,,,,,,,,,,,,,,,,,,,,,,,,327.2257229620009,None,2,0.6375151579850353,327.2257229620009,None,,,,,,,,,,,,,,,,None,None,None,,None,None,327.9069072990096,None,1,1,0.8515320689766668,327.9069072990096,None,328.75723878565475,None,None,None,None,,31,001,2023_Jan_24_1415,searchDisc5,2021.2.3,59.81950838459925,
images/exp1a_trial_158_colour0_distractors0_r.png,r,3,0,0,0,,,,,0,19,19,19,,,,,,,,,,,,,,,,,,,,,,,,,,,,,,,,,,,,,,,,,,,328.77361577702686,None,2,0.7398050900083035,328.77361577702686,None,,,,,,,,,,,,,,,,None,None,None,,None,None,329.55972360499436,None,3,1,0.7709825680358335,329.55972360499436,None,330.3244756036205,None,None,None,None,,31,001,2023_Jan_24_1415,searchDisc5,2021.2.3,59.81950838459925,
images/exp2c_trial_204_colour3_distractors9_r.png,r,3,3,9,0,,,,,0,20,20,20,,,,,,,,,,,,,,,,,,,,,,,,,,,,,,,,,,,,,,,,,,,330.34266961499816,None,2,0.4708966549951583,330.34266961499816,None,,,,,,,,,,,,,,,,None,None,None,,None,None,330.85757361300057,None,3,1,0.82058425800642,330.85757361300057,None,331.67428433764724,None,None,None,None,,31,001,2023_Jan_24_1415,searchDisc5,2021.2.3,59.81950838459925,
images/exp1a_trial_89_colour3_distractors1_l.png,l,1,3,1,0,,,,,0,21,21,21,,,,,,,,,,,,,,,,,,,,,,,,,,,,,,,,,,,,,,,,,,,331.6901629330241,None,2,0.4875801320304163,331.6901629330241,None,,,,,,,,,,,,,,,,None,None,None,,None,None,332.22438130900264,None,1,1,0.6386743640177883,332.22438130900264,None,332.85789451763264,None,None,None,None,,31,001,2023_Jan_24_1415,searchDisc5,2021.2.3,59.81950838459925,
images/exp2a_trial_227_colour1_distractors19_r.png,r,3,1,19,0,,,,,0,22,22,22,,,,,,,,,,,,,,,,,,,,,,,,,,,,,,,,,,,,,,,,,,,332.8740305870306,None,2,0.45406618504785,332.8740305870306,None,,,,,,,,,,,,,,,,None,None,None,,None,None,333.3743620089954,None,3,1,0.7031701040104963,333.3743620089954,None,334.07468034964984,None,None,None,None,,31,001,2023_Jan_24_1415,searchDisc5,2021.2.3,59.81950838459925,
images/exp2b_trial_235_colour3_distractors4_r.png,r,3,3,4,0,,,,,0,23,23,23,,,,,,,,,,,,,,,,,,,,,,,,,,,,,,,,,,,,,,,,,,,334.09271915303543,None,2,0.4875859669991769,334.09271915303543,None,,,,,,,,,,,,,,,,None,None,None,,None,None,334.6265777000226,None,3,1,0.8238580549950711,334.6265777000226,None,335.4410161896143,None,None,None,None,,31,001,2023_Jan_24_1415,searchDisc5,2021.2.3,59.81950838459925,
images/exp2b_trial_66_colour1_distractors9_r.png,r,3,1,9,0,,,,,0,24,24,24,,,,,,,,,,,,,,,,,,,,,,,,,,,,,,,,,,,,,,,,,,,335.456972829008,None,2,0.4383012060425244,335.456972829008,None,,,,,,,,,,,,,,,,None,None,None,,None,None,335.94309055100894,None,3,1,1.0349366620066576,335.94309055100894,None,336.9738841136335,None,None,None,None,,31,001,2023_Jan_24_1415,searchDisc5,2021.2.3,59.81950838459925,
images/exp2a_trial_303_colour1_distractors1_l.png,l,1,1,1,0,,,,,0,25,25,25,,,,,,,,,,,,,,,,,,,,,,,,,,,,,,,,,,,,,,,,,,,336.9908771070186,None,2,0.4379166860016994,336.9908771070186,None,,,,,,,,,,,,,,,,None,None,None,,None,None,337.4763462250121,None,1,1,0.6552370520075783,337.4763462250121,None,338.1241926786373,None,None,None,None,,31,001,2023_Jan_24_1415,searchDisc5,2021.2.3,59.81950838459925,
images/exp2b_trial_121_colour3_distractors1_l.png,l,1,3,1,0,,,,,0,26,26,26,,,,,,,,,,,,,,,,,,,,,,,,,,,,,,,,,,,,,,,,,,,338.14089750801213,None,2,0.4567875110078603,338.14089750801213,None,,,,,,,,,,,,,,,,None,None,None,,None,None,338.64116647903575,None,1,1,0.770792193012312,338.64116647903575,None,339.4079313806491,None,None,None,None,,31,001,2023_Jan_24_1415,searchDisc5,2021.2.3,59.81950838459925,
images/exp1a_trial_120_colour2_distractors31_l.png,l,1,2,31,0,,,,,0,27,27,27,,,,,,,,,,,,,,,,,,,,,,,,,,,,,,,,,,,,,,,,,,,339.4238531370065,None,2,0.4398498259834014,339.4238531370065,None,,,,,,,,,,,,,,,,None,None,None,,None,None,339.90811676101293,None,1,1,0.68268657597946,339.90811676101293,None,340.5913168126484,None,None,None,None,,31,001,2023_Jan_24_1415,searchDisc5,2021.2.3,59.81950838459925,
images/exp2b_trial_13_colour3_distractors19_r.png,r,3,3,19,0,,,,,0,28,28,28,,,,,,,,,,,,,,,,,,,,,,,,,,,,,,,,,,,,,,,,,,,340.60774676001165,None,2,0.6364320740103722,340.60774676001165,None,,,,,,,,,,,,,,,,None,None,None,,None,None,341.2908186800196,None,3,1,0.6546317909960635,341.2908186800196,None,341.94133216163607,None,None,None,None,,31,001,2023_Jan_24_1415,searchDisc5,2021.2.3,59.81950838459925,
images/exp1a_trial_282_colour3_distractors4_l.png,l,1,3,4,0,,,,,0,29,29,29,,,,,,,,,,,,,,,,,,,,,,,,,,,,,,,,,,,,,,,,,,,341.9578111730516,None,2,0.43739042500965297,341.9578111730516,None,,,,,,,,,,,,,,,,None,None,None,,None,None,342.4431146660354,None,1,1,1.2542196360300295,342.4431146660354,None,343.6912268346408,None,None,None,None,,31,001,2023_Jan_24_1415,searchDisc5,2021.2.3,59.81950838459925,
images/exp2a_trial_217_colour3_distractors1_l.png,l,1,3,1,0,,,,,0,30,30,30,,,,,,,,,,,,,,,,,,,,,,,,,,,,,,,,,,,,,,,,,,,343.7074193209992,None,2,0.5067955200211145,343.7074193209992,None,,,,,,,,,,,,,,,,None,None,None,,None,None,344.2603141700383,None,1,1,0.970024331996683,344.2603141700383,None,345.22403007464015,None,None,None,None,,31,001,2023_Jan_24_1415,searchDisc5,2021.2.3,59.81950838459925,
images/exp1a_trial_281_colour3_distractors1_l.png,l,1,3,1,0,,,,,0,31,31,31,,,,,,,,,,,,,,,,,,,,,,,,,,,,,,,,,,,,,,,,,,,345.24106554704485,None,2,0.47527696494944394,345.24106554704485,None,,,,,,,,,,,,,,,,None,None,None,,None,None,345.7575650460203,None,1,1,0.752561995992437,345.7575650460203,None,346.5080395096214,None,None,None,None,,31,001,2023_Jan_24_1415,searchDisc5,2021.2.3,59.81950838459925,
images/exp2a_trial_25_colour3_distractors1_l.png,l,1,3,1,0,,,,,0,32,32,32,,,,,,,,,,,,,,,,,,,,,,,,,,,,,,,,,,,,,,,,,,,346.524547301,None,2,0.3878109659999609,346.524547301,None,,,,,,,,,,,,,,,,None,None,None,,None,None,346.9600876630284,None,1,1,0.6892216149717569,346.9600876630284,None,347.64151121964676,None,None,None,None,,31,001,2023_Jan_24_1415,searchDisc5,2021.2.3,59.81950838459925,
images/exp2b_trial_157_colour3_distractors31_l.png,l,1,3,31,0,,,,,0,33,33,33,,,,,,,,,,,,,,,,,,,,,,,,,,,,,,,,,,,,,,,,,,,347.65884783799993,None,2,0.38769169797888026,347.65884783799993,None,,,,,,,,,,,,,,,,None,None,None,,None,None,348.0946295680478,None,1,1,0.6206778570194729,348.0946295680478,None,348.70922000861026,None,None,None,None,,31,001,2023_Jan_24_1415,searchDisc5,2021.2.3,59.81950838459925,
images/exp2c_trial_265_colour2_distractors31_r.png,r,3,2,31,0,,,,,0,34,34,34,,,,,,,,,,,,,,,,,,,,,,,,,,,,,,,,,,,,,,,,,,,348.72529667103663,None,2,0.42049706797115505,348.72529667103663,None,,,,,,,,,,,,,,,,None,None,None,,None,None,349.1940216990188,None,3,1,0.8524891950073652,349.1940216990188,None,350.0415049676434,None,None,None,None,,31,001,2023_Jan_24_1415,searchDisc5,2021.2.3,59.81950838459925,
images/exp2c_trial_190_colour0_distractors0_r.png,r,3,0,0,0,,,,,0,35,35,35,,,,,,,,,,,,,,,,,,,,,,,,,,,,,,,,,,,,,,,,,,,350.0599893369945,None,2,0.323467667971272,350.0599893369945,None,,,,,,,,,,,,,,,,None,None,None,,None,None,350.42705000104615,None,3,1,0.9899179770145565,350.42705000104615,None,351.4113145326031,None,None,None,None,,31,001,2023_Jan_24_1415,searchDisc5,2021.2.3,59.81950838459925,
images/exp2b_trial_244_colour2_distractors1_l.png,l,1,2,1,0,,,,,0,36,36,36,,,,,,,,,,,,,,,,,,,,,,,,,,,,,,,,,,,,,,,,,,,351.4276473330101,None,2,0.4845269469660707,351.4276473330101,None,,,,,,,,,,,,,,,,None,None,None,,None,None,351.9585259510204,None,1,1,0.657731709012296,351.9585259510204,None,352.6093305076123,None,None,None,None,,31,001,2023_Jan_24_1415,searchDisc5,2021.2.3,59.81950838459925,
images/exp2b_trial_232_colour2_distractors19_r.png,r,3,2,19,0,,,,,0,37,37,37,,,,,,,,,,,,,,,,,,,,,,,,,,,,,,,,,,,,,,,,,,,352.6245230990462,None,2,0.4859204249805771,352.6245230990462,None,,,,,,,,,,,,,,,,None,None,None,,None,None,353.1613823090447,None,3,1,0.8042804940487258,353.1613823090447,None,353.9593790206476,None,None,None,None,,31,001,2023_Jan_24_1415,searchDisc5,2021.2.3,59.81950838459925,
images/exp2b_trial_286_colour0_distractors0_r.png,r,3,0,0,0,,,,,0,38,38,38,,,,,,,,,,,,,,,,,,,,,,,,,,,,,,,,,,,,,,,,,,,353.97419409803115,None,2,0.32025851897196844,353.97419409803115,None,,,,,,,,,,,,,,,,None,None,None,,None,None,354.34430846903706,None,3,1,0.9235895129968412,354.34430846903706,None,355.25948107863076,None,None,None,None,,31,001,2023_Jan_24_1415,searchDisc5,2021.2.3,59.81950838459925,
images/exp2b_trial_302_colour3_distractors31_r.png,r,3,3,31,0,,,,,0,39,39,39,,,,,,,,,,,,,,,,,,,,,,,,,,,,,,,,,,,,,,,,,,,355.27473657403607,None,2,0.3200423530070111,355.27473657403607,None,,,,,,,,,,,,,,,,None,None,None,,None,None,355.64228533703135,None,3,1,0.9202853380120359,355.64228533703135,None,356.55928718762004,None,None,None,None,,31,001,2023_Jan_24_1415,searchDisc5,2021.2.3,59.81950838459925,
images/exp1a_trial_38_colour2_distractors4_r.png,r,3,2,4,0,,,,,0,40,40,40,,,,,,,,,,,,,,,,,,,,,,,,,,,,,,,,,,,,,,,,,,,356.5750343950349,None,2,0.2558699249639176,356.5750343950349,None,,,,,,,,,,,,,,,,None,None,None,,None,None,356.8758877640357,None,3,1,0.9523280239664018,356.8758877640357,None,357.8251047656289,None,None,None,None,,31,001,2023_Jan_24_1415,searchDisc5,2021.2.3,59.81950838459925,
images/exp2c_trial_306_colour1_distractors19_l.png,l,1,1,19,0,,,,,0,41,41,41,,,,,,,,,,,,,,,,,,,,,,,,,,,,,,,,,,,,,,,,,,,357.84160623000935,None,2,0.3233191149774939,357.84160623000935,None,,,,,,,,,,,,,,,,None,None,None,,None,None,358.2105424210313,None,1,1,0.9837242549983785,358.2105424210313,None,359.19124062461776,None,None,None,None,,31,001,2023_Jan_24_1415,searchDisc5,2021.2.3,59.81950838459925,
images/exp2c_trial_92_colour3_distractors19_l.png,l,1,3,19,0,,,,,0,42,42,42,,,,,,,,,,,,,,,,,,,,,,,,,,,,,,,,,,,,,,,,,,,359.2088195840479,None,2,0.25688616500701755,359.2088195840479,None,,,,,,,,,,,,,,,,None,None,None,,None,None,359.5084440940409,None,1,1,1.6516571879619732,359.5084440940409,None,361.1584006116376,None,None,None,None,,31,001,2023_Jan_24_1415,searchDisc5,2021.2.3,59.81950838459925,
images/exp2c_trial_63_colour0_distractors0_l.png,l,1,0,0,0,,,,,0,43,43,43,,,,,,,,,,,,,,,,,,,,,,,,,,,,,,,,,,,,,,,,,,,361.1749198519974,None,2,0.2879496410023421,361.1749198519974,None,,,,,,,,,,,,,,,,None,None,None,,None,None,361.50856578804087,None,1,1,0.9562654879991896,361.50856578804087,None,362.45872706964144,None,None,None,None,,31,001,2023_Jan_24_1415,searchDisc5,2021.2.3,59.81950838459925,
images/exp1a_trial_32_colour1_distractors1_r.png,r,3,1,1,0,,,,,0,44,44,44,,,,,,,,,,,,,,,,,,,,,,,,,,,,,,,,,,,,,,,,,,,362.4750136079965,None,2,0.40655194903956726,362.4750136079965,None,,,,,,,,,,,,,,,,None,None,None,,None,None,362.9278752389946,None,3,1,0.9061260870075785,362.9278752389946,None,363.8263338296441,None,None,None,None,,31,001,2023_Jan_24_1415,searchDisc5,2021.2.3,59.81950838459925,
images/exp2c_trial_182_colour2_distractors9_l.png,l,1,2,9,0,,,,,0,45,45,45,,,,,,,,,,,,,,,,,,,,,,,,,,,,,,,,,,,,,,,,,,,363.84391835104907,None,2,0.30265916301868856,363.84391835104907,None,,,,,,,,,,,,,,,,None,None,None,,None,None,364.1920198490261,None,1,1,1.1380998010281473,364.1920198490261,None,365.3263361976482,None,None,None,None,,31,001,2023_Jan_24_1415,searchDisc5,2021.2.3,59.81950838459925,
images/exp2c_trial_140_colour3_distractors9_r.png,r,3,3,9,0,,,,,0,46,46,46,,,,,,,,,,,,,,,,,,,,,,,,,,,,,,,,,,,,,,,,,,,365.3412013160414,None,2,0.354160558024887,365.3412013160414,None,,,,,,,,,,,,,,,,None,None,None,,None,None,365.741946365044,None,3,1,0.9199553190264851,365.741946365044,None,366.65866959663106,None,None,None,None,,31,001,2023_Jan_24_1415,searchDisc5,2021.2.3,59.81950838459925,
images/exp2b_trial_18_colour1_distractors19_l.png,l,1,1,19,0,,,,,0,47,47,47,,,,,,,,,,,,,,,,,,,,,,,,,,,,,,,,,,,,,,,,,,,366.6756822190364,None,2,0.33771950303344056,366.6756822190364,None,,,,,,,,,,,,,,,,None,None,None,,None,None,367.0587196710403,None,1,1,0.9720910789910704,367.0587196710403,None,368.025391920621,None,None,None,None,,31,001,2023_Jan_24_1415,searchDisc5,2021.2.3,59.81950838459925,
images/exp1a_trial_219_colour3_distractors9_l.png,l,1,3,9,0,,,,,0,48,48,48,,,,,,,,,,,,,,,,,,,,,,,,,,,,,,,,,,,,,,,,,,,368.0412431390141,None,2,0.3370743470150046,368.0412431390141,None,,,,,,,,,,,,,,,,None,None,None,,None,None,368.42630313901464,None,1,1,0.8036861889995635,368.42630313901464,None,369.2264631016063,None,None,None,None,,31,001,2023_Jan_24_1415,searchDisc5,2021.2.3,59.81950838459925,
images/exp2c_trial_268_colour3_distractors9_r.png,r,3,3,9,0,,,,,0,49,49,49,,,,,,,,,,,,,,,,,,,,,,,,,,,,,,,,,,,,,,,,,,,369.24213302502176,None,2,0.33781363599700853,369.24213302502176,None,,,,,,,,,,,,,,,,None,None,None,,None,None,369.62638889002847,None,3,1,1.13646497100126,369.62638889002847,None,370.7587423606077,None,None,None,None,,31,001,2023_Jan_24_1415,searchDisc5,2021.2.3,59.81950838459925,
images/exp2a_trial_297_colour2_distractors31_r.png,r,3,2,31,0,,,,,0,50,50,50,,,,,,,,,,,,,,,,,,,,,,,,,,,,,,,,,,,,,,,,,,,370.77823234401876,None,2,0.37317797797732055,370.77823234401876,None,,,,,,,,,,,,,,,,None,None,None,,None,None,371.199129028013,None,3,1,1.5591841699788347,371.199129028013,None,372.7582847496145,None,None,None,None,,31,001,2023_Jan_24_1415,searchDisc5,2021.2.3,59.81950838459925,
images/exp1a_trial_258_colour1_distractors9_r.png,r,3,1,9,0,,,,,0,51,51,51,,,,,,,,,,,,,,,,,,,,,,,,,,,,,,,,,,,,,,,,,,,372.7753412290476,None,2,0.387708029942587,372.7753412290476,None,,,,,,,,,,,,,,,,None,None,None,,None,None,373.2112730439985,None,3,1,0.820642702979967,373.2112730439985,None,374.0255861006211,None,None,None,None,,31,001,2023_Jan_24_1415,searchDisc5,2021.2.3,59.81950838459925,
images/exp2a_trial_118_colour2_distractors9_l.png,l,1,2,9,0,,,,,0,52,52,52,,,,,,,,,,,,,,,,,,,,,,,,,,,,,,,,,,,,,,,,,,,374.0420152670122,None,2,0.39071229594992474,374.0420152670122,None,,,,,,,,,,,,,,,,None,None,None,,None,None,374.47798502701335,None,1,1,0.8308467780007049,374.47798502701335,None,375.3089416336501,None,None,None,None,,31,001,2023_Jan_24_1415,searchDisc5,2021.2.3,59.81950838459925,
images/exp2b_trial_87_colour2_distractors19_l.png,l,1,2,19,0,,,,,0,53,53,53,,,,,,,,,,,,,,,,,,,,,,,,,,,,,,,,,,,,,,,,,,,375.3255034920294,None,2,0.3378878000075929,375.3255034920294,None,,,,,,,,,,,,,,,,None,None,None,,None,None,375.70893600501586,None,1,1,0.8381424299441278,375.70893600501586,None,376.543201278639,None,None,None,None,,31,001,2023_Jan_24_1415,searchDisc5,2021.2.3,59.81950838459925,
images/exp2b_trial_145_colour1_distractors9_l.png,l,1,1,9,0,,,,,0,54,54,54,,,,,,,,,,,,,,,,,,,,,,,,,,,,,,,,,,,,,,,,,,,376.5595210129977,None,2,0.40633753105066717,376.5595210129977,None,,,,,,,,,,,,,,,,None,None,None,,None,None,377.01113616500515,None,1,1,0.8370439360151067,377.01113616500515,None,377.84449763564623,None,None,None,None,,31,001,2023_Jan_24_1415,searchDisc5,2021.2.3,59.81950838459925,
images/exp1a_trial_204_colour3_distractors9_r.png,r,3,3,9,0,,,,,0,55,55,55,,,,,,,,,,,,,,,,,,,,,,,,,,,,,,,,,,,,,,,,,,,377.85955802199896,None,2,0.32143874798202887,377.85955802199896,None,,,,,,,,,,,,,,,,None,None,None,,None,None,378.22854522505077,None,3,1,0.7845696680014953,378.22854522505077,None,379.00898420464944,None,None,None,None,,31,001,2023_Jan_24_1415,searchDisc5,2021.2.3,59.81950838459925,
images/exp2a_trial_116_colour2_distractors1_l.png,l,1,2,1,0,,,,,0,56,56,56,,,,,,,,,,,,,,,,,,,,,,,,,,,,,,,,,,,,,,,,,,,379.02561226603575,None,2,0.33871037198696285,379.02561226603575,None,,,,,,,,,,,,,,,,None,None,None,,None,None,379.4092753820005,None,1,1,0.7046523849712685,379.4092753820005,None,380.1090294306399,None,None,None,None,,31,001,2023_Jan_24_1415,searchDisc5,2021.2.3,59.81950838459925,
images/exp2c_trial_83_colour1_distractors31_l.png,l,1,1,31,0,,,,,0,57,57,57,,,,,,,,,,,,,,,,,,,,,,,,,,,,,,,,,,,,,,,,,,,380.125635280041,None,2,0.3733343809726648,380.125635280041,None,,,,,,,,,,,,,,,,None,None,None,,None,None,380.54520305403275,None,1,1,0.7335012989933603,380.54520305403275,None,381.2758111426141,None,None,None,None,,31,001,2023_Jan_24_1415,searchDisc5,2021.2.3,59.81950838459925,
images/exp1a_trial_106_colour3_distractors1_r.png,r,3,3,1,0,,,,,0,58,58,58,,,,,,,,,,,,,,,,,,,,,,,,,,,,,,,,,,,,,,,,,,,381.29518198705046,None,2,0.30606651899870485,381.29518198705046,None,,,,,,,,,,,,,,,,None,None,None,,None,None,381.6433714320301,None,3,1,0.8206518760416657,381.6433714320301,None,382.45908587860174,None,None,None,None,,31,001,2023_Jan_24_1415,searchDisc5,2021.2.3,59.81950838459925,
images/exp2c_trial_4_colour1_distractors31_r.png,r,3,1,31,0,,,,,0,59,59,59,,,,,,,,,,,,,,,,,,,,,,,,,,,,,,,,,,,,,,,,,,,382.4762400080217,None,2,0.32266440702369437,382.4762400080217,None,,,,,,,,,,,,,,,,None,None,None,,None,None,382.84329494601116,None,3,1,0.717100931040477,382.84329494601116,None,383.5592294726288,None,None,None,None,,31,001,2023_Jan_24_1415,searchDisc5,2021.2.3,59.81950838459925,
images/exp1a_trial_205_colour3_distractors19_r.png,r,3,3,19,0,,,,,0,60,60,60,,,,,,,,,,,,,,,,,,,,,,,,,,,,,,,,,,,,,,,,,,,383.5763489290257,None,2,0.2566272870171815,383.5763489290257,None,,,,,,,,,,,,,,,,None,None,None,,None,None,383.8779560010298,None,3,1,0.8493800549767911,383.8779560010298,None,384.7258529806044,None,None,None,None,,31,001,2023_Jan_24_1415,searchDisc5,2021.2.3,59.81950838459925,
images/exp2b_trial_313_colour3_distractors1_l.png,l,1,3,1,0,,,,,0,61,61,61,,,,,,,,,,,,,,,,,,,,,,,,,,,,,,,,,,,,,,,,,,,384.74238158599474,None,2,0.44073357700835913,384.74238158599474,None,,,,,,,,,,,,,,,,None,None,None,,None,None,385.2270479919971,None,1,1,0.7385035340557806,385.2270479919971,None,385.9613276316435,None,None,None,None,,31,001,2023_Jan_24_1415,searchDisc5,2021.2.3,59.81950838459925,
images/exp2b_trial_152_colour2_distractors31_l.png,l,1,2,31,0,,,,,0,62,62,62,,,,,,,,,,,,,,,,,,,,,,,,,,,,,,,,,,,,,,,,,,,385.9766152270022,None,2,0.32103830302366987,385.9766152270022,None,,,,,,,,,,,,,,,,None,None,None,,None,None,386.34499965503346,None,1,1,1.8517090289969929,386.34499965503346,None,388.19364249063653,None,None,None,None,,31,001,2023_Jan_24_1415,searchDisc5,2021.2.3,59.81950838459925,
images/exp2b_trial_109_colour3_distractors19_r.png,r,3,3,19,0,,,,,0,63,63,63,,,,,,,,,,,,,,,,,,,,,,,,,,,,,,,,,,,,,,,,,,,388.2112417340395,None,2,0.4069898230372928,388.2112417340395,None,,,,,,,,,,,,,,,,None,None,None,,None,None,388.66181345202494,None,3,1,0.6162825009669177,388.66181345202494,None,389.2759144146461,None,None,None,None,,31,001,2023_Jan_24_1415,searchDisc5,2021.2.3,59.81950838459925,
images/exp1a_trial_115_colour1_distractors31_l.png,l,1,1,31,0,,,,,0,64,64,64,,,,,,,,,,,,,,,,,,,,,,,,,,,,,,,,,,,,,,,,,,,389.2930390490219,None,2,0.25742867501685396,389.2930390490219,None,,,,,,,,,,,,,,,,None,None,None,,None,None,389.59285201504827,None,1,1,0.7307587820105255,389.59285201504827,None,390.32603653360854,None,None,None,None,,31,001,2023_Jan_24_1415,searchDisc5,2021.2.3,59.81950838459925,
images/exp1a_trial_270_colour3_distractors31_r.png,r,3,3,31,0,,,,,0,65,65,65,,,,,,,,,,,,,,,,,,,,,,,,,,,,,,,,,,,,,,,,,,,390.3432833250263,None,2,0.2545460290275514,390.3432833250263,None,,,,,,,,,,,,,,,,None,None,None,,None,None,390.64384097000584,None,3,1,0.6498728289734572,390.64384097000584,None,391.29269956963833,None,None,None,None,,31,001,2023_Jan_24_1415,searchDisc5,2021.2.3,59.81950838459925,
images/exp2c_trial_256_colour1_distractors1_r.png,r,3,1,1,0,,,,,0,66,66,66,,,,,,,,,,,,,,,,,,,,,,,,,,,,,,,,,,,,,,,,,,,391.3091810250189,None,2,0.20734225597698241,391.3091810250189,None,,,,,,,,,,,,,,,,None,None,None,,None,None,391.56007085205056,None,3,1,0.8031433320138603,391.56007085205056,None,392.3593934396398,None,None,None,None,,31,001,2023_Jan_24_1415,searchDisc5,2021.2.3,59.81950838459925,
images/exp1a_trial_74_colour3_distractors1_r.png,r,3,3,1,0,,,,,0,67,67,67,,,,,,,,,,,,,,,,,,,,,,,,,,,,,,,,,,,,,,,,,,,392.3763536500046,None,2,0.6053615550044924,392.3763536500046,None,,,,,,,,,,,,,,,,None,None,None,,None,None,393.0263880120474,None,3,1,0.7541561929974705,393.0263880120474,None,393.7760458806064,None,None,None,None,,31,001,2023_Jan_24_1415,searchDisc5,2021.2.3,59.81950838459925,
images/exp2b_trial_24_colour2_distractors31_l.png,l,1,2,31,0,,,,,0,68,68,68,,,,,,,,,,,,,,,,,,,,,,,,,,,,,,,,,,,,,,,,,,,393.79265250702156,None,2,0.4429673809790984,393.79265250702156,None,,,,,,,,,,,,,,,,None,None,None,,None,None,394.2759352020221,None,1,1,0.6823716390063055,394.2759352020221,None,394.9607116926112,None,None,None,None,,31,001,2023_Jan_24_1415,searchDisc5,2021.2.3,59.81950838459925,
images/exp2b_trial_69_colour2_distractors1_r.png,r,3,2,1,0,,,,,0,69,69,69,,,,,,,,,,,,,,,,,,,,,,,,,,,,,,,,,,,,,,,,,,,394.9758058790467,None,2,0.2866641019936651,394.9758058790467,None,,,,,,,,,,,,,,,,None,None,None,,None,None,395.31054855900584,None,3,1,0.655774946033489,395.31054855900584,None,395.95947841360464,None,None,None,None,,31,001,2023_Jan_24_1415,searchDisc5,2021.2.3,59.81950838459925,
images/exp1a_trial_214_colour2_distractors9_l.png,l,1,2,9,0,,,,,0,70,70,70,,,,,,,,,,,,,,,,,,,,,,,,,,,,,,,,,,,,,,,,,,,395.975738838024,None,2,0.17124219000106677,395.975738838024,None,,,,,,,,,,,,,,,,None,None,None,,None,None,396.19557814102154,None,1,1,0.8201602449989878,396.19557814102154,None,397.00964264860374,None,None,None,None,,31,001,2023_Jan_24_1415,searchDisc5,2021.2.3,59.81950838459925,
images/exp1a_trial_20_colour2_distractors1_l.png,l,1,2,1,0,,,,,0,71,71,71,,,,,,,,,,,,,,,,,,,,,,,,,,,,,,,,,,,,,,,,,,,397.0254817570094,None,2,0.40904409502400085,397.0254817570094,None,,,,,,,,,,,,,,,,None,None,None,,None,None,397.4782353460323,None,1,1,0.7672725089942105,397.4782353460323,None,398.24281635761724,None,None,None,None,,31,001,2023_Jan_24_1415,searchDisc5,2021.2.3,59.81950838459925,
images/exp1a_trial_121_colour3_distractors1_l.png,l,1,3,1,0,,,,,0,72,72,72,,,,,,,,,,,,,,,,,,,,,,,,,,,,,,,,,,,,,,,,,,,398.25936881802045,None,2,0.20673713099677116,398.25936881802045,None,,,,,,,,,,,,,,,,None,None,None,,None,None,398.51165229600156,None,1,1,0.7371772280312143,398.51165229600156,None,399.2429157506325,None,None,None,None,,31,001,2023_Jan_24_1415,searchDisc5,2021.2.3,59.81950838459925,
images/exp2a_trial_179_colour1_distractors31_l.png,l,1,1,31,0,,,,,0,73,73,73,,,,,,,,,,,,,,,,,,,,,,,,,,,,,,,,,,,,,,,,,,,399.2594187310315,None,2,0.22397154499776661,399.2594187310315,None,,,,,,,,,,,,,,,,None,None,None,,None,None,399.5264134160243,None,1,1,0.684351751988288,399.5264134160243,None,400.21050257460445,None,None,None,None,,31,001,2023_Jan_24_1415,searchDisc5,2021.2.3,59.81950838459925,
images/exp2b_trial_249_colour3_distractors1_l.png,l,1,3,1,0,,,,,0,74,74,74,,,,,,,,,,,,,,,,,,,,,,,,,,,,,,,,,,,,,,,,,,,400.2258159140474,None,2,0.20771085401065648,400.2258159140474,None,,,,,,,,,,,,,,,,None,None,None,,None,None,400.4785926560289,None,1,1,0.95182954298798,400.4785926560289,None,401.42640929759943,None,None,None,None,,31,001,2023_Jan_24_1415,searchDisc5,2021.2.3,59.81950838459925,
images/exp2b_trial_85_colour2_distractors4_l.png,l,1,2,4,0,,,,,0,75,75,75,,,,,,,,,,,,,,,,,,,,,,,,,,,,,,,,,,,,,,,,,,,401.44543604302453,None,2,0.3216265960363671,401.44543604302453,None,,,,,,,,,,,,,,,,None,None,None,,None,None,401.811803129036,None,1,1,0.7049892529612407,401.811803129036,None,402.50971191362476,None,None,None,None,,31,001,2023_Jan_24_1415,searchDisc5,2021.2.3,59.81950838459925,
images/exp2b_trial_270_colour3_distractors31_r.png,r,3,3,31,0,,,,,0,76,76,76,,,,,,,,,,,,,,,,,,,,,,,,,,,,,,,,,,,,,,,,,,,402.5265989290201,None,2,0.287300446012523,402.5265989290201,None,,,,,,,,,,,,,,,,None,None,None,,None,None,402.8607519970392,None,3,1,0.8697000829852186,402.8607519970392,None,403.7263958576135,None,None,None,None,,31,001,2023_Jan_24_1415,searchDisc5,2021.2.3,59.81950838459925,
images/exp1a_trial_261_colour2_distractors1_r.png,r,3,2,1,0,,,,,0,77,77,77,,,,,,,,,,,,,,,,,,,,,,,,,,,,,,,,,,,,,,,,,,,403.7429770260351,None,2,0.35549285099841654,403.7429770260351,None,,,,,,,,,,,,,,,,None,None,None,,None,None,404.14613909099717,None,3,1,0.8208333720103838,404.14613909099717,None,404.95980300361987,None,None,None,None,,31,001,2023_Jan_24_1415,searchDisc5,2021.2.3,59.81950838459925,
images/exp1a_trial_185_colour3_distractors1_l.png,l,1,3,1,0,,,,,0,78,78,78,,,,,,,,,,,,,,,,,,,,,,,,,,,,,,,,,,,,,,,,,,,404.97701446700376,None,2,0.20734619797440246,404.97701446700376,None,,,,,,,,,,,,,,,,None,None,None,,None,None,405.22867418802343,None,1,1,0.6861591959604993,405.22867418802343,None,405.90988534063797,None,None,None,None,,31,001,2023_Jan_24_1415,searchDisc5,2021.2.3,59.81950838459925,
images/exp2b_trial_303_colour1_distractors1_l.png,l,1,1,1,0,,,,,0,79,79,79,,,,,,,,,,,,,,,,,,,,,,,,,,,,,,,,,,,,,,,,,,,405.9282484050491,None,2,0.30731146200560033,405.9282484050491,None,,,,,,,,,,,,,,,,None,None,None,,None,None,406.27658752701245,None,1,1,0.7197500269976445,406.27658752701245,None,406.9931902726297,None,None,None,None,,31,001,2023_Jan_24_1415,searchDisc5,2021.2.3,59.81950838459925,
images/exp2a_trial_246_colour2_distractors9_l.png,l,1,2,9,0,,,,,0,80,80,80,,,,,,,,,,,,,,,,,,,,,,,,,,,,,,,,,,,,,,,,,,,407.0104943020269,None,2,0.18955648998962715,407.0104943020269,None,,,,,,,,,,,,,,,,None,None,None,,None,None,407.24570656899596,None,1,1,0.8657897699740715,407.24570656899596,None,408.10981029863467,None,None,None,None,,31,001,2023_Jan_24_1415,searchDisc5,2021.2.3,59.81950838459925,
images/exp1a_trial_217_colour3_distractors1_l.png,l,1,3,1,0,,,,,0,81,81,81,,,,,,,,,,,,,,,,,,,,,,,,,,,,,,,,,,,,,,,,,,,408.1274820060353,None,2,0.43739650497445837,408.1274820060353,None,,,,,,,,,,,,,,,,None,None,None,,None,None,408.61202088400023,None,1,1,1.3889533249894157,408.61202088400023,None,409.9931347576552,None,None,None,None,,31,001,2023_Jan_24_1415,searchDisc5,2021.2.3,59.81950838459925,
images/exp1a_trial_130_colour1_distractors9_r.png,r,3,1,9,0,,,,,0,82,82,82,,,,,,,,,,,,,,,,,,,,,,,,,,,,,,,,,,,,,,,,,,,410.00893534801435,None,2,0.9712393999798223,410.00893534801435,None,,,,,,,,,,,,,,,,None,None,None,,None,None,411.028922063997,None,3,1,1.6521296389983036,411.028922063997,None,412.67772029564946,None,None,None,None,,31,001,2023_Jan_24_1415,searchDisc5,2021.2.3,59.81950838459925,
images/exp1a_trial_86_colour2_distractors9_l.png,l,1,2,9,0,,,,,0,83,83,83,,,,,,,,,,,,,,,,,,,,,,,,,,,,,,,,,,,,,,,,,,,412.69290344504407,None,2,0.3705273829982616,412.69290344504407,None,,,,,,,,,,,,,,,,None,None,None,,None,None,413.1129894220503,None,1,1,1.2708931430242956,413.1129894220503,None,414.37767565760294,None,None,None,None,,31,001,2023_Jan_24_1415,searchDisc5,2021.2.3,59.81950838459925,
images/exp2c_trial_100_colour1_distractors31_r.png,r,3,1,31,0,,,,,0,84,84,84,,,,,,,,,,,,,,,,,,,,,,,,,,,,,,,,,,,,,,,,,,,414.39406310400227,None,2,0.48733308498049155,414.39406310400227,None,,,,,,,,,,,,,,,,None,None,None,,None,None,414.92731595400255,None,3,1,0.7344999870401807,414.92731595400255,None,415.65963977060744,None,None,None,None,,31,001,2023_Jan_24_1415,searchDisc5,2021.2.3,59.81950838459925,
images/exp2a_trial_130_colour1_distractors9_r.png,r,3,1,9,0,,,,,0,85,85,85,,,,,,,,,,,,,,,,,,,,,,,,,,,,,,,,,,,,,,,,,,,415.67655554803787,None,2,0.22440094203921035,415.67655554803787,None,,,,,,,,,,,,,,,,None,None,None,,None,None,415.94544882903574,None,3,1,1.1348828409682028,415.94544882903574,None,417.07682401963973,None,None,None,None,,31,001,2023_Jan_24_1415,searchDisc5,2021.2.3,59.81950838459925,
images/exp2a_trial_143_colour1_distractors1_l.png,l,1,1,1,0,,,,,0,86,86,86,,,,,,,,,,,,,,,,,,,,,,,,,,,,,,,,,,,,,,,,,,,417.0939545800211,None,2,0.4242525870213285,417.0939545800211,None,,,,,,,,,,,,,,,,None,None,None,,None,None,417.5631741959951,None,1,1,0.6355222350102849,417.5631741959951,None,418.1935410416103,None,None,None,None,,31,001,2023_Jan_24_1415,searchDisc5,2021.2.3,59.81950838459925,
images/exp2a_trial_258_colour1_distractors9_r.png,r,3,1,9,0,,,,,0,87,87,87,,,,,,,,,,,,,,,,,,,,,,,,,,,,,,,,,,,,,,,,,,,418.20997646299656,None,2,0.3711041160277091,418.20997646299656,None,,,,,,,,,,,,,,,,None,None,None,,None,None,418.6295776910265,None,3,1,0.6542695779935457,418.6295776910265,None,419.2766965276445,None,None,None,None,,31,001,2023_Jan_24_1415,searchDisc5,2021.2.3,59.81950838459925,
images/exp2b_trial_1_colour1_distractors4_r.png,r,3,1,4,0,,,,,0,88,88,88,,,,,,,,,,,,,,,,,,,,,,,,,,,,,,,,,,,,,,,,,,,419.29271640302613,None,2,0.3378812320297584,419.29271640302613,None,,,,,,,,,,,,,,,,None,None,None,,None,None,419.67949097102974,None,3,1,0.7887230780324899,419.67949097102974,None,420.460153263621,None,None,None,None,,31,001,2023_Jan_24_1415,searchDisc5,2021.2.3,59.81950838459925,
images/exp1a_trial_218_colour3_distractors4_l.png,l,1,3,4,0,,,,,0,89,89,89,,,,,,,,,,,,,,,,,,,,,,,,,,,,,,,,,,,,,,,,,,,420.4792077570455,None,2,0.2546274979831651,420.4792077570455,None,,,,,,,,,,,,,,,,None,None,None,,None,None,420.7775840400136,None,1,1,0.7209192769951187,420.7775840400136,None,421.4935021926416,None,None,None,None,,31,001,2023_Jan_24_1415,searchDisc5,2021.2.3,59.81950838459925,
images/exp2c_trial_210_colour1_distractors19_l.png,l,1,1,19,0,,,,,0,90,90,90,,,,,,,,,,,,,,,,,,,,,,,,,,,,,,,,,,,,,,,,,,,421.5126306400052,None,2,0.3879055160214193,421.5126306400052,None,,,,,,,,,,,,,,,,None,None,None,,None,None,421.9442847290193,None,1,1,0.6692839989555068,421.9442847290193,None,422.61025000861844,None,None,None,None,,31,001,2023_Jan_24_1415,searchDisc5,2021.2.3,59.81950838459925,
images/exp2b_trial_304_colour1_distractors4_l.png,l,1,1,4,0,,,,,0,91,91,91,,,,,,,,,,,,,,,,,,,,,,,,,,,,,,,,,,,,,,,,,,,422.62675148801645,None,2,0.37355675804428756,422.62675148801645,None,,,,,,,,,,,,,,,,None,None,None,,None,None,423.046458146011,None,1,1,0.7199079919955693,423.046458146011,None,423.7602938276017,None,None,None,None,,31,001,2023_Jan_24_1415,searchDisc5,2021.2.3,59.81950838459925,
images/exp1a_trial_117_colour2_distractors4_l.png,l,1,2,4,0,,,,,0,92,92,92,,,,,,,,,,,,,,,,,,,,,,,,,,,,,,,,,,,,,,,,,,,423.7769081600127,None,2,0.3210354259936139,423.7769081600127,None,,,,,,,,,,,,,,,,None,None,None,,None,None,424.1442709840485,None,1,1,0.8876536460011266,424.1442709840485,None,425.02692340061765,None,None,None,None,,31,001,2023_Jan_24_1415,searchDisc5,2021.2.3,59.81950838459925,
images/exp2a_trial_306_colour1_distractors19_l.png,l,1,1,19,0,,,,,0,93,93,93,,,,,,,,,,,,,,,,,,,,,,,,,,,,,,,,,,,,,,,,,,,425.04448672104627,None,2,0.3391259710188024,425.04448672104627,None,,,,,,,,,,,,,,,,None,None,None,,None,None,425.42736187099945,None,1,1,0.6185004989965819,425.42736187099945,None,426.0436761036166,None,None,None,None,,31,001,2023_Jan_24_1415,searchDisc5,2021.2.3,59.81950838459925,
images/exp2a_trial_5_colour2_distractors1_r.png,r,3,2,1,0,,,,,0,94,94,94,,,,,,,,,,,,,,,,,,,,,,,,,,,,,,,,,,,,,,,,,,,426.0600865909946,None,2,0.33931304299039766,426.0600865909946,None,,,,,,,,,,,,,,,,None,None,None,,None,None,426.44466004904825,None,3,1,1.0539662630180828,426.44466004904825,None,427.49363483462946,None,None,None,None,,31,001,2023_Jan_24_1415,searchDisc5,2021.2.3,59.81950838459925,
images/exp1a_trial_44_colour3_distractors9_r.png,r,3,3,9,0,,,,,0,95,95,95,,,,,,,,,,,,,,,,,,,,,,,,,,,,,,,,,,,,,,,,,,,427.5105058909976,None,2,0.4721762880217284,427.5105058909976,None,,,,,,,,,,,,,,,,None,None,None,,None,None,428.0294133879943,None,3,1,0.6529078850289807,428.0294133879943,None,428.67712950960265,None,None,None,None,,31,001,2023_Jan_24_1415,searchDisc5,2021.2.3,59.81950838459925,
images/exp2b_trial_273_colour1_distractors9_l.png,l,1,1,9,0,,,,,0,96,96,96,,,,,,,,,,,,,,,,,,,,,,,,,,,,,,,,,,,,,,,,,,,428.69447846803814,None,2,0.42528728500474244,428.69447846803814,None,,,,,,,,,,,,,,,,None,None,None,,None,None,429.1634525740519,None,1,1,0.5666941789677367,429.1634525740519,None,429.72681784965096,None,None,None,None,,31,001,2023_Jan_24_1415,searchDisc5,2021.2.3,59.81950838459925,
images/exp2a_trial_8_colour2_distractors19_r.png,r,3,2,19,0,,,,,0,97,97,97,,,,,,,,,,,,,,,,,,,,,,,,,,,,,,,,,,,,,,,,,,,429.74358806200325,None,2,0.35516785900108516,429.74358806200325,None,,,,,,,,,,,,,,,,None,None,None,,None,None,430.1438441700302,None,3,1,0.9468968670116737,430.1438441700302,None,431.09381480163427,None,None,None,None,,31,001,2023_Jan_24_1415,searchDisc5,2021.2.3,59.81950838459925,
images/exp1a_trial_306_colour1_distractors19_l.png,l,1,1,19,0,,,,,0,98,98,98,,,,,,,,,,,,,,,,,,,,,,,,,,,,,,,,,,,,,,,,,,,431.1114515570225,None,2,0.23843568499432877,431.1114515570225,None,,,,,,,,,,,,,,,,None,None,None,,None,None,431.39412560802884,None,1,1,0.6826480920426548,431.39412560802884,None,432.0765466936049,None,None,None,None,,31,001,2023_Jan_24_1415,searchDisc5,2021.2.3,59.81950838459925,
images/exp2b_trial_74_colour3_distractors1_r.png,r,3,3,1,0,,,,,0,99,99,99,,,,,,,,,,,,,,,,,,,,,,,,,,,,,,,,,,,,,,,,,,,432.0946403820417,None,2,0.3395632980391383,432.0946403820417,None,,,,,,,,,,,,,,,,None,None,None,,None,None,432.477422889031,None,3,1,1.4049671129905619,432.477422889031,None,433.8773800046532,None,None,None,None,,31,001,2023_Jan_24_1415,searchDisc5,2021.2.3,59.81950838459925,
images/exp2c_trial_202_colour3_distractors1_r.png,r,3,3,1,0,,,,,0,100,100,100,,,,,,,,,,,,,,,,,,,,,,,,,,,,,,,,,,,,,,,,,,,433.89401041402016,None,2,0.2874640569789335,433.89401041402016,None,,,,,,,,,,,,,,,,None,None,None,,None,None,434.2280518700136,None,3,1,0.8054589090170339,434.2280518700136,None,435.0272674286156,None,None,None,None,,31,001,2023_Jan_24_1415,searchDisc5,2021.2.3,59.81950838459925,
images/exp2a_trial_273_colour1_distractors9_l.png,l,1,1,9,0,,,,,0,101,101,101,,,,,,,,,,,,,,,,,,,,,,,,,,,,,,,,,,,,,,,,,,,435.0444530440145,None,2,0.23876905301585793,435.0444530440145,None,,,,,,,,,,,,,,,,None,None,None,,None,None,435.3273870460107,None,1,1,0.5703168800100684,435.3273870460107,None,435.8939972426509,None,None,None,None,,31,001,2023_Jan_24_1415,searchDisc5,2021.2.3,59.81950838459925,
images/exp2c_trial_33_colour1_distractors4_r.png,r,3,1,4,0,,,,,0,102,102,102,,,,,,,,,,,,,,,,,,,,,,,,,,,,,,,,,,,,,,,,,,,435.91123707202496,None,2,0.3377923080115579,435.91123707202496,None,,,,,,,,,,,,,,,,None,None,None,,None,None,436.2948109889985,None,3,1,0.722039524000138,436.2948109889985,None,437.0107451256248,None,None,None,None,,31,001,2023_Jan_24_1415,searchDisc5,2021.2.3,59.81950838459925,
images/exp2a_trial_225_colour1_distractors4_r.png,r,3,1,4,0,,,,,0,103,103,103,,,,,,,,,,,,,,,,,,,,,,,,,,,,,,,,,,,,,,,,,,,437.0273626780254,None,2,0.3377854219870642,437.0273626780254,None,,,,,,,,,,,,,,,,None,None,None,,None,None,437.4106895890436,None,3,1,1.2882077420363203,437.4106895890436,None,438.6938177626347,None,None,None,None,,31,001,2023_Jan_24_1415,searchDisc5,2021.2.3,59.81950838459925,
images/exp2a_trial_35_colour1_distractors19_r.png,r,3,1,19,0,,,,,0,104,104,104,,,,,,,,,,,,,,,,,,,,,,,,,,,,,,,,,,,,,,,,,,,438.7111198780476,None,2,0.2546416569966823,438.7111198780476,None,,,,,,,,,,,,,,,,None,None,None,,None,None,439.0108378760051,None,3,1,1.038011493976228,439.0108378760051,None,440.0451734146103,None,None,None,None,,31,001,2023_Jan_24_1415,searchDisc5,2021.2.3,59.81950838459925,
images/exp2c_trial_76_colour3_distractors9_r.png,r,3,3,9,0,,,,,0,105,105,105,,,,,,,,,,,,,,,,,,,,,,,,,,,,,,,,,,,,,,,,,,,440.0612665039953,None,2,0.404967863985803,440.0612665039953,None,,,,,,,,,,,,,,,,None,None,None,,None,None,440.5133433090523,None,3,1,0.8542058690218255,440.5133433090523,None,441.36079131262375,None,None,None,None,,31,001,2023_Jan_24_1415,searchDisc5,2021.2.3,59.81950838459925,
images/exp2c_trial_205_colour3_distractors19_r.png,r,3,3,19,0,,,,,0,106,106,106,,,,,,,,,,,,,,,,,,,,,,,,,,,,,,,,,,,,,,,,,,,441.3786681780475,None,2,0.2864484080346301,441.3786681780475,None,,,,,,,,,,,,,,,,None,None,None,,None,None,441.71195796399843,None,3,1,0.886772939004004,441.71195796399843,None,442.5942674046149,None,None,None,None,,31,001,2023_Jan_24_1415,searchDisc5,2021.2.3,59.81950838459925,
images/exp2a_trial_257_colour1_distractors4_r.png,r,3,1,4,0,,,,,0,107,107,107,,,,,,,,,,,,,,,,,,,,,,,,,,,,,,,,,,,,,,,,,,,442.611655336048,None,2,0.4237932210089639,442.611655336048,None,,,,,,,,,,,,,,,,None,None,None,,None,None,443.079604210041,None,3,1,0.6191556169651449,443.079604210041,None,443.69417820862725,None,None,None,None,,31,001,2023_Jan_24_1415,searchDisc5,2021.2.3,59.81950838459925,
images/exp2a_trial_93_colour3_distractors31_l.png,l,1,3,31,0,,,,,0,108,108,108,,,,,,,,,,,,,,,,,,,,,,,,,,,,,,,,,,,,,,,,,,,443.7112974100164,None,2,0.33894206798868254,443.7112974100164,None,,,,,,,,,,,,,,,,None,None,None,,None,None,444.09624286700273,None,1,1,0.8186716879718006,444.09624286700273,None,444.9102664916194,None,None,None,None,,31,001,2023_Jan_24_1415,searchDisc5,2021.2.3,59.81950838459925,
images/exp2b_trial_263_colour2_distractors9_r.png,r,3,2,9,0,,,,,0,109,109,109,,,,,,,,,,,,,,,,,,,,,,,,,,,,,,,,,,,,,,,,,,,444.9266415880411,None,2,0.28730017598718405,444.9266415880411,None,,,,,,,,,,,,,,,,None,None,None,,None,None,445.2619253290468,None,3,1,0.7042240859591402,445.2619253290468,None,445.9607924936339,None,None,None,None,,31,001,2023_Jan_24_1415,searchDisc5,2021.2.3,59.81950838459925,
images/exp2a_trial_138_colour3_distractors1_r.png,r,3,3,1,0,,,,,0,110,110,110,,,,,,,,,,,,,,,,,,,,,,,,,,,,,,,,,,,,,,,,,,,445.97737021703506,None,2,0.37130096199689433,445.97737021703506,None,,,,,,,,,,,,,,,,None,None,None,,None,None,446.3963440480293,None,3,1,0.6577781210071407,446.3963440480293,None,447.04426608860956,None,None,None,None,,31,001,2023_Jan_24_1415,searchDisc5,2021.2.3,59.81950838459925,
images/exp2b_trial_182_colour2_distractors9_l.png,l,1,2,9,0,,,,,0,111,111,111,,,,,,,,,,,,,,,,,,,,,,,,,,,,,,,,,,,,,,,,,,,447.06153918104246,None,2,0.3876851729582995,447.06153918104246,None,,,,,,,,,,,,,,,,None,None,None,,None,None,447.49717229802627,None,1,1,0.6524497509817593,447.49717229802627,None,448.1444146866328,None,None,None,None,,31,001,2023_Jan_24_1415,searchDisc5,2021.2.3,59.81950838459925,
images/exp2c_trial_75_colour3_distractors4_r.png,r,3,3,4,0,,,,,0,112,112,112,,,,,,,,,,,,,,,,,,,,,,,,,,,,,,,,,,,,,,,,,,,448.161721357028,None,2,0.35429004998877645,448.161721357028,None,,,,,,,,,,,,,,,,None,None,None,,None,None,448.5638543230016,None,3,1,0.62204315001145,448.5638543230016,None,449.17770241064716,None,None,None,None,,31,001,2023_Jan_24_1415,searchDisc5,2021.2.3,59.81950838459925,
images/exp2c_trial_144_colour1_distractors4_l.png,l,1,1,4,0,,,,,0,113,113,113,,,,,,,,,,,,,,,,,,,,,,,,,,,,,,,,,,,,,,,,,,,449.19488882500445,None,2,0.30507910199230537,449.19488882500445,None,,,,,,,,,,,,,,,,None,None,None,,None,None,449.5444345670403,None,1,1,1.0209020930342376,449.5444345670403,None,450.5609732315992,None,None,None,None,,31,001,2023_Jan_24_1415,searchDisc5,2021.2.3,59.81950838459925,
images/exp2a_trial_276_colour2_distractors1_l.png,l,1,2,1,0,,,,,0,114,114,114,,,,,,,,,,,,,,,,,,,,,,,,,,,,,,,,,,,,,,,,,,,450.5775134830037,None,2,0.3065044980030507,450.5775134830037,None,,,,,,,,,,,,,,,,None,None,None,,None,None,450.9283630819991,None,1,1,0.7702356830122881,450.9283630819991,None,451.6943465236458,None,None,None,None,,31,001,2023_Jan_24_1415,searchDisc5,2021.2.3,59.81950838459925,
images/exp2a_trial_134_colour2_distractors4_r.png,r,3,2,4,0,,,,,0,115,115,115,,,,,,,,,,,,,,,,,,,,,,,,,,,,,,,,,,,,,,,,,,,451.71371782402275,None,2,0.35645056603243575,451.71371782402275,None,,,,,,,,,,,,,,,,None,None,None,,None,None,452.11316608201014,None,3,1,0.9004593020072207,452.11316608201014,None,453.0109044526238,None,None,None,None,,31,001,2023_Jan_24_1415,searchDisc5,2021.2.3,59.81950838459925,
images/exp2a_trial_48_colour1_distractors4_l.png,l,1,1,4,0,,,,,0,116,116,116,,,,,,,,,,,,,,,,,,,,,,,,,,,,,,,,,,,,,,,,,,,453.0282636860502,None,2,0.43985409202286974,453.0282636860502,None,,,,,,,,,,,,,,,,None,None,None,,None,None,453.5122674680315,None,1,1,0.653028050030116,453.5122674680315,None,454.16113030262056,None,None,None,None,,31,001,2023_Jan_24_1415,searchDisc5,2021.2.3,59.81950838459925,
images/exp1a_trial_24_colour2_distractors31_l.png,l,1,2,31,0,,,,,0,117,117,117,,,,,,,,,,,,,,,,,,,,,,,,,,,,,,,,,,,,,,,,,,,454.1775747000356,None,2,0.321050055033993,454.1775747000356,None,,,,,,,,,,,,,,,,None,None,None,,None,None,454.544655907026,None,1,1,0.9503583750338294,454.544655907026,None,455.49557511063756,None,None,None,None,,31,001,2023_Jan_24_1415,searchDisc5,2021.2.3,59.81950838459925,
images/exp1a_trial_271_colour1_distractors1_l.png,l,1,1,1,0,,,,,0,118,118,118,,,,,,,,,,,,,,,,,,,,,,,,,,,,,,,,,,,,,,,,,,,455.5116875960375,None,2,0.4214702210156247,455.5116875960375,None,,,,,,,,,,,,,,,,None,None,None,,None,None,455.980981228,None,1,1,1.0053667179890908,455.980981228,None,456.9778816726524,None,None,None,None,,31,001,2023_Jan_24_1415,searchDisc5,2021.2.3,59.81950838459925,
images/exp2a_trial_139_colour3_distractors4_r.png,r,3,3,4,0,,,,,0,119,119,119,,,,,,,,,,,,,,,,,,,,,,,,,,,,,,,,,,,,,,,,,,,456.99453859304776,None,2,0.45388356200419366,456.99453859304776,None,,,,,,,,,,,,,,,,None,None,None,,None,None,457.49460913904477,None,3,1,0.6703594489954412,457.49460913904477,None,458.161134688626,None,None,None,None,,31,001,2023_Jan_24_1415,searchDisc5,2021.2.3,59.81950838459925,
images/exp2c_trial_215_colour2_distractors19_l.png,l,1,2,19,0,,,,,0,120,120,120,,,,,,,,,,,,,,,,,,,,,,,,,,,,,,,,,,,,,,,,,,,458.17849962902255,None,2,0.6370113149750978,458.17849962902255,None,,,,,,,,,,,,,,,,None,None,None,,None,None,458.8623524130089,None,1,1,0.7534828210482374,458.8623524130089,None,459.6106297816499,None,None,None,None,,31,001,2023_Jan_24_1415,searchDisc5,2021.2.3,59.81950838459925,
images/exp1a_trial_80_colour1_distractors4_l.png,l,1,1,4,0,,,,,0,121,121,121,,,,,,,,,,,,,,,,,,,,,,,,,,,,,,,,,,,,,,,,,,,459.62774153100327,None,2,0.4049755319720134,459.62774153100327,None,,,,,,,,,,,,,,,,None,None,None,,None,None,460.07797839300474,None,1,1,0.8400146749918349,460.07797839300474,None,460.91340168964814,None,None,None,None,,31,001,2023_Jan_24_1415,searchDisc5,2021.2.3,59.81950838459925,
images/exp1a_trial_260_colour1_distractors31_r.png,r,3,1,31,0,,,,,0,122,122,122,,,,,,,,,,,,,,,,,,,,,,,,,,,,,,,,,,,,,,,,,,,460.92856322199805,None,2,0.4524722750065848,460.92856322199805,None,,,,,,,,,,,,,,,,None,None,None,,None,None,461.4287641320261,None,3,1,1.8348976519773714,461.4287641320261,None,463.2624800426187,None,None,None,None,,31,001,2023_Jan_24_1415,searchDisc5,2021.2.3,59.81950838459925,
images/exp1a_trial_15_colour1_distractors1_l.png,l,1,1,1,0,,,,,0,123,123,123,,,,,,,,,,,,,,,,,,,,,,,,,,,,,,,,,,,,,,,,,,,463.28015984001104,None,2,0.3364620069623925,463.28015984001104,None,,,,,,,,,,,,,,,,None,None,None,,None,None,463.6640815639985,None,1,1,0.9222940760082565,463.6640815639985,None,464.5780609056004,None,None,None,None,,31,001,2023_Jan_24_1415,searchDisc5,2021.2.3,59.81950838459925,
images/exp2b_trial_178_colour1_distractors19_l.png,l,1,1,19,0,,,,,0,124,124,124,,,,,,,,,,,,,,,,,,,,,,,,,,,,,,,,,,,,,,,,,,,464.59561856702203,None,2,0.2568070359993726,464.59561856702203,None,,,,,,,,,,,,,,,,None,None,None,,None,None,464.89710701000877,None,1,1,0.8176724779768847,464.89710701000877,None,465.71142819265367,None,None,None,None,,31,001,2023_Jan_24_1415,searchDisc5,2021.2.3,59.81950838459925,
images/exp1a_trial_250_colour3_distractors4_l.png,l,1,3,4,0,,,,,0,125,125,125,,,,,,,,,,,,,,,,,,,,,,,,,,,,,,,,,,,,,,,,,,,465.72884279099526,None,2,0.323116330022458,465.72884279099526,None,,,,,,,,,,,,,,,,None,None,None,,None,None,466.0943955540424,None,1,1,0.7360123469843529,466.0943955540424,None,466.8281259476556,None,None,None,None,,31,001,2023_Jan_24_1415,searchDisc5,2021.2.3,59.81950838459925,
images/exp1a_trial_5_colour2_distractors1_r.png,r,3,2,1,0,,,,,0,126,126,126,,,,,,,,,,,,,,,,,,,,,,,,,,,,,,,,,,,,,,,,,,,466.84540059400024,None,2,0.3721131980419159,466.84540059400024,None,,,,,,,,,,,,,,,,None,None,None,,None,None,467.26363321003737,None,3,1,0.8713152150157839,467.26363321003737,None,468.1281436026096,None,None,None,None,,31,001,2023_Jan_24_1415,searchDisc5,2021.2.3,59.81950838459925,
images/exp1a_trial_175_colour1_distractors1_l.png,l,1,1,1,0,,,,,0,127,127,127,,,,,,,,,,,,,,,,,,,,,,,,,,,,,,,,,,,,,,,,,,,468.14480108604766,None,2,0.3064722859999165,468.14480108604766,None,,,,,,,,,,,,,,,,None,None,None,,None,None,468.4956095070229,None,1,1,0.7034875940298662,468.4956095070229,None,469.19484867164863,None,None,None,None,,31,001,2023_Jan_24_1415,searchDisc5,2021.2.3,59.81950838459925,
images/exp2a_trial_253_colour3_distractors31_l.png,l,1,3,31,0,,,,,0,128,128,128,,,,,,,,,,,,,,,,,,,,,,,,,,,,,,,,,,,,,,,,,,,469.21086575405207,None,2,0.3208694939967245,469.21086575405207,None,,,,,,,,,,,,,,,,None,None,None,,None,None,469.578243113996,None,1,1,0.6377690730150789,469.578243113996,None,470.2115568506182,None,None,None,None,,31,001,2023_Jan_24_1415,searchDisc5,2021.2.3,59.81950838459925,
images/exp2c_trial_197_colour2_distractors1_r.png,r,3,2,1,0,,,,,0,129,129,129,,,,,,,,,,,,,,,,,,,,,,,,,,,,,,,,,,,,,,,,,,,470.23012317501707,None,2,0.42007191496668383,470.23012317501707,None,,,,,,,,,,,,,,,,None,None,None,,None,None,470.6951144920313,None,3,1,0.9059349390445277,470.6951144920313,None,471.5949040216277,None,None,None,None,,31,001,2023_Jan_24_1415,searchDisc5,2021.2.3,59.81950838459925,
images/exp1a_trial_75_colour3_distractors4_r.png,r,3,3,4,0,,,,,0,130,130,130,,,,,,,,,,,,,,,,,,,,,,,,,,,,,,,,,,,,,,,,,,,471.610931000032,None,2,0.2375090359710157,471.610931000032,None,,,,,,,,,,,,,,,,None,None,None,,None,None,471.89540997403674,None,3,1,0.7205311910365708,471.89540997403674,None,472.61173444762824,None,None,None,None,,31,001,2023_Jan_24_1415,searchDisc5,2021.2.3,59.81950838459925,
images/exp2a_trial_108_colour3_distractors9_r.png,r,3,3,9,0,,,,,0,131,131,131,,,,,,,,,,,,,,,,,,,,,,,,,,,,,,,,,,,,,,,,,,,472.62712531501893,None,2,0.35368641099194065,472.62712531501893,None,,,,,,,,,,,,,,,,None,None,None,,None,None,473.03070322901476,None,3,1,0.6903190510347486,473.03070322901476,None,473.71164154462747,None,None,None,None,,31,001,2023_Jan_24_1415,searchDisc5,2021.2.3,59.81950838459925,
images/exp2a_trial_223_colour0_distractors0_l.png,l,1,0,0,0,,,,,0,132,132,132,,,,,,,,,,,,,,,,,,,,,,,,,,,,,,,,,,,,,,,,,,,473.7309761280194,None,2,0.25159500096924603,473.7309761280194,None,,,,,,,,,,,,,,,,None,None,None,,None,None,474.0287321630167,None,1,1,0.5737673600087874,474.0287321630167,None,474.59507202663224,None,None,None,None,,31,001,2023_Jan_24_1415,searchDisc5,2021.2.3,59.81950838459925,
images/exp2b_trial_36_colour1_distractors31_r.png,r,3,1,31,0,,,,,0,133,133,133,,,,,,,,,,,,,,,,,,,,,,,,,,,,,,,,,,,,,,,,,,,474.61078574100975,None,2,0.6882095179753378,474.61078574100975,None,,,,,,,,,,,,,,,,None,None,None,,None,None,475.34583912801463,None,3,1,0.7846672059968114,475.34583912801463,None,476.1283802896272,None,None,None,None,,31,001,2023_Jan_24_1415,searchDisc5,2021.2.3,59.81950838459925,
images/exp2a_trial_268_colour3_distractors9_r.png,r,3,3,9,0,,,,,0,134,134,134,,,,,,,,,,,,,,,,,,,,,,,,,,,,,,,,,,,,,,,,,,,476.14485541405156,None,2,0.338810006971471,476.14485541405156,None,,,,,,,,,,,,,,,,None,None,None,,None,None,476.52834756404627,None,3,1,0.736831103975419,476.52834756404627,None,477.26187664064344,None,None,None,None,,31,001,2023_Jan_24_1415,searchDisc5,2021.2.3,59.81950838459925,
images/exp2b_trial_288_colour1_distractors1_r.png,r,3,1,1,0,,,,,0,135,135,135,,,,,,,,,,,,,,,,,,,,,,,,,,,,,,,,,,,,,,,,,,,477.2792267590412,None,2,0.3906280529918149,477.2792267590412,None,,,,,,,,,,,,,,,,None,None,None,,None,None,477.71381575404666,None,3,1,0.5692559269955382,477.71381575404666,None,478.27844625662544,None,None,None,None,,31,001,2023_Jan_24_1415,searchDisc5,2021.2.3,59.81950838459925,
images/exp2b_trial_162_colour1_distractors9_r.png,r,3,1,9,0,,,,,0,136,136,136,,,,,,,,,,,,,,,,,,,,,,,,,,,,,,,,,,,,,,,,,,,478.2957532129949,None,2,0.33847057505045086,478.2957532129949,None,,,,,,,,,,,,,,,,None,None,None,,None,None,478.680930358998,None,3,1,0.8031974129844457,478.680930358998,None,479.4785137216444,None,None,None,None,,31,001,2023_Jan_24_1415,searchDisc5,2021.2.3,59.81950838459925,
images/exp2a_trial_293_colour2_distractors1_r.png,r,3,2,1,0,,,,,0,137,137,137,,,,,,,,,,,,,,,,,,,,,,,,,,,,,,,,,,,,,,,,,,,479.4958676380338,None,2,0.2734279870055616,479.4958676380338,None,,,,,,,,,,,,,,,,None,None,None,,None,None,479.8124219360179,None,3,1,0.7360412900452502,479.8124219360179,None,480.54525092061374,None,None,None,None,,31,001,2023_Jan_24_1415,searchDisc5,2021.2.3,59.81950838459925,
images/exp2a_trial_92_colour3_distractors19_l.png,l,1,3,19,0,,,,,0,138,138,138,,,,,,,,,,,,,,,,,,,,,,,,,,,,,,,,,,,,,,,,,,,480.5623736330308,None,2,0.23683383298339322,480.5623736330308,None,,,,,,,,,,,,,,,,None,None,None,,None,None,480.84533682104666,None,1,1,0.6380386729724705,480.84533682104666,None,481.4785416786093,None,None,None,None,,31,001,2023_Jan_24_1415,searchDisc5,2021.2.3,59.81950838459925,
images/exp2a_trial_289_colour1_distractors4_r.png,r,3,1,4,0,,,,,0,139,139,139,,,,,,,,,,,,,,,,,,,,,,,,,,,,,,,,,,,,,,,,,,,481.49561796401395,None,2,0.38798910699551925,481.49561796401395,None,,,,,,,,,,,,,,,,None,None,None,,None,None,481.9304336869973,None,3,1,0.6887214049929753,481.9304336869973,None,482.61189969661643,None,None,None,None,,31,001,2023_Jan_24_1415,searchDisc5,2021.2.3,59.81950838459925,
images/exp2a_trial_185_colour3_distractors1_l.png,l,1,3,1,0,,,,,0,140,140,140,,,,,,,,,,,,,,,,,,,,,,,,,,,,,,,,,,,,,,,,,,,482.6304837730131,None,2,0.23760075098834932,482.6304837730131,None,,,,,,,,,,,,,,,,None,None,None,,None,None,482.9129786650301,None,1,1,1.0075263740145601,482.9129786650301,None,483.9119162246119,None,None,None,None,,31,001,2023_Jan_24_1415,searchDisc5,2021.2.3,59.81950838459925,
images/exp2a_trial_319_colour0_distractors0_l.png,l,1,0,0,0,,,,,0,141,141,141,,,,,,,,,,,,,,,,,,,,,,,,,,,,,,,,,,,,,,,,,,,483.92796935903607,None,2,0.26884689304279163,483.92796935903607,None,,,,,,,,,,,,,,,,None,None,None,,None,None,484.24602714099456,None,1,1,0.6246489670011215,484.24602714099456,None,484.8619754156447,None,None,None,None,,31,001,2023_Jan_24_1415,searchDisc5,2021.2.3,59.81950838459925,
images/exp2a_trial_266_colour3_distractors1_r.png,r,3,3,1,0,,,,,0,142,142,142,,,,,,,,,,,,,,,,,,,,,,,,,,,,,,,,,,,,,,,,,,,484.87766902701696,None,2,0.4031707770191133,484.87766902701696,None,,,,,,,,,,,,,,,,None,None,None,,None,None,485.3299725680263,None,3,1,0.5908675189712085,485.3299725680263,None,485.91409411261554,None,None,None,None,,31,001,2023_Jan_24_1415,searchDisc5,2021.2.3,59.81950838459925,
images/exp2c_trial_0_colour1_distractors1_r.png,r,3,1,1,0,,,,,0,143,143,143,,,,,,,,,,,,,,,,,,,,,,,,,,,,,,,,,,,,,,,,,,,485.9285586120095,None,2,0.43642367399297655,485.9285586120095,None,,,,,,,,,,,,,,,,None,None,None,,None,None,486.41301822604146,None,3,1,0.6565932820085436,486.41301822604146,None,487.0615392856183,None,None,None,None,,31,001,2023_Jan_24_1415,searchDisc5,2021.2.3,59.81950838459925,
images/exp2a_trial_241_colour1_distractors9_l.png,l,1,1,9,0,,,,,0,144,144,144,,,,,,,,,,,,,,,,,,,,,,,,,,,,,,,,,,,,,,,,,,,487.07956586801447,None,2,0.27067010197788477,487.07956586801447,None,,,,,,,,,,,,,,,,None,None,None,,None,None,487.39624707604526,None,1,1,0.5365731159690768,487.39624707604526,None,487.928862834617,None,None,None,None,,31,001,2023_Jan_24_1415,searchDisc5,2021.2.3,59.81950838459925,
images/exp1a_trial_314_colour3_distractors4_l.png,l,1,3,4,0,,,,,0,145,145,145,,,,,,,,,,,,,,,,,,,,,,,,,,,,,,,,,,,,,,,,,,,487.9459515180206,None,2,0.35536859498824924,487.9459515180206,None,,,,,,,,,,,,,,,,None,None,None,,None,None,488.345900573011,None,1,1,0.637130573973991,488.345900573011,None,488.97886486861387,None,None,None,None,,31,001,2023_Jan_24_1415,searchDisc5,2021.2.3,59.81950838459925,
images/exp1a_trial_157_colour3_distractors31_l.png,l,1,3,31,0,,,,,0,146,146,146,,,,,,,,,,,,,,,,,,,,,,,,,,,,,,,,,,,,,,,,,,,488.99514854705194,None,2,0.25361315498594195,488.99514854705194,None,,,,,,,,,,,,,,,,None,None,None,,None,None,489.2962628660025,None,1,1,0.6658887619851157,489.2962628660025,None,489.962202641624,None,None,None,None,,31,001,2023_Jan_24_1415,searchDisc5,2021.2.3,59.81950838459925,
images/exp2c_trial_264_colour2_distractors19_r.png,r,3,2,19,0,,,,,0,147,147,147,,,,,,,,,,,,,,,,,,,,,,,,,,,,,,,,,,,,,,,,,,,489.9785962590249,None,2,0.2378525510430336,489.9785962590249,None,,,,,,,,,,,,,,,,None,None,None,,None,None,490.26209525205195,None,3,1,1.2199400720419362,490.26209525205195,None,491.47889249559955,None,None,None,None,,31,001,2023_Jan_24_1415,searchDisc5,2021.2.3,59.81950838459925,
images/exp1a_trial_151_colour2_distractors19_l.png,l,1,2,19,0,,,,,0,148,148,148,,,,,,,,,,,,,,,,,,,,,,,,,,,,,,,,,,,,,,,,,,,491.4944801950478,None,2,0.5738218240439892,491.4944801950478,None,,,,,,,,,,,,,,,,None,None,None,,None,None,492.11429319303716,None,1,1,0.7653894249815494,492.11429319303716,None,492.8790633746306,None,None,None,None,,31,001,2023_Jan_24_1415,searchDisc5,2021.2.3,59.81950838459925,
images/exp1a_trial_27_colour3_distractors9_l.png,l,1,3,9,0,,,,,0,149,149,149,,,,,,,,,,,,,,,,,,,,,,,,,,,,,,,,,,,,,,,,,,,492.8981639520498,None,2,0.3054142370237969,492.8981639520498,None,,,,,,,,,,,,,,,,None,None,None,,None,None,493.2462316750316,None,1,1,0.8690511290333234,493.2462316750316,None,494.11225536463314,None,None,None,None,,31,001,2023_Jan_24_1415,searchDisc5,2021.2.3,59.81950838459925,
images/exp2b_trial_0_colour1_distractors1_r.png,r,3,1,1,0,,,,,0,150,150,150,,,,,,,,,,,,,,,,,,,,,,,,,,,,,,,,,,,,,,,,,,,494.1293501610053,None,2,0.35517851199256256,494.1293501610053,None,,,,,,,,,,,,,,,,None,None,None,,None,None,494.5312437340035,None,3,1,0.5549149970174767,494.5312437340035,None,495.07889692960305,None,None,None,None,,31,001,2023_Jan_24_1415,searchDisc5,2021.2.3,59.81950838459925,
images/exp1a_trial_7_colour2_distractors9_r.png,r,3,2,9,0,,,,,0,151,151,151,,,,,,,,,,,,,,,,,,,,,,,,,,,,,,,,,,,,,,,,,,,495.0960892920266,None,2,0.3211927659576759,495.0960892920266,None,,,,,,,,,,,,,,,,None,None,None,,None,None,495.46292615303537,None,3,1,0.7041164790280163,495.46292615303537,None,496.1621368006221,None,None,None,None,,31,001,2023_Jan_24_1415,searchDisc5,2021.2.3,59.81950838459925,
images/exp2a_trial_224_colour1_distractors1_r.png,r,3,1,1,0,,,,,0,152,152,152,,,,,,,,,,,,,,,,,,,,,,,,,,,,,,,,,,,,,,,,,,,496.180717373034,None,2,0.42139176599448547,496.180717373034,None,,,,,,,,,,,,,,,,None,None,None,,None,None,496.6456839830498,None,3,1,0.9389866240089759,496.6456839830498,None,497.57896091763394,None,None,None,None,,31,001,2023_Jan_24_1415,searchDisc5,2021.2.3,59.81950838459925,
images/exp2a_trial_189_colour3_distractors31_l.png,l,1,3,31,0,,,,,0,153,153,153,,,,,,,,,,,,,,,,,,,,,,,,,,,,,,,,,,,,,,,,,,,497.595321009052,None,2,0.2204165059956722,497.595321009052,None,,,,,,,,,,,,,,,,None,None,None,,None,None,497.86233624402666,None,1,1,0.7217229660018347,497.86233624402666,None,498.57898049461653,None,None,None,None,,31,001,2023_Jan_24_1415,searchDisc5,2021.2.3,59.81950838459925,
images/exp2a_trial_300_colour3_distractors9_r.png,r,3,3,9,0,,,,,0,154,154,154,,,,,,,,,,,,,,,,,,,,,,,,,,,,,,,,,,,,,,,,,,,498.5950116380118,None,2,0.26885380898602307,498.5950116380118,None,,,,,,,,,,,,,,,,None,None,None,,None,None,498.9131597810192,None,3,1,0.6049325730418786,498.9131597810192,None,499.51211344262117,None,None,None,None,,31,001,2023_Jan_24_1415,searchDisc5,2021.2.3,59.81950838459925,
images/exp2a_trial_123_colour3_distractors9_l.png,l,1,3,9,0,,,,,0,155,155,155,,,,,,,,,,,,,,,,,,,,,,,,,,,,,,,,,,,,,,,,,,,499.52959886100143,None,2,0.23785185400629416,499.52959886100143,None,,,,,,,,,,,,,,,,None,None,None,,None,None,499.81235050503165,None,1,1,0.5723026599735022,499.81235050503165,None,500.3791440266417,None,None,None,None,,31,001,2023_Jan_24_1415,searchDisc5,2021.2.3,59.81950838459925,
images/exp2b_trial_203_colour3_distractors4_r.png,r,3,3,4,0,,,,,0,156,156,156,,,,,,,,,,,,,,,,,,,,,,,,,,,,,,,,,,,,,,,,,,,500.39496811199933,None,2,0.38764318195171654,500.39496811199933,None,,,,,,,,,,,,,,,,None,None,None,,None,None,500.82903534400975,None,3,1,0.6878027570201084,500.82903534400975,None,501.5124239256023,None,None,None,None,,31,001,2023_Jan_24_1415,searchDisc5,2021.2.3,59.81950838459925,
images/exp2b_trial_71_colour2_distractors9_r.png,r,3,2,9,0,,,,,0,157,157,157,,,,,,,,,,,,,,,,,,,,,,,,,,,,,,,,,,,,,,,,,,,501.53091669804417,None,2,0.23877392697613686,501.53091669804417,None,,,,,,,,,,,,,,,,None,None,None,,None,None,501.81254523602547,None,3,1,0.8697498370311223,501.81254523602547,None,502.67918316464636,None,None,None,None,,31,001,2023_Jan_24_1415,searchDisc5,2021.2.3,59.81950838459925,
images/exp1a_trial_168_colour2_distractors19_r.png,r,3,2,19,0,,,,,0,158,158,158,,,,,,,,,,,,,,,,,,,,,,,,,,,,,,,,,,,,,,,,,,,502.6976017690031,None,2,0.5054311260464601,502.6976017690031,None,,,,,,,,,,,,,,,,None,None,None,,None,None,503.24766322103096,None,3,1,0.7342327660298906,503.24766322103096,None,503.9792821036302,None,None,None,None,,31,001,2023_Jan_24_1415,searchDisc5,2021.2.3,59.81950838459925,
images/exp2a_trial_201_colour2_distractors31_r.png,r,3,2,31,0,,,,,0,159,159,159,,,,,,,,,,,,,,,,,,,,,,,,,,,,,,,,,,,,,,,,,,,503.99487372202566,None,2,0.5043442289461382,503.99487372202566,None,,,,,,,,,,,,,,,,None,None,None,,None,None,504.54995772702387,None,3,1,1.229294154967647,504.54995772702387,None,505.7792510226485,None,None,None,None,,31,001,2023_Jan_24_1415,searchDisc5,2021.2.3,59.81950838459925,
images/exp1a_trial_152_colour2_distractors31_l.png,l,1,2,31,0,,,,,0,160,160,160,,,,,,,,,,,,,,,,,,,,,,,,,,,,,,,,,,,,,,,,,,,505.79566770402016,None,2,0.2710732569685206,505.79566770402016,None,,,,,,,,,,,,,,,,None,None,None,,None,None,506.11278672900517,None,1,1,0.749542432022281,506.11278672900517,None,506.862080536643,None,None,None,None,,31,001,2023_Jan_24_1415,searchDisc5,2021.2.3,59.81950838459925,
images/exp2a_trial_128_colour1_distractors1_r.png,r,3,1,1,0,,,,,0,161,161,161,,,,,,,,,,,,,,,,,,,,,,,,,,,,,,,,,,,,,,,,,,,506.8801839950029,None,2,0.3056717630242929,506.8801839950029,None,,,,,,,,,,,,,,,,None,None,None,,None,None,507.23000635101926,None,3,1,0.7881907239789143,507.23000635101926,None,508.01287613463353,None,None,None,None,,31,001,2023_Jan_24_1415,searchDisc5,2021.2.3,59.81950838459925,
images/exp1a_trial_145_colour1_distractors9_l.png,l,1,1,9,0,,,,,0,162,162,162,,,,,,,,,,,,,,,,,,,,,,,,,,,,,,,,,,,,,,,,,,,508.03194500500103,None,2,0.23869090201333165,508.03194500500103,None,,,,,,,,,,,,,,,,None,None,None,,None,None,508.31247831403743,None,1,1,0.735869231983088,508.31247831403743,None,509.0460196926491,None,None,None,None,,31,001,2023_Jan_24_1415,searchDisc5,2021.2.3,59.81950838459925,
images/exp1a_trial_149_colour2_distractors4_l.png,l,1,2,4,0,,,,,0,163,163,163,,,,,,,,,,,,,,,,,,,,,,,,,,,,,,,,,,,,,,,,,,,509.06484685401665,None,2,0.37344491900876164,509.06484685401665,None,,,,,,,,,,,,,,,,None,None,None,,None,None,509.4793521190295,None,1,1,0.602808305004146,509.4793521190295,None,510.0793985746335,None,None,None,None,,31,001,2023_Jan_24_1415,searchDisc5,2021.2.3,59.81950838459925,
images/exp2a_trial_243_colour1_distractors31_l.png,l,1,1,31,0,,,,,0,164,164,164,,,,,,,,,,,,,,,,,,,,,,,,,,,,,,,,,,,,,,,,,,,510.09667397203157,None,2,0.3875491509679705,510.09667397203157,None,,,,,,,,,,,,,,,,None,None,None,,None,None,510.5323231340153,None,1,1,0.6864311890094541,510.5323231340153,None,511.2126958956127,None,None,None,None,,31,001,2023_Jan_24_1415,searchDisc5,2021.2.3,59.81950838459925,
images/exp1a_trial_54_colour2_distractors9_l.png,l,1,2,9,0,,,,,0,165,165,165,,,,,,,,,,,,,,,,,,,,,,,,,,,,,,,,,,,,,,,,,,,511.22981012403034,None,2,0.40436901297653094,511.22981012403034,None,,,,,,,,,,,,,,,,None,None,None,,None,None,511.68015645002015,None,1,1,0.6867467280244455,511.68015645002015,None,512.3628065776196,None,None,None,None,,31,001,2023_Jan_24_1415,searchDisc5,2021.2.3,59.81950838459925,
images/exp1a_trial_243_colour1_distractors31_l.png,l,1,1,31,0,,,,,0,166,166,166,,,,,,,,,,,,,,,,,,,,,,,,,,,,,,,,,,,,,,,,,,,512.3797590630129,None,2,0.3038760109920986,512.3797590630129,None,,,,,,,,,,,,,,,,None,None,None,,None,None,512.7294847080484,None,1,1,0.8028398620081134,512.7294847080484,None,513.5314116246067,None,None,None,None,,31,001,2023_Jan_24_1415,searchDisc5,2021.2.3,59.81950838459925,
images/exp2b_trial_250_colour3_distractors4_l.png,l,1,3,4,0,,,,,0,167,167,167,,,,,,,,,,,,,,,,,,,,,,,,,,,,,,,,,,,,,,,,,,,513.5486755630118,None,2,0.8357413610210642,513.5486755630118,None,,,,,,,,,,,,,,,,None,None,None,,None,None,514.4294938580133,None,1,1,0.5729961610049941,514.4294938580133,None,514.9972377016442,None,None,None,None,,31,001,2023_Jan_24_1415,searchDisc5,2021.2.3,59.81950838459925,
images/exp2a_trial_165_colour2_distractors1_r.png,r,3,2,1,0,,,,,0,168,168,168,,,,,,,,,,,,,,,,,,,,,,,,,,,,,,,,,,,,,,,,,,,515.0129171640147,None,2,0.30415736098075286,515.0129171640147,None,,,,,,,,,,,,,,,,None,None,None,,None,None,515.3629979680409,None,3,1,0.7383611549739726,515.3629979680409,None,516.0961881306488,None,None,None,None,,31,001,2023_Jan_24_1415,searchDisc5,2021.2.3,59.81950838459925,
images/exp2c_trial_147_colour1_distractors31_l.png,l,1,1,31,0,,,,,0,169,169,169,,,,,,,,,,,,,,,,,,,,,,,,,,,,,,,,,,,,,,,,,,,516.1126357660396,None,2,0.30458160501439124,516.1126357660396,None,,,,,,,,,,,,,,,,None,None,None,,None,None,516.4629376990488,None,1,1,0.6041907630278729,516.4629376990488,None,517.063858177606,None,None,None,None,,31,001,2023_Jan_24_1415,searchDisc5,2021.2.3,59.81950838459925,
images/exp2b_trial_198_colour2_distractors4_r.png,r,3,2,4,0,,,,,0,170,170,170,,,,,,,,,,,,,,,,,,,,,,,,,,,,,,,,,,,,,,,,,,,517.0801052630413,None,2,0.2511612310190685,517.0801052630413,None,,,,,,,,,,,,,,,,None,None,None,,None,None,517.3802606190438,None,3,1,0.6884896410047077,517.3802606190438,None,518.0628589626052,None,None,None,None,,31,001,2023_Jan_24_1415,searchDisc5,2021.2.3,59.81950838459925,
images/exp2c_trial_119_colour2_distractors19_l.png,l,1,2,19,0,,,,,0,171,171,171,,,,,,,,,,,,,,,,,,,,,,,,,,,,,,,,,,,,,,,,,,,518.0798661800218,None,2,0.3232576390146278,518.0798661800218,None,,,,,,,,,,,,,,,,None,None,None,,None,None,518.4492095390451,None,1,1,0.6338132680393755,518.4492095390451,None,519.0788342596264,None,None,None,None,,31,001,2023_Jan_24_1415,searchDisc5,2021.2.3,59.81950838459925,
images/exp2b_trial_194_colour1_distractors9_r.png,r,3,1,9,0,,,,,0,172,172,172,,,,,,,,,,,,,,,,,,,,,,,,,,,,,,,,,,,,,,,,,,,519.0964583840105,None,2,0.30604893498821184,519.0964583840105,None,,,,,,,,,,,,,,,,None,None,None,,None,None,519.4471723500174,None,3,1,0.65412549598841,519.4471723500174,None,520.0972957396065,None,None,None,None,,31,001,2023_Jan_24_1415,searchDisc5,2021.2.3,59.81950838459925,
images/exp2b_trial_231_colour2_distractors9_r.png,r,3,2,9,0,,,,,0,173,173,173,,,,,,,,,,,,,,,,,,,,,,,,,,,,,,,,,,,,,,,,,,,520.1147483730456,None,2,0.2874082080088556,520.1147483730456,None,,,,,,,,,,,,,,,,None,None,None,,None,None,520.4469656180008,None,3,1,0.6865088759805076,520.4469656180008,None,521.129579107603,None,None,None,None,,31,001,2023_Jan_24_1415,searchDisc5,2021.2.3,59.81950838459925,
images/exp2b_trial_279_colour2_distractors19_l.png,l,1,2,19,0,,,,,0,174,174,174,,,,,,,,,,,,,,,,,,,,,,,,,,,,,,,,,,,,,,,,,,,521.148806377023,None,2,0.374303467979189,521.148806377023,None,,,,,,,,,,,,,,,,None,None,None,,None,None,521.5650300010457,None,1,1,0.500567764043808,521.5650300010457,None,522.0630116256419,None,None,None,None,,31,001,2023_Jan_24_1415,searchDisc5,2021.2.3,59.81950838459925,
images/exp2b_trial_160_colour1_distractors1_r.png,r,3,1,1,0,,,,,0,175,175,175,,,,,,,,,,,,,,,,,,,,,,,,,,,,,,,,,,,,,,,,,,,522.0795466220006,None,2,0.37206084601348266,522.0795466220006,None,,,,,,,,,,,,,,,,None,None,None,,None,None,522.4990651090047,None,3,1,0.70561176299816,522.4990651090047,None,523.1966837536078,None,None,None,None,,31,001,2023_Jan_24_1415,searchDisc5,2021.2.3,59.81950838459925,
images/exp1a_trial_147_colour1_distractors31_l.png,l,1,1,31,0,,,,,0,176,176,176,,,,,,,,,,,,,,,,,,,,,,,,,,,,,,,,,,,,,,,,,,,523.2138030230417,None,2,0.24000817799242213,523.2138030230417,None,,,,,,,,,,,,,,,,None,None,None,,None,None,523.4985847990029,None,1,1,0.6309865979710594,523.4985847990029,None,524.1297677606111,None,None,None,None,,31,001,2023_Jan_24_1415,searchDisc5,2021.2.3,59.81950838459925,
images/exp2b_trial_261_colour2_distractors1_r.png,r,3,2,1,0,,,,,0,177,177,177,,,,,,,,,,,,,,,,,,,,,,,,,,,,,,,,,,,,,,,,,,,524.1467746160342,None,2,0.27131401002407074,524.1467746160342,None,,,,,,,,,,,,,,,,None,None,None,,None,None,524.4630641890108,None,3,1,0.5066639950382523,524.4630641890108,None,524.9642161546275,None,None,None,None,,31,001,2023_Jan_24_1415,searchDisc5,2021.2.3,59.81950838459925,
images/exp2c_trial_108_colour3_distractors9_r.png,r,3,3,9,0,,,,,0,178,178,178,,,,,,,,,,,,,,,,,,,,,,,,,,,,,,,,,,,,,,,,,,,524.9796065560076,None,2,0.6382514029974118,524.9796065560076,None,,,,,,,,,,,,,,,,None,None,None,,None,None,525.6631064740359,None,3,1,1.0023997239768505,525.6631064740359,None,526.6631193476263,None,None,None,None,,31,001,2023_Jan_24_1415,searchDisc5,2021.2.3,59.81950838459925,
images/exp2c_trial_283_colour3_distractors9_l.png,l,1,3,9,0,,,,,0,179,179,179,,,,,,,,,,,,,,,,,,,,,,,,,,,,,,,,,,,,,,,,,,,526.6791205400368,None,2,0.7052583909826353,526.6791205400368,None,,,,,,,,,,,,,,,,None,None,None,,None,None,527.4302661890397,None,1,1,0.6203288289834745,527.4302661890397,None,528.0464239506167,None,None,None,None,,31,001,2023_Jan_24_1415,searchDisc5,2021.2.3,59.81950838459925,
images/exp2c_trial_298_colour3_distractors1_r.png,r,3,3,1,0,,,,,0,180,180,180,,,,,,,,,,,,,,,,,,,,,,,,,,,,,,,,,,,,,,,,,,,528.0637068840442,None,2,0.44095750100677833,528.0637068840442,None,,,,,,,,,,,,,,,,None,None,None,,None,None,528.5470066540292,None,3,1,0.8860471340012737,528.5470066540292,None,529.4299923116108,None,None,None,None,,31,001,2023_Jan_24_1415,searchDisc5,2021.2.3,59.81950838459925,
images/exp1a_trial_102_colour2_distractors4_r.png,r,3,2,4,0,,,,,0,181,181,181,,,,,,,,,,,,,,,,,,,,,,,,,,,,,,,,,,,,,,,,,,,529.4495558320195,None,2,0.4549635060247965,529.4495558320195,None,,,,,,,,,,,,,,,,None,None,None,,None,None,529.9472103250446,None,3,1,0.8869590350077488,529.9472103250446,None,530.8299207936274,None,None,None,None,,31,001,2023_Jan_24_1415,searchDisc5,2021.2.3,59.81950838459925,
images/exp2a_trial_314_colour3_distractors4_l.png,l,1,3,4,0,,,,,0,182,182,182,,,,,,,,,,,,,,,,,,,,,,,,,,,,,,,,,,,,,,,,,,,530.8472085430403,None,2,0.47187964798649773,530.8472085430403,None,,,,,,,,,,,,,,,,None,None,None,,None,None,531.3632393270382,None,1,1,0.521339358005207,531.3632393270382,None,531.8798981666099,None,None,None,None,,31,001,2023_Jan_24_1415,searchDisc5,2021.2.3,59.81950838459925,
images/exp2c_trial_239_colour1_distractors1_l.png,l,1,1,1,0,,,,,0,183,183,183,,,,,,,,,,,,,,,,,,,,,,,,,,,,,,,,,,,,,,,,,,,531.8964862560388,None,2,0.37209952098783106,531.8964862560388,None,,,,,,,,,,,,,,,,None,None,None,,None,None,532.3163478370407,None,1,1,0.6382087950478308,532.3163478370407,None,532.9464737676084,None,None,None,None,,31,001,2023_Jan_24_1415,searchDisc5,2021.2.3,59.81950838459925,
images/exp1a_trial_194_colour1_distractors9_r.png,r,3,1,9,0,,,,,0,184,184,184,,,,,,,,,,,,,,,,,,,,,,,,,,,,,,,,,,,,,,,,,,,532.9635473060189,None,2,0.35495495796203613,532.9635473060189,None,,,,,,,,,,,,,,,,None,None,None,,None,None,533.3658518730081,None,3,1,0.7879282159847207,533.3658518730081,None,534.1476706446032,None,None,None,None,,31,001,2023_Jan_24_1415,searchDisc5,2021.2.3,59.81950838459925,
images/exp2a_trial_150_colour2_distractors9_l.png,l,1,2,9,0,,,,,0,185,185,185,,,,,,,,,,,,,,,,,,,,,,,,,,,,,,,,,,,,,,,,,,,534.1639501610189,None,2,0.4554457860067487,534.1639501610189,None,,,,,,,,,,,,,,,,None,None,None,,None,None,534.6633268709993,None,1,1,0.6486835440155119,534.6633268709993,None,535.3132557596313,None,None,None,None,,31,001,2023_Jan_24_1415,searchDisc5,2021.2.3,59.81950838459925,
images/exp2b_trial_294_colour2_distractors4_r.png,r,3,2,4,0,,,,,0,186,186,186,,,,,,,,,,,,,,,,,,,,,,,,,,,,,,,,,,,,,,,,,,,535.3298265650519,None,2,0.28802004997851327,535.3298265650519,None,,,,,,,,,,,,,,,,None,None,None,,None,None,535.6643255540403,None,3,1,0.5383473700494505,535.6643255540403,None,536.1966751566273,None,None,None,None,,31,001,2023_Jan_24_1415,searchDisc5,2021.2.3,59.81950838459925,
images/exp1a_trial_83_colour1_distractors31_l.png,l,1,1,31,0,,,,,0,187,187,187,,,,,,,,,,,,,,,,,,,,,,,,,,,,,,,,,,,,,,,,,,,536.2160671449965,None,2,0.4546100010047667,536.2160671449965,None,,,,,,,,,,,,,,,,None,None,None,,None,None,536.7153725840035,None,1,1,0.6828042769921012,536.7153725840035,None,537.3967652516206,None,None,None,None,,31,001,2023_Jan_24_1415,searchDisc5,2021.2.3,59.81950838459925,
images/exp2c_trial_230_colour2_distractors4_r.png,r,3,2,4,0,,,,,0,188,188,188,,,,,,,,,,,,,,,,,,,,,,,,,,,,,,,,,,,,,,,,,,,537.4160131310346,None,2,0.3386645580176264,537.4160131310346,None,,,,,,,,,,,,,,,,None,None,None,,None,None,537.798905216041,None,3,1,0.6044879799592309,537.798905216041,None,538.3967658616369,None,None,None,None,,31,001,2023_Jan_24_1415,searchDisc5,2021.2.3,59.81950838459925,
images/exp1a_trial_249_colour3_distractors1_l.png,l,1,3,1,0,,,,,0,189,189,189,,,,,,,,,,,,,,,,,,,,,,,,,,,,,,,,,,,,,,,,,,,538.4160394050414,None,2,0.27387331996578723,538.4160394050414,None,,,,,,,,,,,,,,,,None,None,None,,None,None,538.7301307140151,None,1,1,0.619319343008101,538.7301307140151,None,539.3467958435998,None,None,None,None,,31,001,2023_Jan_24_1415,searchDisc5,2021.2.3,59.81950838459925,
images/exp2c_trial_255_colour0_distractors0_l.png,l,1,0,0,0,,,,,0,190,190,190,,,,,,,,,,,,,,,,,,,,,,,,,,,,,,,,,,,,,,,,,,,539.3633668610128,None,2,0.4043431539903395,539.3633668610128,None,,,,,,,,,,,,,,,,None,None,None,,None,None,539.8163721330347,None,1,1,0.6562811720068567,539.8163721330347,None,540.4633780586067,None,None,None,None,,31,001,2023_Jan_24_1415,searchDisc5,2021.2.3,59.81950838459925,
images/exp2a_trial_167_colour2_distractors9_r.png,r,3,2,9,0,,,,,0,191,191,191,,,,,,,,,,,,,,,,,,,,,,,,,,,,,,,,,,,,,,,,,,,540.4799600720289,None,2,0.28812843799823895,540.4799600720289,None,,,,,,,,,,,,,,,,None,None,None,,None,None,540.8144000199973,None,3,1,0.7520481160026975,540.8144000199973,None,541.5634910086286,None,None,None,None,,31,001,2023_Jan_24_1415,searchDisc5,2021.2.3,59.81950838459925,
images/exp2a_trial_71_colour2_distractors9_r.png,r,3,2,9,0,,,,,0,192,192,192,,,,,,,,,,,,,,,,,,,,,,,,,,,,,,,,,,,,,,,,,,,541.5807705300394,None,2,0.25534489197889343,541.5807705300394,None,,,,,,,,,,,,,,,,None,None,None,,None,None,541.8827942410135,None,3,1,0.6996225740294904,541.8827942410135,None,542.5803217086126,None,None,None,None,,31,001,2023_Jan_24_1415,searchDisc5,2021.2.3,59.81950838459925,
images/exp1a_trial_134_colour2_distractors4_r.png,r,3,2,4,0,,,,,0,193,193,193,,,,,,,,,,,,,,,,,,,,,,,,,,,,,,,,,,,,,,,,,,,542.5966194540379,None,2,0.35401918599382043,542.5966194540379,None,,,,,,,,,,,,,,,,None,None,None,,None,None,542.9970968750422,None,3,1,0.6380086349672638,542.9970968750422,None,543.6311771526001,None,None,None,None,,31,001,2023_Jan_24_1415,searchDisc5,2021.2.3,59.81950838459925,
images/exp1a_trial_291_colour1_distractors19_r.png,r,3,1,19,0,,,,,0,194,194,194,,,,,,,,,,,,,,,,,,,,,,,,,,,,,,,,,,,,,,,,,,,543.6470584690105,None,2,0.519799024972599,543.6470584690105,None,,,,,,,,,,,,,,,,None,None,None,,None,None,544.216609110008,None,3,1,0.5513111790060066,544.216609110008,None,544.7637372286175,None,None,None,None,,31,001,2023_Jan_24_1415,searchDisc5,2021.2.3,59.81950838459925,
images/exp2a_trial_287_colour0_distractors0_l.png,l,1,0,0,0,,,,,0,195,195,195,,,,,,,,,,,,,,,,,,,,,,,,,,,,,,,,,,,,,,,,,,,544.781122979999,None,2,0.20948844199301675,544.781122979999,None,,,,,,,,,,,,,,,,None,None,None,,None,None,545.0325725750299,None,1,1,0.5706091279862449,545.0325725750299,None,545.6001189686125,None,None,None,None,,31,001,2023_Jan_24_1415,searchDisc5,2021.2.3,59.81950838459925,
images/exp2b_trial_110_colour3_distractors31_r.png,r,3,3,31,0,,,,,0,196,196,196,,,,,,,,,,,,,,,,,,,,,,,,,,,,,,,,,,,,,,,,,,,545.6161979670287,None,2,0.31869883101899177,545.6161979670287,None,,,,,,,,,,,,,,,,None,None,None,,None,None,545.9832271500491,None,3,1,0.552802223013714,545.9832271500491,None,546.5305777976522,None,None,None,None,,31,001,2023_Jan_24_1415,searchDisc5,2021.2.3,59.81950838459925,
images/exp1a_trial_208_colour1_distractors4_l.png,l,1,1,4,0,,,,,0,197,197,197,,,,,,,,,,,,,,,,,,,,,,,,,,,,,,,,,,,,,,,,,,,546.5460437420406,None,2,0.31991766701685265,546.5460437420406,None,,,,,,,,,,,,,,,,None,None,None,,None,None,546.9138991250074,None,1,1,0.6891527000116184,546.9138991250074,None,547.5970927166403,None,None,None,None,,31,001,2023_Jan_24_1415,searchDisc5,2021.2.3,59.81950838459925,
images/exp2a_trial_4_colour1_distractors31_r.png,r,3,1,31,0,,,,,0,198,198,198,,,,,,,,,,,,,,,,,,,,,,,,,,,,,,,,,,,,,,,,,,,547.6140690870234,None,2,0.4233198729925789,547.6140690870234,None,,,,,,,,,,,,,,,,None,None,None,,None,None,548.080351089011,None,3,1,0.6823397990083322,548.080351089011,None,548.763130101643,None,None,None,None,,31,001,2023_Jan_24_1415,searchDisc5,2021.2.3,59.81950838459925,
images/exp2c_trial_84_colour2_distractors1_l.png,l,1,2,1,0,,,,,0,199,199,199,,,,,,,,,,,,,,,,,,,,,,,,,,,,,,,,,,,,,,,,,,,548.7822797950357,None,2,0.3914216379635036,548.7822797950357,None,,,,,,,,,,,,,,,,None,None,None,,None,None,549.2139027630328,None,1,1,0.5692976900027134,549.2139027630328,None,549.7803319106227,None,None,None,None,,31,001,2023_Jan_24_1415,searchDisc5,2021.2.3,59.81950838459925,
images/exp1a_trial_125_colour3_distractors31_l.png,l,1,3,31,0,,,,,0,200,200,200,,,,,,,,,,,,,,,,,,,,,,,,,,,,,,,,,,,,,,,,,,,549.7974467420136,None,2,0.3380315210088156,549.7974467420136,None,,,,,,,,,,,,,,,,None,None,None,,None,None,550.183321878023,None,1,1,0.6001278510084376,550.183321878023,None,550.780489236617,None,None,None,None,,31,001,2023_Jan_24_1415,searchDisc5,2021.2.3,59.81950838459925,
images/exp2c_trial_67_colour1_distractors19_r.png,r,3,1,19,0,,,,,0,201,201,201,,,,,,,,,,,,,,,,,,,,,,,,,,,,,,,,,,,,,,,,,,,550.7997528700507,None,2,0.27056584699312225,550.7997528700507,None,,,,,,,,,,,,,,,,None,None,None,,None,None,551.1145685469965,None,3,1,0.5541843399987556,551.1145685469965,None,551.6638972666464,None,None,None,None,,31,001,2023_Jan_24_1415,searchDisc5,2021.2.3,59.81950838459925,
images/exp2a_trial_46_colour3_distractors31_r.png,r,3,3,31,0,,,,,0,202,202,202,,,,,,,,,,,,,,,,,,,,,,,,,,,,,,,,,,,,,,,,,,,551.6803003120003,None,2,0.3243539920076728,551.6803003120003,None,,,,,,,,,,,,,,,,None,None,None,,None,None,552.0475982430507,None,3,1,0.6331800640327856,552.0475982430507,None,552.6807412376278,None,None,None,None,,31,001,2023_Jan_24_1415,searchDisc5,2021.2.3,59.81950838459925,
images/exp2c_trial_20_colour2_distractors1_l.png,l,1,2,1,0,,,,,0,203,203,203,,,,,,,,,,,,,,,,,,,,,,,,,,,,,,,,,,,,,,,,,,,552.6971737230197,None,2,0.487343055952806,552.6971737230197,None,,,,,,,,,,,,,,,,None,None,None,,None,None,553.2306863639969,None,1,1,0.6559530600206926,553.2306863639969,None,553.8807105696527,None,None,None,None,,31,001,2023_Jan_24_1415,searchDisc5,2021.2.3,59.81950838459925,
images/exp2c_trial_171_colour3_distractors4_r.png,r,3,3,4,0,,,,,0,204,204,204,,,,,,,,,,,,,,,,,,,,,,,,,,,,,,,,,,,,,,,,,,,553.8979281120119,None,2,0.6374989820178598,553.8979281120119,None,,,,,,,,,,,,,,,,None,None,None,,None,None,554.5816747799981,None,1,0,0.6238234820193611,554.5816747799981,None,555.19827284161,None,None,None,None,,31,001,2023_Jan_24_1415,searchDisc5,2021.2.3,59.81950838459925,
images/exp2b_trial_226_colour1_distractors9_r.png,r,3,1,9,0,,,,,0,205,205,205,,,,,,,,,,,,,,,,,,,,,,,,,,,,,,,,,,,,,,,,,,,555.2135493450332,None,2,2.0684848470264114,555.2135493450332,None,,,,,,,,,,,,,,,,None,None,None,,None,None,557.3313565890421,None,3,1,0.5733672070200555,557.3313565890421,None,557.8973300016136,None,None,None,None,,31,001,2023_Jan_24_1415,searchDisc5,2021.2.3,59.81950838459925,
images/exp2a_trial_9_colour2_distractors31_r.png,r,3,2,31,0,,,,,0,206,206,206,,,,,,,,,,,,,,,,,,,,,,,,,,,,,,,,,,,,,,,,,,,557.9141594490502,None,2,0.4063463110360317,557.9141594490502,None,,,,,,,,,,,,,,,,None,None,None,,None,None,558.3713342540432,None,3,1,0.7758583649992943,558.3713342540432,None,559.1473600796074,None,None,None,None,,31,001,2023_Jan_24_1415,searchDisc5,2021.2.3,59.81950838459925,
images/exp2c_trial_252_colour3_distractors19_l.png,l,1,3,19,0,,,,,0,207,207,207,,,,,,,,,,,,,,,,,,,,,,,,,,,,,,,,,,,,,,,,,,,559.1638761720387,None,2,0.2711542289471254,559.1638761720387,None,,,,,,,,,,,,,,,,None,None,None,,None,None,559.481185591023,None,1,1,0.6867819559993222,559.481185591023,None,560.1639979836531,None,None,None,None,,31,001,2023_Jan_24_1415,searchDisc5,2021.2.3,59.81950838459925,
images/exp1a_trial_318_colour0_distractors0_r.png,r,3,0,0,0,,,,,0,208,208,208,,,,,,,,,,,,,,,,,,,,,,,,,,,,,,,,,,,,,,,,,,,560.1807306930423,None,2,0.27202794404001907,560.1807306930423,None,,,,,,,,,,,,,,,,None,None,None,,None,None,560.4982430500095,None,3,1,0.6239349929965101,560.4982430500095,None,561.1161743486067,None,None,None,None,,31,001,2023_Jan_24_1415,searchDisc5,2021.2.3,59.81950838459925,
images/exp2c_trial_314_colour3_distractors4_l.png,l,1,3,4,0,,,,,0,209,209,209,,,,,,,,,,,,,,,,,,,,,,,,,,,,,,,,,,,,,,,,,,,561.1335701860371,None,2,0.6863615119946189,561.1335701860371,None,,,,,,,,,,,,,,,,None,None,None,,None,None,561.8671102980152,None,1,1,0.7541693450184539,561.8671102980152,None,562.6140550026088,None,None,None,None,,31,001,2023_Jan_24_1415,searchDisc5,2021.2.3,59.81950838459925,
images/exp1a_trial_128_colour1_distractors1_r.png,r,3,1,1,0,,,,,0,210,210,210,,,,,,,,,,,,,,,,,,,,,,,,,,,,,,,,,,,,,,,,,,,562.6309266610187,None,2,0.2881269070203416,562.6309266610187,None,,,,,,,,,,,,,,,,None,None,None,,None,None,562.9648744540173,None,3,1,0.7052497679833323,562.9648744540173,None,563.6641856846167,None,None,None,None,,31,001,2023_Jan_24_1415,searchDisc5,2021.2.3,59.81950838459925,
images/exp2b_trial_211_colour1_distractors31_l.png,l,1,1,31,0,,,,,0,211,211,211,,,,,,,,,,,,,,,,,,,,,,,,,,,,,,,,,,,,,,,,,,,563.6815257270355,None,2,0.27211158798309043,563.6815257270355,None,,,,,,,,,,,,,,,,None,None,None,,None,None,563.9979478640016,None,1,1,0.718264953000471,563.9979478640016,None,564.7142144756275,None,None,None,None,,31,001,2023_Jan_24_1415,searchDisc5,2021.2.3,59.81950838459925,
images/exp1a_trial_262_colour2_distractors4_r.png,r,3,2,4,0,,,,,0,212,212,212,,,,,,,,,,,,,,,,,,,,,,,,,,,,,,,,,,,,,,,,,,,564.7333278779988,None,2,0.42122825799742714,564.7333278779988,None,,,,,,,,,,,,,,,,None,None,None,,None,None,565.1982870190404,None,3,1,0.7228819279698655,565.1982870190404,None,565.9137440375983,None,None,None,None,,31,001,2023_Jan_24_1415,searchDisc5,2021.2.3,59.81950838459925,
images/exp1a_trial_310_colour2_distractors9_l.png,l,1,2,9,0,,,,,0,213,213,213,,,,,,,,,,,,,,,,,,,,,,,,,,,,,,,,,,,,,,,,,,,565.9308926490485,None,2,0.1859622310148552,565.9308926490485,None,,,,,,,,,,,,,,,,None,None,None,,None,None,566.1663034300436,None,1,1,0.6365715770516545,566.1663034300436,None,566.7975268626236,None,None,None,None,,31,001,2023_Jan_24_1415,searchDisc5,2021.2.3,59.81950838459925,
images/exp2b_trial_276_colour2_distractors1_l.png,l,1,2,1,0,,,,,0,214,214,214,,,,,,,,,,,,,,,,,,,,,,,,,,,,,,,,,,,,,,,,,,,566.8145509280148,None,2,0.28806355502456427,566.8145509280148,None,,,,,,,,,,,,,,,,None,None,None,,None,None,567.1477938170428,None,1,1,0.6559668200206943,567.1477938170428,None,567.7976175656426,None,None,None,None,,31,001,2023_Jan_24_1415,searchDisc5,2021.2.3,59.81950838459925,
images/exp2a_trial_162_colour1_distractors9_r.png,r,3,1,9,0,,,,,0,215,215,215,,,,,,,,,,,,,,,,,,,,,,,,,,,,,,,,,,,,,,,,,,,567.8167161390302,None,2,0.3221919300267473,567.8167161390302,None,,,,,,,,,,,,,,,,None,None,None,,None,None,568.1831433460466,None,3,1,0.9867454789928161,568.1831433460466,None,569.1644504336058,None,None,None,None,,31,001,2023_Jan_24_1415,searchDisc5,2021.2.3,59.81950838459925,
images/exp2c_trial_212_colour2_distractors1_l.png,l,1,2,1,0,,,,,0,216,216,216,,,,,,,,,,,,,,,,,,,,,,,,,,,,,,,,,,,,,,,,,,,569.1807262560469,None,2,0.5211105800117366,569.1807262560469,None,,,,,,,,,,,,,,,,None,None,None,,None,None,569.7503716200008,None,1,1,0.5241863029659726,569.7503716200008,None,570.2654175746487,None,None,None,None,,31,001,2023_Jan_24_1415,searchDisc5,2021.2.3,59.81950838459925,
images/exp2c_trial_148_colour2_distractors1_l.png,l,1,2,1,0,,,,,0,217,217,217,,,,,,,,,,,,,,,,,,,,,,,,,,,,,,,,,,,,,,,,,,,570.2824619750027,None,2,0.30296004604315385,570.2824619750027,None,,,,,,,,,,,,,,,,None,None,None,,None,None,570.6305773649947,None,1,1,0.5723334110225551,570.6305773649947,None,571.1976361846085,None,None,None,None,,31,001,2023_Jan_24_1415,searchDisc5,2021.2.3,59.81950838459925,
images/exp1a_trial_197_colour2_distractors1_r.png,r,3,2,1,0,,,,,0,218,218,218,,,,,,,,,,,,,,,,,,,,,,,,,,,,,,,,,,,,,,,,,,,571.2149942539982,None,2,0.25650247099110857,571.2149942539982,None,,,,,,,,,,,,,,,,None,None,None,,None,None,571.5164391610306,None,3,1,0.7048634879756719,571.5164391610306,None,572.2143281326047,None,None,None,None,,31,001,2023_Jan_24_1415,searchDisc5,2021.2.3,59.81950838459925,
images/exp2b_trial_51_colour1_distractors31_l.png,l,1,1,31,0,,,,,0,219,219,219,,,,,,,,,,,,,,,,,,,,,,,,,,,,,,,,,,,,,,,,,,,572.2312439460075,None,2,0.6698653820203617,572.2312439460075,None,,,,,,,,,,,,,,,,None,None,None,,None,None,572.9487347050454,None,1,1,0.5524943000054918,572.9487347050454,None,573.4978231776389,None,None,None,None,,31,001,2023_Jan_24_1415,searchDisc5,2021.2.3,59.81950838459925,
images/exp2a_trial_121_colour3_distractors1_l.png,l,1,3,1,0,,,,,0,220,220,220,,,,,,,,,,,,,,,,,,,,,,,,,,,,,,,,,,,,,,,,,,,573.5170142590068,None,2,0.2712899900507182,573.5170142590068,None,,,,,,,,,,,,,,,,None,None,None,,None,None,573.8321779490216,None,1,1,0.4724832469946705,573.8321779490216,None,574.2977354546077,None,None,None,None,,31,001,2023_Jan_24_1415,searchDisc5,2021.2.3,59.81950838459925,
images/exp1a_trial_62_colour0_distractors0_r.png,r,3,0,0,0,,,,,0,221,221,221,,,,,,,,,,,,,,,,,,,,,,,,,,,,,,,,,,,,,,,,,,,574.3142629290232,None,2,0.2721433849656023,574.3142629290232,None,,,,,,,,,,,,,,,,None,None,None,,None,None,574.6323002690333,None,3,1,0.4712678390205838,574.6323002690333,None,575.0974404386128,None,None,None,None,,31,001,2023_Jan_24_1415,searchDisc5,2021.2.3,59.81950838459925,
images/exp2c_trial_107_colour3_distractors4_r.png,r,3,3,4,0,,,,,0,222,222,222,,,,,,,,,,,,,,,,,,,,,,,,,,,,,,,,,,,,,,,,,,,575.1141961530084,None,2,0.33959337702253833,575.1141961530084,None,,,,,,,,,,,,,,,,None,None,None,,None,None,575.4979477770394,None,3,1,0.8535666129901074,575.4979477770394,None,576.3477415706496,None,None,None,None,,31,001,2023_Jan_24_1415,searchDisc5,2021.2.3,59.81950838459925,
images/exp2a_trial_238_colour3_distractors31_r.png,r,3,3,31,0,,,,,0,223,223,223,,,,,,,,,,,,,,,,,,,,,,,,,,,,,,,,,,,,,,,,,,,576.3643088249955,None,2,0.5248395469971001,576.3643088249955,None,,,,,,,,,,,,,,,,None,None,None,,None,None,576.9322652440169,None,3,1,1.0492704489734024,576.9322652440169,None,577.9813827496022,None,None,None,None,,31,001,2023_Jan_24_1415,searchDisc5,2021.2.3,59.81950838459925,
images/exp2b_trial_54_colour2_distractors9_l.png,l,1,2,9,0,,,,,0,224,224,224,,,,,,,,,,,,,,,,,,,,,,,,,,,,,,,,,,,,,,,,,,,577.9984480480198,None,2,0.30521049100207165,577.9984480480198,None,,,,,,,,,,,,,,,,None,None,None,,None,None,578.3490932090208,None,1,1,0.5697159789851867,578.3490932090208,None,578.9146858966327,None,None,None,None,,31,001,2023_Jan_24_1415,searchDisc5,2021.2.3,59.81950838459925,
images/exp2b_trial_180_colour2_distractors1_l.png,l,1,2,1,0,,,,,0,225,225,225,,,,,,,,,,,,,,,,,,,,,,,,,,,,,,,,,,,,,,,,,,,578.9337344689993,None,2,0.25441349198808894,578.9337344689993,None,,,,,,,,,,,,,,,,None,None,None,,None,None,579.2304228889989,None,1,1,0.6391646499978378,579.2304228889989,None,579.864672000613,None,None,None,None,,31,001,2023_Jan_24_1415,searchDisc5,2021.2.3,59.81950838459925,
