ImageFile,targ_side,correctAnswer,colour,distNo,targetType,trials_2.thisRepN,trials_2.thisTrialN,trials_2.thisN,trials_2.thisIndex,trials.thisRepN,trials.thisTrialN,trials.thisN,trials.thisIndex,text_6.started,text_6.stopped,buttonBox.keys,buttonBox.rt,buttonBox.started,buttonBox.stopped,text_7.started,text_7.stopped,buttonBox_3.keys,buttonBox_3.rt,buttonBox_3.started,buttonBox_3.stopped,text_8.started,text_8.stopped,buttonBox_4.keys,buttonBox_4.rt,buttonBox_4.started,buttonBox_4.stopped,text_9.started,text_9.stopped,buttonBox_5.keys,buttonBox_5.rt,buttonBox_5.started,buttonBox_5.stopped,text_2.started,text_2.stopped,buttonBox_6.keys,buttonBox_6.rt,buttonBox_6.started,buttonBox_6.stopped,text_5.started,text_5.stopped,buttonBox_7.keys,buttonBox_7.rt,image_2.started,image_2.stopped,image_3.started,image_3.stopped,buttonBox_8.keys,buttonBox_8.rt,buttonBox_8.started,buttonBox_8.stopped,polygon.started,polygon.stopped,buttonBox_9.keys,buttonBox_9.rt,buttonBox_9.started,buttonBox_9.stopped,image.started,image.stopped,buttonBox_10.keys,buttonBox_10.corr,buttonBox_10.rt,buttonBox_10.started,buttonBox_10.stopped,text_4.started,text_4.stopped,text.started,text.stopped,buttonBox_11.keys,buttonBox_11.rt,buttonBox_11.started,buttonBox_11.stopped,targetTypeInstruction.started,targetTypeInstruction.stopped,buttonBox_2.keys,buttonBox_2.rt,buttonBox_2.started,buttonBox_2.stopped,dispStimuli.started,dispStimuli.stopped,buttonBox_12.keys,buttonBox_12.corr,buttonBox_12.rt,buttonBox_12.started,buttonBox_12.stopped,breakMessage.started,breakMessage.stopped,buttonBox_13.keys,buttonBox_13.started,buttonBox_13.stopped,buttonBox_13.rt,participant,session,date,expName,psychopyVersion,frameRate,
,,,,,,,,,,,,,,126.13705430098344,None,2,84.19182727398584,126.13705430098344,None,,,,,,,,,,,,,,,,,,,,,,,,,,,,,,,,,,,,,,,,,,,,,,,,,,,,,,,,,,,,,,,,,,,,,,,,,,,,,34,001,2023_Jan_30_1122,searchDisc5,2021.2.3,60.01791990129429,
,,,,,,,,,,,,,,,,,,,,210.32175502501195,None,2,0.16298012604238465,210.32175502501195,None,,,,,,,,,,,,,,,,,,,,,,,,,,,,,,,,,,,,,,,,,,,,,,,,,,,,,,,,,,,,,,,,,,,,,,,34,001,2023_Jan_30_1122,searchDisc5,2021.2.3,60.01791990129429,
,,,,,,,,,,,,,,,,,,,,,,,,,,210.48677000199677,None,2,5.6647764230147,210.48677000199677,None,,,,,,,,,,,,,,,,,,,,,,,,,,,,,,,,,,,,,,,,,,,,,,,,,,,,,,,,,,,,,,,,,34,001,2023_Jan_30_1122,searchDisc5,2021.2.3,60.01791990129429,
,,,,,,,,,,,,,,,,,,,,,,,,,,,,,,,,216.15357123903232,None,2,3.51445000001695,216.15357123903232,None,,,,,,,,,,,,,,,,,,,,,,,,,,,,,,,,,,,,,,,,,,,,,,,,,,,,,,,,,,,34,001,2023_Jan_30_1122,searchDisc5,2021.2.3,60.01791990129429,
,,,,,,,,,,,,,,,,,,,,,,,,,,,,,,,,,,,,,,219.67023397103185,None,2,9.364853358012624,220.65570079098688,None,,,,,,,,,,,,,,,,,,,,,,,,,,,,,,,,,,,,,,,,,,,,,,,,,,,,,34,001,2023_Jan_30_1122,searchDisc5,2021.2.3,60.01791990129429,
,,,,,,,,,,,,,,,,,,,,,,,,,,,,,,,,,,,,,,,,,,,,230.02019529999234,None,2,15.652541338989977,,,,,,,,,,,,,,,,,,,,,,,,,,,,,,,,,,,,,,,,,,,,,,,,,34,001,2023_Jan_30_1122,searchDisc5,2021.2.3,60.01791990129429,
,,,,,,,,,,,,,,,,,,,,,,,,,,,,,,,,,,,,,,,,,,,,,,,,248.68766834400594,None,248.68766834400594,None,2,5.862269403995015,248.68766834400594,None,,,,,,,,,,,,,,,,,,,,,,,,,,,,,,,,,,,,,,,,,34,001,2023_Jan_30_1122,searchDisc5,2021.2.3,60.01791990129429,
Practice arrays/exp1a_trial_16_colour1_distractors4_l.png,l,1,,,,0,0,0,13,,,,,,,,,,,,,,,,,,,,,,,,,,,,,,,,,,,,,,,,,,,,,,,254.57331888598856,None,2,12.45043425494805,254.57331888598856,None,267.07153007999295,272.07168406201527,1,1,15.422283841005992,267.07153007999295,None,282.4917844160227,None,,,,,,,,,,,,,,,,,,,,,,,,,,34,001,2023_Jan_30_1122,searchDisc5,2021.2.3,60.01791990129429,
Practice arrays/exp1a_trial_7_colour2_distractors9_r.png,r,3,,,,0,1,1,2,,,,,,,,,,,,,,,,,,,,,,,,,,,,,,,,,,,,,,,,,,,,,,,284.4907710070256,None,2,4.846908223000355,284.4907710070256,None,289.39110174402595,None,3,1,2.967691575002391,289.39110174402595,None,292.3557565389783,None,,,,,,,,,,,,,,,,,,,,,,,,,,34,001,2023_Jan_30_1122,searchDisc5,2021.2.3,60.01791990129429,
Practice arrays/exp1a_trial_8_colour2_distractors19_r.png,r,3,,,,0,2,2,3,,,,,,,,,,,,,,,,,,,,,,,,,,,,,,,,,,,,,,,,,,,,,,,294.35779010597616,None,2,2.996928595995996,294.35779010597616,None,297.40731948497705,None,3,1,2.0987034469726495,297.40731948497705,None,299.506011452002,None,,,,,,,,,,,,,,,,,,,,,,,,,,34,001,2023_Jan_30_1122,searchDisc5,2021.2.3,60.01791990129429,
Practice arrays/exp1a_trial_1_colour1_distractors4_r.png,r,3,,,,0,3,3,1,,,,,,,,,,,,,,,,,,,,,,,,,,,,,,,,,,,,,,,,,,,,,,,301.5075107329758,None,2,1.4303868690039963,301.5075107329758,None,302.9914898169809,None,3,1,0.7179831460234709,302.9914898169809,None,303.70578268298414,None,,,,,,,,,,,,,,,,,,,,,,,,,,34,001,2023_Jan_30_1122,searchDisc5,2021.2.3,60.01791990129429,
Practice arrays/exp1a_trial_27_colour3_distractors9_l.png,l,1,,,,0,4,4,12,,,,,,,,,,,,,,,,,,,,,,,,,,,,,,,,,,,,,,,,,,,,,,,305.70803547801916,None,2,0.663906030007638,305.70803547801916,None,306.42492703098105,None,1,1,0.45212000800529495,306.42492703098105,None,306.87257254403085,None,,,,,,,,,,,,,,,,,,,,,,,,,,34,001,2023_Jan_30_1122,searchDisc5,2021.2.3,60.01791990129429,
Practice arrays/exp1a_trial_17_colour1_distractors9_l.png,l,1,,,,0,5,5,7,,,,,,,,,,,,,,,,,,,,,,,,,,,,,,,,,,,,,,,,,,,,,,,308.874797269993,None,2,0.6469270139932632,308.874797269993,None,309.57506638299674,None,1,1,0.701796829001978,309.57506638299674,None,310.27227632899303,None,,,,,,,,,,,,,,,,,,,,,,,,,,34,001,2023_Jan_30_1122,searchDisc5,2021.2.3,60.01791990129429,
Practice arrays/exp1a_trial_18_colour1_distractors19_l.png,l,1,,,,0,6,6,8,,,,,,,,,,,,,,,,,,,,,,,,,,,,,,,,,,,,,,,,,,,,,,,312.27430546301184,None,2,0.44713480095379055,312.27430546301184,None,312.7724835019908,None,1,1,0.7482445709756576,312.7724835019908,None,313.5230753290234,None,,,,,,,,,,,,,,,,,,,,,,,,,,34,001,2023_Jan_30_1122,searchDisc5,2021.2.3,60.01791990129429,
Practice arrays/exp1a_trial_31_colour0_distractors0_l.png,l,1,,,,0,7,7,15,,,,,,,,,,,,,,,,,,,,,,,,,,,,,,,,,,,,,,,,,,,,,,,315.52496055100346,None,2,0.4129571109660901,315.52496055100346,None,315.9891763930209,None,1,1,0.44005902198841795,315.9891763930209,None,316.4223261839943,None,,,,,,,,,,,,,,,,,,,,,,,,,,34,001,2023_Jan_30_1122,searchDisc5,2021.2.3,60.01791990129429,
Practice arrays/exp1a_trial_12_colour3_distractors9_r.png,r,3,,,,0,8,8,5,,,,,,,,,,,,,,,,,,,,,,,,,,,,,,,,,,,,,,,,,,,,,,,318.4245769120171,None,2,0.6004658910096623,318.4245769120171,None,319.07302374602295,None,3,1,0.6669257549801841,319.07302374602295,None,319.73973566899076,None,,,,,,,,,,,,,,,,,,,,,,,,,,34,001,2023_Jan_30_1122,searchDisc5,2021.2.3,60.01791990129429,
Practice arrays/exp1a_trial_10_colour3_distractors1_r.png,r,3,,,,0,9,9,4,,,,,,,,,,,,,,,,,,,,,,,,,,,,,,,,,,,,,,,,,,,,,,,321.7419053540216,None,2,0.8492614449933171,321.7419053540216,None,322.64147929800674,None,3,1,0.7180766010424122,322.64147929800674,None,323.35635628399905,None,,,,,,,,,,,,,,,,,,,,,,,,,,34,001,2023_Jan_30_1122,searchDisc5,2021.2.3,60.01791990129429,
Practice arrays/exp1a_trial_25_colour3_distractors1_l.png,l,1,,,,0,10,10,11,,,,,,,,,,,,,,,,,,,,,,,,,,,,,,,,,,,,,,,,,,,,,,,325.35871805401985,None,2,1.0473679609713145,325.35871805401985,None,326.45899702602765,None,1,1,0.7725724310148507,326.45899702602765,None,327.22310646198457,None,,,,,,,,,,,,,,,,,,,,,,,,,,34,001,2023_Jan_30_1122,searchDisc5,2021.2.3,60.01791990129429,
Practice arrays/exp1a_trial_30_colour0_distractors0_r.png,r,3,,,,0,11,11,14,,,,,,,,,,,,,,,,,,,,,,,,,,,,,,,,,,,,,,,,,,,,,,,329.2249833539827,None,2,0.7802840559743345,329.2249833539827,None,330.05625741300173,None,3,1,0.6519274619640782,330.05625741300173,None,330.70653472997947,None,,,,,,,,,,,,,,,,,,,,,,,,,,34,001,2023_Jan_30_1122,searchDisc5,2021.2.3,60.01791990129429,
Practice arrays/exp1a_trial_14_colour3_distractors31_r.png,r,3,,,,0,12,12,6,,,,,,,,,,,,,,,,,,,,,,,,,,,,,,,,,,,,,,,,,,,,,,,332.7083737850189,None,2,1.1471859539742582,332.7083737850189,None,333.9067294889828,None,3,1,0.5666027609840967,333.9067294889828,None,334.47333092900226,None,,,,,,,,,,,,,,,,,,,,,,,,,,34,001,2023_Jan_30_1122,searchDisc5,2021.2.3,60.01791990129429,
Practice arrays/exp1a_trial_21_colour2_distractors4_l.png,l,1,,,,0,13,13,9,,,,,,,,,,,,,,,,,,,,,,,,,,,,,,,,,,,,,,,,,,,,,,,336.4755402759765,None,2,0.732480178005062,336.4755402759765,None,337.2585931500071,None,1,1,0.6026000919518992,337.2585931500071,None,337.85683709499426,None,,,,,,,,,,,,,,,,,,,,,,,,,,34,001,2023_Jan_30_1122,searchDisc5,2021.2.3,60.01791990129429,
Practice arrays/exp1a_trial_23_colour2_distractors19_l.png,l,1,,,,0,14,14,10,,,,,,,,,,,,,,,,,,,,,,,,,,,,,,,,,,,,,,,,,,,,,,,339.8586614759988,None,2,0.6472125490545295,339.8586614759988,None,340.5588659219793,None,1,1,0.7677912879735231,340.5588659219793,None,341.32357297698036,None,,,,,,,,,,,,,,,,,,,,,,,,,,34,001,2023_Jan_30_1122,searchDisc5,2021.2.3,60.01791990129429,
Practice arrays/exp1a_trial_0_colour1_distractors1_r.png,r,3,,,,0,15,15,0,,,,,,,,,,,,,,,,,,,,,,,,,,,,,,,,,,,,,,,,,,,,,,,343.32517575501697,None,2,0.8147452530101873,343.32517575501697,None,344.19031984801404,None,3,1,0.6869381080032326,344.19031984801404,None,344.8738268549787,None,,,,,,,,,,,,,,,,,,,,,,,,,,34,001,2023_Jan_30_1122,searchDisc5,2021.2.3,60.01791990129429,
,,,,,,,,,,,,,,,,,,,,,,,,,,,,,,,,,,,,,,,,,,,,,,,,,,,,,,,,,,,,,,,,,,,,,,,346.9593367120251,None,2,15.204749118012842,347.940482866019,None,,,,,,,,,,,,,,,,,,,,34,001,2023_Jan_30_1122,searchDisc5,2021.2.3,60.01791990129429,
images/exp1b_trial_5_colour2_distractors1_r.png,r,3,2,1,1,,,,,0,0,0,0,,,,,,,,,,,,,,,,,,,,,,,,,,,,,,,,,,,,,,,,,,,368.55725300498307,None,2,2.462355818017386,368.55725300498307,None,,,,,,,,,,,,,,,,363.7430531249847,None,2,2.8334362599998713,365.72623450501123,None,371.085610854032,None,3,1,0.9782068930217065,371.085610854032,None,372.074168534833,None,None,None,None,,34,001,2023_Jan_30_1122,searchDisc5,2021.2.3,60.01791990129429,
images/exp1b_trial_64_colour1_distractors1_r.png,r,3,1,1,1,,,,,0,1,1,1,,,,,,,,,,,,,,,,,,,,,,,,,,,,,,,,,,,,,,,,,,,372.0910480460152,None,2,1.8533829799853265,372.0910480460152,None,,,,,,,,,,,,,,,,None,None,None,,None,None,373.99307903199224,None,3,1,0.7195499319932424,373.99307903199224,None,374.7071996149025,None,None,None,None,,34,001,2023_Jan_30_1122,searchDisc5,2021.2.3,60.01791990129429,
images/exp1b_trial_260_colour1_distractors31_r.png,r,3,1,31,1,,,,,0,2,2,2,,,,,,,,,,,,,,,,,,,,,,,,,,,,,,,,,,,,,,,,,,,374.72420844598673,None,2,1.2867088530329056,374.72420844598673,None,,,,,,,,,,,,,,,,None,None,None,,None,None,376.0595090590068,None,3,1,1.16739817999769,376.0595090590068,None,377.2245239649201,None,None,None,None,,34,001,2023_Jan_30_1122,searchDisc5,2021.2.3,60.01791990129429,
images/exp1b_trial_89_colour3_distractors1_l.png,l,1,3,1,1,,,,,0,3,3,3,,,,,,,,,,,,,,,,,,,,,,,,,,,,,,,,,,,,,,,,,,,377.24086544202873,None,2,0.7868807199993171,377.24086544202873,None,,,,,,,,,,,,,,,,None,None,None,,None,None,378.0769778600079,None,1,1,0.6863678740337491,378.0769778600079,None,378.7577405088814,None,None,None,None,,34,001,2023_Jan_30_1122,searchDisc5,2021.2.3,60.01791990129429,
images/exp1b_trial_203_colour3_distractors4_r.png,r,3,3,4,1,,,,,0,4,4,4,,,,,,,,,,,,,,,,,,,,,,,,,,,,,,,,,,,,,,,,,,,378.77620583499083,None,2,0.620243092009332,378.77620583499083,None,,,,,,,,,,,,,,,,None,None,None,,None,None,379.44133864098694,None,3,1,0.8211298150126822,379.44133864098694,None,380.2577912659035,None,None,None,None,,34,001,2023_Jan_30_1122,searchDisc5,2021.2.3,60.01791990129429,
images/exp1b_trial_68_colour1_distractors31_r.png,r,3,1,31,1,,,,,0,5,5,5,,,,,,,,,,,,,,,,,,,,,,,,,,,,,,,,,,,,,,,,,,,380.27657689800253,None,2,0.6380006810068153,380.27657689800253,None,,,,,,,,,,,,,,,,None,None,None,,None,None,380.9578575339983,None,3,1,1.51402554102242,380.9578575339983,None,382.4746221448877,None,None,None,None,,34,001,2023_Jan_30_1122,searchDisc5,2021.2.3,60.01791990129429,
images/exp1b_trial_55_colour2_distractors19_l.png,l,1,2,19,1,,,,,0,6,6,6,,,,,,,,,,,,,,,,,,,,,,,,,,,,,,,,,,,,,,,,,,,382.491282152012,None,2,0.7066508830175735,382.491282152012,None,,,,,,,,,,,,,,,,None,None,None,,None,None,383.24103225697763,None,1,1,0.9682568080024794,383.24103225697763,None,384.20796962687746,None,None,None,None,,34,001,2023_Jan_30_1122,searchDisc5,2021.2.3,60.01791990129429,
images/exp1b_trial_131_colour1_distractors19_r.png,r,3,1,19,1,,,,,0,7,7,7,,,,,,,,,,,,,,,,,,,,,,,,,,,,,,,,,,,,,,,,,,,384.2242568380316,None,2,0.4745185549836606,384.2242568380316,None,,,,,,,,,,,,,,,,None,None,None,,None,None,384.7412724100286,None,3,1,0.8497564959689043,384.7412724100286,None,385.591381652921,None,None,None,None,,34,001,2023_Jan_30_1122,searchDisc5,2021.2.3,60.01791990129429,
images/exp1b_trial_299_colour3_distractors4_r.png,r,3,3,4,1,,,,,0,8,8,8,,,,,,,,,,,,,,,,,,,,,,,,,,,,,,,,,,,,,,,,,,,385.6073447809904,None,2,0.4053352760383859,385.6073447809904,None,,,,,,,,,,,,,,,,None,None,None,,None,None,386.06060243200045,None,3,1,0.6185452649951912,386.06060243200045,None,386.67471699690213,None,None,None,None,,34,001,2023_Jan_30_1122,searchDisc5,2021.2.3,60.01791990129429,
images/exp1b_trial_263_colour2_distractors9_r.png,r,3,2,9,1,,,,,0,9,9,9,,,,,,,,,,,,,,,,,,,,,,,,,,,,,,,,,,,,,,,,,,,386.6908732790034,None,2,0.38806579797528684,386.6908732790034,None,,,,,,,,,,,,,,,,None,None,None,,None,None,387.1245438759797,None,3,1,0.9541571150184609,387.1245438759797,None,388.07440652989317,None,None,None,None,,34,001,2023_Jan_30_1122,searchDisc5,2021.2.3,60.01791990129429,
images/exp1b_trial_13_colour3_distractors19_r.png,r,3,3,19,1,,,,,0,10,10,10,,,,,,,,,,,,,,,,,,,,,,,,,,,,,,,,,,,,,,,,,,,388.0928474449902,None,2,0.40674842899898067,388.0928474449902,None,,,,,,,,,,,,,,,,None,None,None,,None,None,388.5418149729958,None,3,1,0.9994924920029007,388.5418149729958,None,389.54133448487846,None,None,None,None,,34,001,2023_Jan_30_1122,searchDisc5,2021.2.3,60.01791990129429,
images/exp1b_trial_302_colour3_distractors31_r.png,r,3,3,31,1,,,,,0,11,11,11,,,,,,,,,,,,,,,,,,,,,,,,,,,,,,,,,,,,,,,,,,,389.5574947189889,None,2,0.4058380729984492,389.5574947189889,None,,,,,,,,,,,,,,,,None,None,None,,None,None,390.0104800100089,None,3,1,1.2342300179880112,390.0104800100089,None,391.24173751991475,None,None,None,None,,34,001,2023_Jan_30_1122,searchDisc5,2021.2.3,60.01791990129429,
images/exp1b_trial_116_colour2_distractors1_l.png,l,1,2,1,1,,,,,0,12,12,12,,,,,,,,,,,,,,,,,,,,,,,,,,,,,,,,,,,,,,,,,,,391.25818895403063,None,2,0.7710969269974157,391.25818895403063,None,,,,,,,,,,,,,,,,None,None,None,,None,None,392.07688631198835,None,1,1,0.6857553360168822,392.07688631198835,None,392.7581736049033,None,None,None,None,,34,001,2023_Jan_30_1122,searchDisc5,2021.2.3,60.01791990129429,
images/exp1b_trial_62_colour0_distractors0_r.png,r,3,0,0,1,,,,,0,13,13,13,,,,,,,,,,,,,,,,,,,,,,,,,,,,,,,,,,,,,,,,,,,392.7771425230312,None,2,0.47133631200995296,392.7771425230312,None,,,,,,,,,,,,,,,,None,None,None,,None,None,393.29390970797976,None,3,1,0.6056906129815616,393.29390970797976,None,393.89175040391274,None,None,None,None,,34,001,2023_Jan_30_1122,searchDisc5,2021.2.3,60.01791990129429,
images/exp1b_trial_75_colour3_distractors4_r.png,r,3,3,4,1,,,,,0,14,14,14,,,,,,,,,,,,,,,,,,,,,,,,,,,,,,,,,,,,,,,,,,,393.9082442839863,None,2,0.4397327769547701,393.9082442839863,None,,,,,,,,,,,,,,,,None,None,None,,None,None,394.39145139203174,None,3,1,0.7691294550313614,394.39145139203174,None,395.15842473792145,None,None,None,None,,34,001,2023_Jan_30_1122,searchDisc5,2021.2.3,60.01791990129429,
images/exp1b_trial_294_colour2_distractors4_r.png,r,3,2,4,1,,,,,0,15,15,15,,,,,,,,,,,,,,,,,,,,,,,,,,,,,,,,,,,,,,,,,,,395.17512915597763,None,2,0.3873053599963896,395.17512915597763,None,,,,,,,,,,,,,,,,None,None,None,,None,None,395.610168987012,None,3,1,1.071514415962156,395.610168987012,None,396.67493207391817,None,None,None,None,,34,001,2023_Jan_30_1122,searchDisc5,2021.2.3,60.01791990129429,
images/exp1b_trial_70_colour2_distractors4_r.png,r,3,2,4,1,,,,,0,16,16,16,,,,,,,,,,,,,,,,,,,,,,,,,,,,,,,,,,,,,,,,,,,396.6916981689865,None,2,0.388024226995185,396.6916981689865,None,,,,,,,,,,,,,,,,None,None,None,,None,None,397.1272978920024,None,3,1,0.5405136189656332,397.1272978920024,None,397.6583843678818,None,None,None,None,,34,001,2023_Jan_30_1122,searchDisc5,2021.2.3,60.01791990129429,
images/exp1b_trial_275_colour1_distractors31_l.png,l,1,1,31,1,,,,,0,17,17,17,,,,,,,,,,,,,,,,,,,,,,,,,,,,,,,,,,,,,,,,,,,397.674849587027,None,2,0.3359465860412456,397.674849587027,None,,,,,,,,,,,,,,,,None,None,None,,None,None,398.05833298002835,None,1,1,0.7840942289913073,398.05833298002835,None,398.84142892592354,None,None,None,None,,34,001,2023_Jan_30_1122,searchDisc5,2021.2.3,60.01791990129429,
images/exp1b_trial_287_colour0_distractors0_l.png,l,1,0,0,1,,,,,0,18,18,18,,,,,,,,,,,,,,,,,,,,,,,,,,,,,,,,,,,,,,,,,,,398.8583175779786,None,2,0.3708528610295616,398.8583175779786,None,,,,,,,,,,,,,,,,None,None,None,,None,None,399.27689438901143,None,1,1,0.5385055299848318,399.27689438901143,None,399.80881213390967,None,None,None,None,,34,001,2023_Jan_30_1122,searchDisc5,2021.2.3,60.01791990129429,
images/exp1b_trial_285_colour3_distractors31_l.png,l,1,3,31,1,,,,,0,19,19,19,,,,,,,,,,,,,,,,,,,,,,,,,,,,,,,,,,,,,,,,,,,399.82448948099045,None,2,0.3389718059916049,399.82448948099045,None,,,,,,,,,,,,,,,,None,None,None,,None,None,400.20804522099206,None,1,1,0.7337993119726889,400.20804522099206,None,400.94176940090256,None,None,None,None,,34,001,2023_Jan_30_1122,searchDisc5,2021.2.3,60.01791990129429,
images/exp1b_trial_108_colour3_distractors9_r.png,r,3,3,9,1,,,,,0,20,20,20,,,,,,,,,,,,,,,,,,,,,,,,,,,,,,,,,,,,,,,,,,,400.95849077700404,None,2,0.35477467597229406,400.95849077700404,None,,,,,,,,,,,,,,,,None,None,None,,None,None,401.358855383005,None,3,1,0.9366720120306127,401.358855383005,None,402.2919659729232,None,None,None,None,,34,001,2023_Jan_30_1122,searchDisc5,2021.2.3,60.01791990129429,
images/exp1b_trial_199_colour2_distractors9_r.png,r,3,2,9,1,,,,,0,21,21,21,,,,,,,,,,,,,,,,,,,,,,,,,,,,,,,,,,,,,,,,,,,402.3083596060169,None,2,0.3378051169565879,402.3083596060169,None,,,,,,,,,,,,,,,,None,None,None,,None,None,402.6915320259868,None,3,1,0.6713448819937184,402.6915320259868,None,403.35845550493104,None,None,None,None,,34,001,2023_Jan_30_1122,searchDisc5,2021.2.3,60.01791990129429,
images/exp1b_trial_235_colour3_distractors4_r.png,r,3,3,4,1,,,,,0,22,22,22,,,,,,,,,,,,,,,,,,,,,,,,,,,,,,,,,,,,,,,,,,,403.37493734201416,None,2,0.28694827295839787,403.37493734201416,None,,,,,,,,,,,,,,,,None,None,None,,None,None,403.70870445499895,None,3,1,0.7060582239646465,403.70870445499895,None,404.40848626190564,None,None,None,None,,34,001,2023_Jan_30_1122,searchDisc5,2021.2.3,60.01791990129429,
images/exp1b_trial_24_colour2_distractors31_l.png,l,1,2,31,1,,,,,0,23,23,23,,,,,,,,,,,,,,,,,,,,,,,,,,,,,,,,,,,,,,,,,,,404.42454559501493,None,2,0.3706039910321124,404.42454559501493,None,,,,,,,,,,,,,,,,None,None,None,,None,None,404.84365857200464,None,1,1,1.0694877310306765,404.84365857200464,None,405.90860952989897,None,None,None,None,,34,001,2023_Jan_30_1122,searchDisc5,2021.2.3,60.01791990129429,
images/exp1b_trial_79_colour1_distractors1_l.png,l,1,1,1,1,,,,,0,24,24,24,,,,,,,,,,,,,,,,,,,,,,,,,,,,,,,,,,,,,,,,,,,405.9252072380041,None,2,0.42323996796039864,405.9252072380041,None,,,,,,,,,,,,,,,,None,None,None,,None,None,406.3935415010201,None,1,1,0.8361325690057129,406.3935415010201,None,407.2253290009103,None,None,None,None,,34,001,2023_Jan_30_1122,searchDisc5,2021.2.3,60.01791990129429,
images/exp1b_trial_99_colour1_distractors19_r.png,r,3,1,19,1,,,,,0,25,25,25,,,,,,,,,,,,,,,,,,,,,,,,,,,,,,,,,,,,,,,,,,,407.24151294800686,None,2,0.38792860199464485,407.24151294800686,None,,,,,,,,,,,,,,,,None,None,None,,None,None,407.6775373449782,None,3,1,0.8359201250132173,407.6775373449782,None,408.508599894878,None,None,None,None,,34,001,2023_Jan_30_1122,searchDisc5,2021.2.3,60.01791990129429,
images/exp1b_trial_101_colour2_distractors1_r.png,r,3,2,1,1,,,,,0,26,26,26,,,,,,,,,,,,,,,,,,,,,,,,,,,,,,,,,,,,,,,,,,,408.52517347602407,None,2,0.38773678499273956,408.52517347602407,None,,,,,,,,,,,,,,,,None,None,None,,None,None,408.96100971498527,None,3,1,0.6716771170031279,408.96100971498527,None,409.62531004089396,None,None,None,None,,34,001,2023_Jan_30_1122,searchDisc5,2021.2.3,60.01791990129429,
images/exp1b_trial_248_colour2_distractors31_l.png,l,1,2,31,1,,,,,0,27,27,27,,,,,,,,,,,,,,,,,,,,,,,,,,,,,,,,,,,,,,,,,,,409.6420817230246,None,2,0.35475733695784584,409.6420817230246,None,,,,,,,,,,,,,,,,None,None,None,,None,None,410.0442746569752,None,1,1,1.00250857998617,410.0442746569752,None,411.0421329808887,None,None,None,None,,34,001,2023_Jan_30_1122,searchDisc5,2021.2.3,60.01791990129429,
images/exp1b_trial_241_colour1_distractors9_l.png,l,1,1,9,1,,,,,0,28,28,28,,,,,,,,,,,,,,,,,,,,,,,,,,,,,,,,,,,,,,,,,,,411.0584020119859,None,2,0.3710891919909045,411.0584020119859,None,,,,,,,,,,,,,,,,None,None,None,,None,None,411.4775896409992,None,1,1,0.8708521650405601,411.4775896409992,None,412.34208811388817,None,None,None,None,,34,001,2023_Jan_30_1122,searchDisc5,2021.2.3,60.01791990129429,
images/exp1b_trial_111_colour1_distractors1_l.png,l,1,1,1,1,,,,,0,29,29,29,,,,,,,,,,,,,,,,,,,,,,,,,,,,,,,,,,,,,,,,,,,412.3587856190279,None,2,0.473273089970462,412.3587856190279,None,,,,,,,,,,,,,,,,None,None,None,,None,None,412.8777321850066,None,1,1,0.5865469799609855,412.8777321850066,None,413.45820065488806,None,None,None,None,,34,001,2023_Jan_30_1122,searchDisc5,2021.2.3,60.01791990129429,
images/exp1b_trial_244_colour2_distractors1_l.png,l,1,2,1,1,,,,,0,30,30,30,,,,,,,,,,,,,,,,,,,,,,,,,,,,,,,,,,,,,,,,,,,413.47535579500254,None,2,0.3883392189745791,413.47535579500254,None,,,,,,,,,,,,,,,,None,None,None,,None,None,413.91050383402035,None,1,1,0.7235035900375806,413.91050383402035,None,414.6253777568927,None,None,None,None,,34,001,2023_Jan_30_1122,searchDisc5,2021.2.3,60.01791990129429,
images/exp1b_trial_153_colour3_distractors1_l.png,l,1,3,1,1,,,,,0,31,31,31,,,,,,,,,,,,,,,,,,,,,,,,,,,,,,,,,,,,,,,,,,,414.64242735900916,None,2,0.3378641720046289,414.64242735900916,None,,,,,,,,,,,,,,,,None,None,None,,None,None,415.0255531180301,None,1,1,0.6198981049819849,415.0255531180301,None,415.6421082778834,None,None,None,None,,34,001,2023_Jan_30_1122,searchDisc5,2021.2.3,60.01791990129429,
images/exp1b_trial_310_colour2_distractors9_l.png,l,1,2,9,1,,,,,0,32,32,32,,,,,,,,,,,,,,,,,,,,,,,,,,,,,,,,,,,,,,,,,,,415.66109653998865,None,2,0.25478097499581054,415.66109653998865,None,,,,,,,,,,,,,,,,None,None,None,,None,None,415.9586495180265,None,1,1,0.8700084399897605,415.9586495180265,None,416.82548386690905,None,None,None,None,,34,001,2023_Jan_30_1122,searchDisc5,2021.2.3,60.01791990129429,
images/exp1b_trial_187_colour3_distractors9_l.png,l,1,3,9,1,,,,,0,33,33,33,,,,,,,,,,,,,,,,,,,,,,,,,,,,,,,,,,,,,,,,,,,416.8420096639893,None,2,0.37152029399294406,416.8420096639893,None,,,,,,,,,,,,,,,,None,None,None,,None,None,417.2610994009883,None,1,1,0.9198952520382591,417.2610994009883,None,418.175472691888,None,None,None,None,,34,001,2023_Jan_30_1122,searchDisc5,2021.2.3,60.01791990129429,
images/exp1b_trial_29_colour3_distractors31_l.png,l,1,3,31,1,,,,,0,34,34,34,,,,,,,,,,,,,,,,,,,,,,,,,,,,,,,,,,,,,,,,,,,418.1922962840181,None,2,0.3705787720391527,418.1922962840181,None,,,,,,,,,,,,,,,,None,None,None,,None,None,418.6112367740134,None,1,1,0.6354388369945809,418.6112367740134,None,419.2421710698982,None,None,None,None,,34,001,2023_Jan_30_1122,searchDisc5,2021.2.3,60.01791990129429,
images/exp1b_trial_33_colour1_distractors4_r.png,r,3,1,4,1,,,,,0,35,35,35,,,,,,,,,,,,,,,,,,,,,,,,,,,,,,,,,,,,,,,,,,,419.25845838699024,None,2,0.3546541479881853,419.25845838699024,None,,,,,,,,,,,,,,,,None,None,None,,None,None,419.6594869919936,None,3,1,0.6047903829603456,419.6594869919936,None,420.259111632884,None,None,None,None,,34,001,2023_Jan_30_1122,searchDisc5,2021.2.3,60.01791990129429,
images/exp1b_trial_193_colour1_distractors4_r.png,r,3,1,4,1,,,,,0,36,36,36,,,,,,,,,,,,,,,,,,,,,,,,,,,,,,,,,,,,,,,,,,,420.27554738498293,None,2,0.33787110703997314,420.27554738498293,None,,,,,,,,,,,,,,,,None,None,None,,None,None,420.65901145199314,None,3,1,0.721669782011304,420.65901145199314,None,421.37560198892606,None,None,None,None,,34,001,2023_Jan_30_1122,searchDisc5,2021.2.3,60.01791990129429,
images/exp1b_trial_159_colour0_distractors0_l.png,l,1,0,0,1,,,,,0,37,37,37,,,,,,,,,,,,,,,,,,,,,,,,,,,,,,,,,,,,,,,,,,,421.39275242900476,None,2,0.37148605700349435,421.39275242900476,None,,,,,,,,,,,,,,,,None,None,None,,None,None,421.809230696992,None,1,1,0.5051450929604471,421.809230696992,None,422.30912104889285,None,None,None,None,,34,001,2023_Jan_30_1122,searchDisc5,2021.2.3,60.01791990129429,
images/exp1b_trial_218_colour3_distractors4_l.png,l,1,3,4,1,,,,,0,38,38,38,,,,,,,,,,,,,,,,,,,,,,,,,,,,,,,,,,,,,,,,,,,422.32531354000093,None,2,0.3046007749508135,422.32531354000093,None,,,,,,,,,,,,,,,,None,None,None,,None,None,422.67594984098105,None,1,1,0.6367630429449491,422.67594984098105,None,423.30810038390337,None,None,None,None,,34,001,2023_Jan_30_1122,searchDisc5,2021.2.3,60.01791990129429,
images/exp1b_trial_18_colour1_distractors19_l.png,l,1,1,19,1,,,,,0,39,39,39,,,,,,,,,,,,,,,,,,,,,,,,,,,,,,,,,,,,,,,,,,,423.32557481498225,None,2,0.5390160880051553,423.32557481498225,None,,,,,,,,,,,,,,,,None,None,None,,None,None,423.9107001730008,None,1,1,0.6685387429897673,423.9107001730008,None,424.5758992758929,None,None,None,None,,34,001,2023_Jan_30_1122,searchDisc5,2021.2.3,60.01791990129429,
images/exp1b_trial_11_colour3_distractors4_r.png,r,3,3,4,1,,,,,0,40,40,40,,,,,,,,,,,,,,,,,,,,,,,,,,,,,,,,,,,,,,,,,,,424.59216830303194,None,2,0.5376357110217214,424.59216830303194,None,,,,,,,,,,,,,,,,None,None,None,,None,None,425.17744073300855,None,3,1,0.7216759680304676,425.17744073300855,None,425.8925075609004,None,None,None,None,,34,001,2023_Jan_30_1122,searchDisc5,2021.2.3,60.01791990129429,
images/exp1b_trial_297_colour2_distractors31_r.png,r,3,2,31,1,,,,,0,41,41,41,,,,,,,,,,,,,,,,,,,,,,,,,,,,,,,,,,,,,,,,,,,425.9091720500146,None,2,0.3900023250025697,425.9091720500146,None,,,,,,,,,,,,,,,,None,None,None,,None,None,426.34470843401505,None,3,1,0.7335474300198257,426.34470843401505,None,427.07532320491737,None,None,None,None,,34,001,2023_Jan_30_1122,searchDisc5,2021.2.3,60.01791990129429,
images/exp1b_trial_200_colour2_distractors19_r.png,r,3,2,19,1,,,,,0,42,42,42,,,,,,,,,,,,,,,,,,,,,,,,,,,,,,,,,,,,,,,,,,,427.092656023975,None,2,0.471776687016245,427.092656023975,None,,,,,,,,,,,,,,,,None,None,None,,None,None,427.60915072698845,None,3,1,0.8385496390401386,427.60915072698845,None,428.44255214190343,None,None,None,None,,34,001,2023_Jan_30_1122,searchDisc5,2021.2.3,60.01791990129429,
images/exp1b_trial_138_colour3_distractors1_r.png,r,3,3,1,1,,,,,0,43,43,43,,,,,,,,,,,,,,,,,,,,,,,,,,,,,,,,,,,,,,,,,,,428.4586658219923,None,2,1.8064375259564258,428.4586658219923,None,,,,,,,,,,,,,,,,None,None,None,,None,None,430.31160198902944,None,3,1,0.667893819976598,430.31160198902944,None,430.9758739268873,None,None,None,None,,34,001,2023_Jan_30_1122,searchDisc5,2021.2.3,60.01791990129429,
images/exp1b_trial_160_colour1_distractors1_r.png,r,3,1,1,1,,,,,0,44,44,44,,,,,,,,,,,,,,,,,,,,,,,,,,,,,,,,,,,,,,,,,,,430.99248776602326,None,2,1.0878562690340914,430.99248776602326,None,,,,,,,,,,,,,,,,None,None,None,,None,None,432.12840802402934,None,3,1,0.7050168619607575,432.12840802402934,None,432.8253711858997,None,None,None,None,,34,001,2023_Jan_30_1122,searchDisc5,2021.2.3,60.01791990129429,
images/exp1b_trial_56_colour2_distractors31_l.png,l,1,2,31,1,,,,,0,45,45,45,,,,,,,,,,,,,,,,,,,,,,,,,,,,,,,,,,,,,,,,,,,432.84468336001737,None,2,0.4886330729932524,432.84468336001737,None,,,,,,,,,,,,,,,,None,None,None,,None,None,433.3782539200038,None,1,1,0.8535450150375254,433.3782539200038,None,434.2262463908992,None,None,None,None,,34,001,2023_Jan_30_1122,searchDisc5,2021.2.3,60.01791990129429,
images/exp1b_trial_134_colour2_distractors4_r.png,r,3,2,4,1,,,,,0,46,46,46,,,,,,,,,,,,,,,,,,,,,,,,,,,,,,,,,,,,,,,,,,,434.2445645760163,None,2,0.38963198696728796,434.2445645760163,None,,,,,,,,,,,,,,,,None,None,None,,None,None,434.6782493700157,None,3,1,0.5022865090286359,434.6782493700157,None,435.1760682609165,None,None,None,None,,34,001,2023_Jan_30_1122,searchDisc5,2021.2.3,60.01791990129429,
images/exp1b_trial_208_colour1_distractors4_l.png,l,1,1,4,1,,,,,0,47,47,47,,,,,,,,,,,,,,,,,,,,,,,,,,,,,,,,,,,,,,,,,,,435.1927077639848,None,2,0.3898961849627085,435.1927077639848,None,,,,,,,,,,,,,,,,None,None,None,,None,None,435.62827656202717,None,1,1,0.6352082090452313,435.62827656202717,None,436.25938866089564,None,None,None,None,,34,001,2023_Jan_30_1122,searchDisc5,2021.2.3,60.01791990129429,
images/exp1b_trial_63_colour0_distractors0_l.png,l,1,0,0,1,,,,,0,48,48,48,,,,,,,,,,,,,,,,,,,,,,,,,,,,,,,,,,,,,,,,,,,436.27598186500836,None,2,0.3544433310162276,436.27598186500836,None,,,,,,,,,,,,,,,,None,None,None,,None,None,436.6763130300096,None,1,1,0.6052248280029744,436.6763130300096,None,437.2761711049243,None,None,None,None,,34,001,2023_Jan_30_1122,searchDisc5,2021.2.3,60.01791990129429,
images/exp1b_trial_162_colour1_distractors9_r.png,r,3,1,9,1,,,,,0,49,49,49,,,,,,,,,,,,,,,,,,,,,,,,,,,,,,,,,,,,,,,,,,,437.29193800501525,None,2,0.4877664300147444,437.29193800501525,None,,,,,,,,,,,,,,,,None,None,None,,None,None,437.8258799929754,None,3,1,1.0210162280127406,437.8258799929754,None,438.84285597287817,None,None,None,None,,34,001,2023_Jan_30_1122,searchDisc5,2021.2.3,60.01791990129429,
images/exp1b_trial_175_colour1_distractors1_l.png,l,1,1,1,1,,,,,0,50,50,50,,,,,,,,,,,,,,,,,,,,,,,,,,,,,,,,,,,,,,,,,,,438.86094405897893,None,2,0.37128879298688844,438.86094405897893,None,,,,,,,,,,,,,,,,None,None,None,,None,None,439.2784817870124,None,1,1,0.6884880219586194,439.2784817870124,None,439.9597211359069,None,None,None,None,,34,001,2023_Jan_30_1122,searchDisc5,2021.2.3,60.01791990129429,
images/exp1b_trial_102_colour2_distractors4_r.png,r,3,2,4,1,,,,,0,51,51,51,,,,,,,,,,,,,,,,,,,,,,,,,,,,,,,,,,,,,,,,,,,439.97787473298376,None,2,0.3896444230340421,439.97787473298376,None,,,,,,,,,,,,,,,,None,None,None,,None,None,440.41180191002786,None,3,1,0.7362370470073074,440.41180191002786,None,441.14280507789226,None,None,None,None,,34,001,2023_Jan_30_1122,searchDisc5,2021.2.3,60.01791990129429,
images/exp1b_trial_151_colour2_distractors19_l.png,l,1,2,19,1,,,,,0,52,52,52,,,,,,,,,,,,,,,,,,,,,,,,,,,,,,,,,,,,,,,,,,,441.158800737001,None,2,0.3706392910098657,441.158800737001,None,,,,,,,,,,,,,,,,None,None,None,,None,None,441.5781980390311,None,1,1,1.0032373839640059,441.5781980390311,None,442.5762547699269,None,None,None,None,,34,001,2023_Jan_30_1122,searchDisc5,2021.2.3,60.01791990129429,
images/exp1b_trial_268_colour3_distractors9_r.png,r,3,3,9,1,,,,,0,53,53,53,,,,,,,,,,,,,,,,,,,,,,,,,,,,,,,,,,,,,,,,,,,442.5928655050229,None,2,0.35450180497718975,442.5928655050229,None,,,,,,,,,,,,,,,,None,None,None,,None,None,442.9954490219825,None,3,1,0.9705997669952922,442.9954490219825,None,443.9595583449118,None,None,None,None,,34,001,2023_Jan_30_1122,searchDisc5,2021.2.3,60.01791990129429,
images/exp1b_trial_315_colour3_distractors9_l.png,l,1,3,9,1,,,,,0,54,54,54,,,,,,,,,,,,,,,,,,,,,,,,,,,,,,,,,,,,,,,,,,,443.9765440549818,None,2,0.5045674459543079,443.9765440549818,None,,,,,,,,,,,,,,,,None,None,None,,None,None,444.5266714160098,None,1,1,0.5878000059747137,444.5266714160098,None,445.10980763292173,None,None,None,None,,34,001,2023_Jan_30_1122,searchDisc5,2021.2.3,60.01791990129429,
images/exp1b_trial_145_colour1_distractors9_l.png,l,1,1,9,1,,,,,0,55,55,55,,,,,,,,,,,,,,,,,,,,,,,,,,,,,,,,,,,,,,,,,,,445.1260787710198,None,2,0.40552420797757804,445.1260787710198,None,,,,,,,,,,,,,,,,None,None,None,,None,None,445.57849057600833,None,1,1,1.5014832830056548,445.57849057600833,None,447.07630494987825,None,None,None,None,,34,001,2023_Jan_30_1122,searchDisc5,2021.2.3,60.01791990129429,
images/exp1b_trial_120_colour2_distractors31_l.png,l,1,2,31,1,,,,,0,56,56,56,,,,,,,,,,,,,,,,,,,,,,,,,,,,,,,,,,,,,,,,,,,447.0930495969951,None,2,3.1409990990068763,447.0930495969951,None,,,,,,,,,,,,,,,,None,None,None,,None,None,450.278659565025,None,1,1,0.7324938219971955,450.278659565025,None,451.0098353319336,None,None,None,None,,34,001,2023_Jan_30_1122,searchDisc5,2021.2.3,60.01791990129429,
images/exp1b_trial_182_colour2_distractors9_l.png,l,1,2,9,1,,,,,0,57,57,57,,,,,,,,,,,,,,,,,,,,,,,,,,,,,,,,,,,,,,,,,,,451.0263951229863,None,2,0.2879422539845109,451.0263951229863,None,,,,,,,,,,,,,,,,None,None,None,,None,None,451.3598124900018,None,1,1,1.087654785020277,451.3598124900018,None,452.44317735591903,None,None,None,None,,34,001,2023_Jan_30_1122,searchDisc5,2021.2.3,60.01791990129429,
images/exp1b_trial_12_colour3_distractors9_r.png,r,3,3,9,1,,,,,0,58,58,58,,,,,,,,,,,,,,,,,,,,,,,,,,,,,,,,,,,,,,,,,,,452.45950170903234,None,2,0.3879490139661357,452.45950170903234,None,,,,,,,,,,,,,,,,None,None,None,,None,None,452.89343887998257,None,3,1,0.802876410947647,452.89343887998257,None,453.6926026009023,None,None,None,None,,34,001,2023_Jan_30_1122,searchDisc5,2021.2.3,60.01791990129429,
images/exp1b_trial_81_colour1_distractors9_l.png,l,1,1,9,1,,,,,0,59,59,59,,,,,,,,,,,,,,,,,,,,,,,,,,,,,,,,,,,,,,,,,,,453.7092815170181,None,2,0.33843558497028425,453.7092815170181,None,,,,,,,,,,,,,,,,None,None,None,,None,None,454.093701979029,None,1,1,0.7205942840082571,454.093701979029,None,454.80983055889374,None,None,None,None,,34,001,2023_Jan_30_1122,searchDisc5,2021.2.3,60.01791990129429,
images/exp1b_trial_9_colour2_distractors31_r.png,r,3,2,31,1,,,,,0,60,60,60,,,,,,,,,,,,,,,,,,,,,,,,,,,,,,,,,,,,,,,,,,,454.8264721480082,None,2,0.42145991895813495,454.8264721480082,None,,,,,,,,,,,,,,,,None,None,None,,None,None,455.29488177999156,None,3,1,1.5519625609740615,455.29488177999156,None,456.8431941579329,None,None,None,None,,34,001,2023_Jan_30_1122,searchDisc5,2021.2.3,60.01791990129429,
images/exp1b_trial_118_colour2_distractors9_l.png,l,1,2,9,1,,,,,0,61,61,61,,,,,,,,,,,,,,,,,,,,,,,,,,,,,,,,,,,,,,,,,,,456.85999307601014,None,2,0.3876511959824711,456.85999307601014,None,,,,,,,,,,,,,,,,None,None,None,,None,None,457.29491319699446,None,1,1,0.6531181890168227,457.29491319699446,None,457.94289284793194,None,None,None,None,,34,001,2023_Jan_30_1122,searchDisc5,2021.2.3,60.01791990129429,
images/exp1b_trial_304_colour1_distractors4_l.png,l,1,1,4,1,,,,,0,62,62,62,,,,,,,,,,,,,,,,,,,,,,,,,,,,,,,,,,,,,,,,,,,457.96010856499197,None,2,0.3401502639753744,457.96010856499197,None,,,,,,,,,,,,,,,,None,None,None,,None,None,458.34351986600086,None,1,1,0.7866980209946632,458.34351986600086,None,459.12669468292734,None,None,None,None,,34,001,2023_Jan_30_1122,searchDisc5,2021.2.3,60.01791990129429,
images/exp1b_trial_90_colour3_distractors4_l.png,l,1,3,4,1,,,,,0,63,63,63,,,,,,,,,,,,,,,,,,,,,,,,,,,,,,,,,,,,,,,,,,,459.143523413979,None,2,0.3701761459815316,459.143523413979,None,,,,,,,,,,,,,,,,None,None,None,,None,None,459.5599744740175,None,1,1,0.704581311030779,459.5599744740175,None,460.2601946059149,None,None,None,None,,34,001,2023_Jan_30_1122,searchDisc5,2021.2.3,60.01791990129429,
images/exp1b_trial_196_colour1_distractors31_r.png,r,3,1,31,1,,,,,0,64,64,64,,,,,,,,,,,,,,,,,,,,,,,,,,,,,,,,,,,,,,,,,,,460.27655974199297,None,2,0.35439223394496366,460.27655974199297,None,,,,,,,,,,,,,,,,None,None,None,,None,None,460.6789429979981,None,3,1,0.7031474270042963,460.6789429979981,None,461.3766641598777,None,None,None,None,,34,001,2023_Jan_30_1122,searchDisc5,2021.2.3,60.01791990129429,
images/exp1b_trial_283_colour3_distractors9_l.png,l,1,3,9,1,,,,,0,65,65,65,,,,,,,,,,,,,,,,,,,,,,,,,,,,,,,,,,,,,,,,,,,461.39308978797635,None,2,0.30637670296709985,461.39308978797635,None,,,,,,,,,,,,,,,,None,None,None,,None,None,461.7452456650208,None,1,1,1.1167106310022064,461.7452456650208,None,462.8602479718975,None,None,None,None,,34,001,2023_Jan_30_1122,searchDisc5,2021.2.3,60.01791990129429,
images/exp1b_trial_292_colour1_distractors31_r.png,r,3,1,31,1,,,,,0,66,66,66,,,,,,,,,,,,,,,,,,,,,,,,,,,,,,,,,,,,,,,,,,,462.87668259302154,None,2,0.33765256800688803,462.87668259302154,None,,,,,,,,,,,,,,,,None,None,None,,None,None,463.26040580001427,None,3,1,1.3184064599918202,463.26040580001427,None,464.5768098758999,None,None,None,None,,34,001,2023_Jan_30_1122,searchDisc5,2021.2.3,60.01791990129429,
images/exp1b_trial_69_colour2_distractors1_r.png,r,3,2,1,1,,,,,0,67,67,67,,,,,,,,,,,,,,,,,,,,,,,,,,,,,,,,,,,,,,,,,,,464.5929101459915,None,2,0.43797392898704857,464.5929101459915,None,,,,,,,,,,,,,,,,None,None,None,,None,None,465.0791431849939,None,3,1,0.8222490400075912,465.0791431849939,None,465.89361266890774,None,None,None,None,,34,001,2023_Jan_30_1122,searchDisc5,2021.2.3,60.01791990129429,
images/exp1b_trial_152_colour2_distractors31_l.png,l,1,2,31,1,,,,,0,68,68,68,,,,,,,,,,,,,,,,,,,,,,,,,,,,,,,,,,,,,,,,,,,465.9101511249901,None,2,0.33802049700170755,465.9101511249901,None,,,,,,,,,,,,,,,,None,None,None,,None,None,466.2936576899956,None,1,1,0.7526123230345547,466.2936576899956,None,467.0434263559291,None,None,None,None,,34,001,2023_Jan_30_1122,searchDisc5,2021.2.3,60.01791990129429,
images/exp1b_trial_67_colour1_distractors19_r.png,r,3,1,19,1,,,,,0,69,69,69,,,,,,,,,,,,,,,,,,,,,,,,,,,,,,,,,,,,,,,,,,,467.06206551601645,None,2,0.39040925801964477,467.06206551601645,None,,,,,,,,,,,,,,,,None,None,None,,None,None,467.49579145602183,None,3,1,0.5830171499983408,467.49579145602183,None,468.0770560448873,None,None,None,None,,34,001,2023_Jan_30_1122,searchDisc5,2021.2.3,60.01791990129429,
images/exp1b_trial_209_colour1_distractors9_l.png,l,1,1,9,1,,,,,0,70,70,70,,,,,,,,,,,,,,,,,,,,,,,,,,,,,,,,,,,,,,,,,,,468.09332057100255,None,2,0.4065457269898616,468.09332057100255,None,,,,,,,,,,,,,,,,None,None,None,,None,None,468.54585071402835,None,1,1,0.5518066749791615,468.54585071402835,None,469.09362385689747,None,None,None,None,,34,001,2023_Jan_30_1122,searchDisc5,2021.2.3,60.01791990129429,
images/exp1b_trial_272_colour1_distractors4_l.png,l,1,1,4,1,,,,,0,71,71,71,,,,,,,,,,,,,,,,,,,,,,,,,,,,,,,,,,,,,,,,,,,469.1097164340317,None,2,0.4044684420223348,469.1097164340317,None,,,,,,,,,,,,,,,,None,None,None,,None,None,469.5621671170229,None,1,1,0.7716585219604895,469.5621671170229,None,470.3266480268794,None,None,None,None,,34,001,2023_Jan_30_1122,searchDisc5,2021.2.3,60.01791990129429,
images/exp1b_trial_317_colour3_distractors31_l.png,l,1,3,31,1,,,,,0,72,72,72,,,,,,,,,,,,,,,,,,,,,,,,,,,,,,,,,,,,,,,,,,,470.3456892350223,None,2,0.37174862396204844,470.3456892350223,None,,,,,,,,,,,,,,,,None,None,None,,None,None,470.7622058209963,None,1,1,1.2010663190158084,470.7622058209963,None,471.96029545989586,None,None,None,None,,34,001,2023_Jan_30_1122,searchDisc5,2021.2.3,60.01791990129429,
images/exp1b_trial_305_colour1_distractors9_l.png,l,1,1,9,1,,,,,0,73,73,73,,,,,,,,,,,,,,,,,,,,,,,,,,,,,,,,,,,,,,,,,,,471.97662302298704,None,2,0.5376359699876048,471.97662302298704,None,,,,,,,,,,,,,,,,None,None,None,,None,None,472.5620444280212,None,1,1,0.6880903039709665,472.5620444280212,None,473.24366316990927,None,None,None,None,,34,001,2023_Jan_30_1122,searchDisc5,2021.2.3,60.01791990129429,
images/exp1b_trial_229_colour2_distractors1_r.png,r,3,2,1,1,,,,,0,74,74,74,,,,,,,,,,,,,,,,,,,,,,,,,,,,,,,,,,,,,,,,,,,473.26274598098826,None,2,0.37200044898781925,473.26274598098826,None,,,,,,,,,,,,,,,,None,None,None,,None,None,473.6788007590221,None,3,1,0.6378419910324737,473.6788007590221,None,474.31037448887946,None,None,None,None,,34,001,2023_Jan_30_1122,searchDisc5,2021.2.3,60.01791990129429,
images/exp1b_trial_202_colour3_distractors1_r.png,r,3,3,1,1,,,,,0,75,75,75,,,,,,,,,,,,,,,,,,,,,,,,,,,,,,,,,,,,,,,,,,,474.3271623160108,None,2,0.32229205896146595,474.3271623160108,None,,,,,,,,,,,,,,,,None,None,None,,None,None,474.6935237629805,None,3,1,0.7552316029905342,474.6935237629805,None,475.4437307639164,None,None,None,None,,34,001,2023_Jan_30_1122,searchDisc5,2021.2.3,60.01791990129429,
images/exp1b_trial_54_colour2_distractors9_l.png,l,1,2,9,1,,,,,0,76,76,76,,,,,,,,,,,,,,,,,,,,,,,,,,,,,,,,,,,,,,,,,,,475.46191952901427,None,2,0.32041622296674177,475.46191952901427,None,,,,,,,,,,,,,,,,None,None,None,,None,None,475.8274852100294,None,1,1,1.1203522440046072,475.8274852100294,None,476.94378349388717,None,None,None,None,,34,001,2023_Jan_30_1122,searchDisc5,2021.2.3,60.01791990129429,
images/exp1b_trial_276_colour2_distractors1_l.png,l,1,2,1,1,,,,,0,77,77,77,,,,,,,,,,,,,,,,,,,,,,,,,,,,,,,,,,,,,,,,,,,476.96019113302464,None,2,0.3877763510099612,476.96019113302464,None,,,,,,,,,,,,,,,,None,None,None,,None,None,477.3961962100002,None,1,1,0.6221676410059445,477.3961962100002,None,478.01063135289587,None,None,None,None,,34,001,2023_Jan_30_1122,searchDisc5,2021.2.3,60.01791990129429,
images/exp1b_trial_107_colour3_distractors4_r.png,r,3,3,4,1,,,,,0,78,78,78,,,,,,,,,,,,,,,,,,,,,,,,,,,,,,,,,,,,,,,,,,,478.0268580120173,None,2,0.3710273739998229,478.0268580120173,None,,,,,,,,,,,,,,,,None,None,None,,None,None,478.4440342839807,None,1,0,0.820952843001578,478.4440342839807,None,479.26053691393463,None,None,None,None,,34,001,2023_Jan_30_1122,searchDisc5,2021.2.3,60.01791990129429,
images/exp1b_trial_22_colour2_distractors9_l.png,l,1,2,9,1,,,,,0,79,79,79,,,,,,,,,,,,,,,,,,,,,,,,,,,,,,,,,,,,,,,,,,,479.27669040398905,None,2,1.1729094050242566,479.27669040398905,None,,,,,,,,,,,,,,,,None,None,None,,None,None,480.49645380402217,None,1,1,0.5862106859567575,480.49645380402217,None,481.07720434491057,None,None,None,None,,34,001,2023_Jan_30_1122,searchDisc5,2021.2.3,60.01791990129429,
images/exp1b_trial_171_colour3_distractors4_r.png,r,3,3,4,1,,,,,0,80,80,80,,,,,,,,,,,,,,,,,,,,,,,,,,,,,,,,,,,,,,,,,,,481.09391352901,None,2,0.4400787000195123,481.09391352901,None,,,,,,,,,,,,,,,,None,None,None,,None,None,481.5772559380275,None,3,1,0.8356903090025298,481.5772559380275,None,482.41066738788504,None,None,None,None,,34,001,2023_Jan_30_1122,searchDisc5,2021.2.3,60.01791990129429,
images/exp1b_trial_176_colour1_distractors4_l.png,l,1,1,4,1,,,,,0,81,81,81,,,,,,,,,,,,,,,,,,,,,,,,,,,,,,,,,,,,,,,,,,,482.4267847969895,None,2,0.32127712201327085,482.4267847969895,None,,,,,,,,,,,,,,,,None,None,None,,None,None,482.79354863701155,None,1,1,0.7382071290048771,482.79354863701155,None,483.52731083490653,None,None,None,None,,34,001,2023_Jan_30_1122,searchDisc5,2021.2.3,60.01791990129429,
images/exp1b_trial_282_colour3_distractors4_l.png,l,1,3,4,1,,,,,0,82,82,82,,,,,,,,,,,,,,,,,,,,,,,,,,,,,,,,,,,,,,,,,,,483.543993624975,None,2,0.35648403398226947,483.543993624975,None,,,,,,,,,,,,,,,,None,None,None,,None,None,483.9456929989974,None,1,1,1.0859177339589223,483.9456929989974,None,485.0273548968835,None,None,None,None,,34,001,2023_Jan_30_1122,searchDisc5,2021.2.3,60.01791990129429,
images/exp1b_trial_231_colour2_distractors9_r.png,r,3,2,9,1,,,,,0,83,83,83,,,,,,,,,,,,,,,,,,,,,,,,,,,,,,,,,,,,,,,,,,,485.04412452701945,None,2,0.5400395370088518,485.04412452701945,None,,,,,,,,,,,,,,,,None,None,None,,None,None,485.62954717699904,None,3,1,0.6367390410159715,485.62954717699904,None,486.2606555529055,None,None,None,None,,34,001,2023_Jan_30_1122,searchDisc5,2021.2.3,60.01791990129429,
images/exp1b_trial_48_colour1_distractors4_l.png,l,1,1,4,1,,,,,0,84,84,84,,,,,,,,,,,,,,,,,,,,,,,,,,,,,,,,,,,,,,,,,,,486.2772071919753,None,2,0.41953124303836375,486.2772071919753,None,,,,,,,,,,,,,,,,None,None,None,,None,None,486.7459345019888,None,1,1,0.9733007290051319,486.7459345019888,None,487.71079827292124,None,None,None,None,,34,001,2023_Jan_30_1122,searchDisc5,2021.2.3,60.01791990129429,
images/exp1b_trial_181_colour2_distractors4_l.png,l,1,2,4,1,,,,,0,85,85,85,,,,,,,,,,,,,,,,,,,,,,,,,,,,,,,,,,,,,,,,,,,487.7273839790141,None,2,0.3533597320201807,487.7273839790141,None,,,,,,,,,,,,,,,,None,None,None,,None,None,488.127891851007,None,1,1,0.8044946169829927,488.127891851007,None,488.9274751128978,None,None,None,None,,34,001,2023_Jan_30_1122,searchDisc5,2021.2.3,60.01791990129429,
images/exp1b_trial_307_colour1_distractors31_l.png,l,1,1,31,1,,,,,0,86,86,86,,,,,,,,,,,,,,,,,,,,,,,,,,,,,,,,,,,,,,,,,,,488.9457015990047,None,2,0.4379218879621476,488.9457015990047,None,,,,,,,,,,,,,,,,None,None,None,,None,None,489.4277929260279,None,1,1,1.0182123749982566,489.4277929260279,None,490.44365467492025,None,None,None,None,,34,001,2023_Jan_30_1122,searchDisc5,2021.2.3,60.01791990129429,
images/exp1b_trial_295_colour2_distractors9_r.png,r,3,2,9,1,,,,,0,87,87,87,,,,,,,,,,,,,,,,,,,,,,,,,,,,,,,,,,,,,,,,,,,490.4629644349916,None,2,0.5572311579599045,490.4629644349916,None,,,,,,,,,,,,,,,,None,None,None,,None,None,491.0630925120204,None,3,1,0.6357170979608782,491.0630925120204,None,491.69441695092246,None,None,None,None,,34,001,2023_Jan_30_1122,searchDisc5,2021.2.3,60.01791990129429,
images/exp1b_trial_129_colour1_distractors4_r.png,r,3,1,4,1,,,,,0,88,88,88,,,,,,,,,,,,,,,,,,,,,,,,,,,,,,,,,,,,,,,,,,,491.71086543798447,None,2,0.40631820098496974,491.71086543798447,None,,,,,,,,,,,,,,,,None,None,None,,None,None,492.16321272897767,None,3,1,1.3696594450157136,492.16321272897767,None,493.5275475399103,None,None,None,None,,34,001,2023_Jan_30_1122,searchDisc5,2021.2.3,60.01791990129429,
images/exp1b_trial_190_colour0_distractors0_r.png,r,3,0,0,1,,,,,0,89,89,89,,,,,,,,,,,,,,,,,,,,,,,,,,,,,,,,,,,,,,,,,,,493.5436476049945,None,2,0.5548587189987302,493.5436476049945,None,,,,,,,,,,,,,,,,None,None,None,,None,None,494.14397506800015,None,3,1,0.655660329037346,494.14397506800015,None,494.79429227591027,None,None,None,None,,34,001,2023_Jan_30_1122,searchDisc5,2021.2.3,60.01791990129429,
images/exp1b_trial_290_colour1_distractors9_r.png,r,3,1,9,1,,,,,0,90,90,90,,,,,,,,,,,,,,,,,,,,,,,,,,,,,,,,,,,,,,,,,,,494.8130368620041,None,2,0.40685030800523236,494.8130368620041,None,,,,,,,,,,,,,,,,None,None,None,,None,None,495.2606394580216,None,3,1,0.5839858699473552,495.2606394580216,None,495.8434177179006,None,None,None,None,,34,001,2023_Jan_30_1122,searchDisc5,2021.2.3,60.01791990129429,
images/exp1b_trial_238_colour3_distractors31_r.png,r,3,3,31,1,,,,,0,91,91,91,,,,,,,,,,,,,,,,,,,,,,,,,,,,,,,,,,,,,,,,,,,495.8610435369774,None,2,0.40567745896987617,495.8610435369774,None,,,,,,,,,,,,,,,,None,None,None,,None,None,496.3132063130033,None,3,1,1.3191293989657424,496.3132063130033,None,497.6278828998911,None,None,None,None,,34,001,2023_Jan_30_1122,searchDisc5,2021.2.3,60.01791990129429,
images/exp1b_trial_212_colour2_distractors1_l.png,l,1,2,1,1,,,,,0,92,92,92,,,,,,,,,,,,,,,,,,,,,,,,,,,,,,,,,,,,,,,,,,,497.64429162000306,None,2,0.47102630499284714,497.64429162000306,None,,,,,,,,,,,,,,,,None,None,None,,None,None,498.16130102600437,None,1,1,0.6557094840100035,498.16130102600437,None,498.81112034688704,None,None,None,None,,34,001,2023_Jan_30_1122,searchDisc5,2021.2.3,60.01791990129429,
images/exp1b_trial_228_colour1_distractors31_r.png,r,3,1,31,1,,,,,0,93,93,93,,,,,,,,,,,,,,,,,,,,,,,,,,,,,,,,,,,,,,,,,,,498.82755499798805,None,2,1.23787341901334,498.82755499798805,None,,,,,,,,,,,,,,,,None,None,None,,None,None,500.1136109129875,None,3,1,1.2703710570349358,500.1136109129875,None,501.37779228790896,None,None,None,None,,34,001,2023_Jan_30_1122,searchDisc5,2021.2.3,60.01791990129429,
images/exp1b_trial_245_colour2_distractors4_l.png,l,1,2,4,1,,,,,0,94,94,94,,,,,,,,,,,,,,,,,,,,,,,,,,,,,,,,,,,,,,,,,,,501.39463066100143,None,2,0.4387008600169793,501.39463066100143,None,,,,,,,,,,,,,,,,None,None,None,,None,None,501.8780229940312,None,1,1,0.5863917370443232,501.8780229940312,None,502.46129266690696,None,None,None,None,,34,001,2023_Jan_30_1122,searchDisc5,2021.2.3,60.01791990129429,
images/exp1b_trial_273_colour1_distractors9_l.png,l,1,1,9,1,,,,,0,95,95,95,,,,,,,,,,,,,,,,,,,,,,,,,,,,,,,,,,,,,,,,,,,502.47784111002693,None,2,0.3709995339740999,502.47784111002693,None,,,,,,,,,,,,,,,,None,None,None,,None,None,502.89689278102014,None,1,1,0.6375430970219895,502.89689278102014,None,503.52789857488824,None,None,None,None,,34,001,2023_Jan_30_1122,searchDisc5,2021.2.3,60.01791990129429,
images/exp1b_trial_246_colour2_distractors9_l.png,l,1,2,9,1,,,,,0,96,96,96,,,,,,,,,,,,,,,,,,,,,,,,,,,,,,,,,,,,,,,,,,,503.5438549629762,None,2,0.3370365800219588,503.5438549629762,None,,,,,,,,,,,,,,,,None,None,None,,None,None,503.92795105301775,None,1,1,0.7208677139715292,503.92795105301775,None,504.64454164588824,None,None,None,None,,34,001,2023_Jan_30_1122,searchDisc5,2021.2.3,60.01791990129429,
images/exp1b_trial_114_colour1_distractors19_l.png,l,1,1,19,1,,,,,0,97,97,97,,,,,,,,,,,,,,,,,,,,,,,,,,,,,,,,,,,,,,,,,,,504.6612650899915,None,2,0.3539684030110948,504.6612650899915,None,,,,,,,,,,,,,,,,None,None,None,,None,None,505.06148917402606,None,1,1,0.6366545539931394,505.06148917402606,None,505.69475372188026,None,None,None,None,,34,001,2023_Jan_30_1122,searchDisc5,2021.2.3,60.01791990129429,
images/exp1b_trial_97_colour1_distractors4_r.png,r,3,1,4,1,,,,,0,98,98,98,,,,,,,,,,,,,,,,,,,,,,,,,,,,,,,,,,,,,,,,,,,505.71097318298416,None,2,0.33766951505094767,505.71097318298416,None,,,,,,,,,,,,,,,,None,None,None,,None,None,506.09426807501586,None,3,1,0.754570196964778,506.09426807501586,None,506.8447342708823,None,None,None,None,,34,001,2023_Jan_30_1122,searchDisc5,2021.2.3,60.01791990129429,
images/exp1b_trial_16_colour1_distractors4_l.png,l,1,1,4,1,,,,,0,99,99,99,,,,,,,,,,,,,,,,,,,,,,,,,,,,,,,,,,,,,,,,,,,506.86130603199126,None,2,0.35440505197038874,506.86130603199126,None,,,,,,,,,,,,,,,,None,None,None,,None,None,507.2614224139834,None,1,1,0.6049999050446786,507.2614224139834,None,507.86122781591257,None,None,None,None,,34,001,2023_Jan_30_1122,searchDisc5,2021.2.3,60.01791990129429,
images/exp1b_trial_226_colour1_distractors9_r.png,r,3,1,9,1,,,,,0,100,100,100,,,,,,,,,,,,,,,,,,,,,,,,,,,,,,,,,,,,,,,,,,,507.87766173202544,None,2,0.3546355729922652,507.87766173202544,None,,,,,,,,,,,,,,,,None,None,None,,None,None,508.27821702498477,None,3,1,0.5375295329722576,508.27821702498477,None,508.8114773269044,None,None,None,None,,34,001,2023_Jan_30_1122,searchDisc5,2021.2.3,60.01791990129429,
images/exp1b_trial_198_colour2_distractors4_r.png,r,3,2,4,1,,,,,0,101,101,101,,,,,,,,,,,,,,,,,,,,,,,,,,,,,,,,,,,,,,,,,,,508.8299459820264,None,2,0.2879638909944333,508.8299459820264,None,,,,,,,,,,,,,,,,None,None,None,,None,None,509.1616247050115,None,3,1,0.6038741979864426,509.1616247050115,None,509.7606845968985,None,None,None,None,,34,001,2023_Jan_30_1122,searchDisc5,2021.2.3,60.01791990129429,
images/exp1b_trial_50_colour1_distractors19_l.png,l,1,1,19,1,,,,,0,102,102,102,,,,,,,,,,,,,,,,,,,,,,,,,,,,,,,,,,,,,,,,,,,509.77785848802887,None,2,0.3219427689909935,509.77785848802887,None,,,,,,,,,,,,,,,,None,None,None,,None,None,510.1448765490204,None,1,1,0.7682401720085181,510.1448765490204,None,510.9113589859335,None,None,None,None,,34,001,2023_Jan_30_1122,searchDisc5,2021.2.3,60.01791990129429,
images/exp1b_trial_6_colour2_distractors4_r.png,r,3,2,4,1,,,,,0,103,103,103,,,,,,,,,,,,,,,,,,,,,,,,,,,,,,,,,,,,,,,,,,,510.92753361101495,None,2,0.4233824210241437,510.92753361101495,None,,,,,,,,,,,,,,,,None,None,None,,None,None,511.3974207440042,None,3,1,0.6685885300394148,511.3974207440042,None,512.0613782238797,None,None,None,None,,34,001,2023_Jan_30_1122,searchDisc5,2021.2.3,60.01791990129429,
images/exp1b_trial_87_colour2_distractors19_l.png,l,1,2,19,1,,,,,0,104,104,104,,,,,,,,,,,,,,,,,,,,,,,,,,,,,,,,,,,,,,,,,,,512.0778129490209,None,2,0.30433098797220737,512.0778129490209,None,,,,,,,,,,,,,,,,None,None,None,,None,None,512.4276514740195,None,1,1,0.6725315510411747,512.4276514740195,None,513.0948877639021,None,None,None,None,,34,001,2023_Jan_30_1122,searchDisc5,2021.2.3,60.01791990129429,
images/exp1b_trial_225_colour1_distractors4_r.png,r,3,1,4,1,,,,,0,105,105,105,,,,,,,,,,,,,,,,,,,,,,,,,,,,,,,,,,,,,,,,,,,513.11086570099,None,2,0.3527309269993566,513.11086570099,None,,,,,,,,,,,,,,,,None,None,None,,None,None,513.5132336770184,None,3,1,0.5899004859966226,513.5132336770184,None,514.0949157968862,None,None,None,None,,34,001,2023_Jan_30_1122,searchDisc5,2021.2.3,60.01791990129429,
images/exp1b_trial_247_colour2_distractors19_l.png,l,1,2,19,1,,,,,0,106,106,106,,,,,,,,,,,,,,,,,,,,,,,,,,,,,,,,,,,,,,,,,,,514.1109369539772,None,2,0.28786193497944623,514.1109369539772,None,,,,,,,,,,,,,,,,None,None,None,,None,None,514.4443164360127,None,1,1,0.7684547950048,514.4443164360127,None,515.2114861069131,None,None,None,None,,34,001,2023_Jan_30_1122,searchDisc5,2021.2.3,60.01791990129429,
images/exp1b_trial_98_colour1_distractors9_r.png,r,3,1,9,1,,,,,0,107,107,107,,,,,,,,,,,,,,,,,,,,,,,,,,,,,,,,,,,,,,,,,,,515.2281955570215,None,2,0.30404121900210157,515.2281955570215,None,,,,,,,,,,,,,,,,None,None,None,,None,None,515.5780405559926,None,3,1,0.6044092919910327,515.5780405559926,None,516.1781128289294,None,None,None,None,,34,001,2023_Jan_30_1122,searchDisc5,2021.2.3,60.01791990129429,
images/exp1b_trial_47_colour1_distractors1_l.png,l,1,1,1,1,,,,,0,108,108,108,,,,,,,,,,,,,,,,,,,,,,,,,,,,,,,,,,,,,,,,,,,516.1942737729987,None,2,0.2567329189623706,516.1942737729987,None,,,,,,,,,,,,,,,,None,None,None,,None,None,516.4971518890234,None,1,1,0.6868491409695707,516.4971518890234,None,517.178378566925,None,None,None,None,,34,001,2023_Jan_30_1122,searchDisc5,2021.2.3,60.01791990129429,
images/exp1b_trial_166_colour2_distractors4_r.png,r,3,2,4,1,,,,,0,109,109,109,,,,,,,,,,,,,,,,,,,,,,,,,,,,,,,,,,,,,,,,,,,517.1962802499766,None,2,0.30500328994821757,517.1962802499766,None,,,,,,,,,,,,,,,,None,None,None,,None,None,517.5449812670122,None,3,1,0.9874999630264938,517.5449812670122,None,518.5283030979335,None,None,None,None,,34,001,2023_Jan_30_1122,searchDisc5,2021.2.3,60.01791990129429,
images/exp1b_trial_130_colour1_distractors9_r.png,r,3,1,9,1,,,,,0,110,110,110,,,,,,,,,,,,,,,,,,,,,,,,,,,,,,,,,,,,,,,,,,,518.5446170719806,None,2,0.9752005669870414,518.5446170719806,None,,,,,,,,,,,,,,,,None,None,None,,None,None,519.5633668520022,None,3,1,0.5664509540074505,519.5633668520022,None,520.1282312588883,None,None,None,None,,34,001,2023_Jan_30_1122,searchDisc5,2021.2.3,60.01791990129429,
images/exp1b_trial_136_colour2_distractors19_r.png,r,3,2,19,1,,,,,0,111,111,111,,,,,,,,,,,,,,,,,,,,,,,,,,,,,,,,,,,,,,,,,,,520.1444611590123,None,2,0.35470331605756655,520.1444611590123,None,,,,,,,,,,,,,,,,None,None,None,,None,None,520.5452856519842,None,3,1,0.5872076540254056,520.5452856519842,None,521.128233183932,None,None,None,None,,34,001,2023_Jan_30_1122,searchDisc5,2021.2.3,60.01791990129429,
images/exp1b_trial_308_colour2_distractors1_l.png,l,1,2,1,1,,,,,0,112,112,112,,,,,,,,,,,,,,,,,,,,,,,,,,,,,,,,,,,,,,,,,,,521.1450392890256,None,2,2.304790068999864,521.1450392890256,None,,,,,,,,,,,,,,,,None,None,None,,None,None,523.4948091519764,None,1,1,0.6891391289536841,523.4948091519764,None,524.1785646828939,None,None,None,None,,34,001,2023_Jan_30_1122,searchDisc5,2021.2.3,60.01791990129429,
images/exp1b_trial_73_colour2_distractors31_r.png,r,3,2,31,1,,,,,0,113,113,113,,,,,,,,,,,,,,,,,,,,,,,,,,,,,,,,,,,,,,,,,,,524.1950327079976,None,2,0.38769972999580204,524.1950327079976,None,,,,,,,,,,,,,,,,None,None,None,,None,None,524.6288306519855,None,3,1,1.353231839952059,524.6288306519855,None,525.9784213269013,None,None,None,None,,34,001,2023_Jan_30_1122,searchDisc5,2021.2.3,60.01791990129429,
images/exp1b_trial_274_colour1_distractors19_l.png,l,1,1,19,1,,,,,0,114,114,114,,,,,,,,,,,,,,,,,,,,,,,,,,,,,,,,,,,,,,,,,,,525.9950303399819,None,2,1.4544341689907014,525.9950303399819,None,,,,,,,,,,,,,,,,None,None,None,,None,None,527.4956134409877,None,1,1,0.8047011810122058,527.4956134409877,None,528.2952604469028,None,None,None,None,,34,001,2023_Jan_30_1122,searchDisc5,2021.2.3,60.01791990129429,
images/exp1b_trial_65_colour1_distractors4_r.png,r,3,1,4,1,,,,,0,115,115,115,,,,,,,,,,,,,,,,,,,,,,,,,,,,,,,,,,,,,,,,,,,528.3119021410239,None,2,0.3360113960225135,528.3119021410239,None,,,,,,,,,,,,,,,,None,None,None,,None,None,528.6947173849912,None,3,1,0.5732061439775862,528.6947173849912,None,529.2619144269265,None,None,None,None,,34,001,2023_Jan_30_1122,searchDisc5,2021.2.3,60.01791990129429,
images/exp1b_trial_49_colour1_distractors9_l.png,l,1,1,9,1,,,,,0,116,116,116,,,,,,,,,,,,,,,,,,,,,,,,,,,,,,,,,,,,,,,,,,,529.2782138240291,None,2,0.33634378598071635,529.2782138240291,None,,,,,,,,,,,,,,,,None,None,None,,None,None,529.6614641969791,None,1,1,0.53777665697271,529.6614641969791,None,530.1952405539341,None,None,None,None,,34,001,2023_Jan_30_1122,searchDisc5,2021.2.3,60.01791990129429,
images/exp1b_trial_215_colour2_distractors19_l.png,l,1,2,19,1,,,,,0,117,117,117,,,,,,,,,,,,,,,,,,,,,,,,,,,,,,,,,,,,,,,,,,,530.2119684729842,None,2,0.287956062995363,530.2119684729842,None,,,,,,,,,,,,,,,,None,None,None,,None,None,530.5454342850135,None,1,1,0.7530299359932542,530.5454342850135,None,531.2952865189291,None,None,None,None,,34,001,2023_Jan_30_1122,searchDisc5,2021.2.3,60.01791990129429,
images/exp1b_trial_254_colour0_distractors0_r.png,r,3,0,0,1,,,,,0,118,118,118,,,,,,,,,,,,,,,,,,,,,,,,,,,,,,,,,,,,,,,,,,,531.311662934022,None,2,0.2879145889892243,531.311662934022,None,,,,,,,,,,,,,,,,None,None,None,,None,None,531.6452041640296,None,3,1,0.774305290018674,531.6452041640296,None,532.4120707729016,None,None,None,None,,34,001,2023_Jan_30_1122,searchDisc5,2021.2.3,60.01791990129429,
images/exp1b_trial_249_colour3_distractors1_l.png,l,1,3,1,1,,,,,0,119,119,119,,,,,,,,,,,,,,,,,,,,,,,,,,,,,,,,,,,,,,,,,,,532.4305778249982,None,2,0.26911562896566465,532.4305778249982,None,,,,,,,,,,,,,,,,None,None,None,,None,None,532.7456287569948,None,1,1,0.705191821034532,532.7456287569948,None,533.4448749258881,None,None,None,None,,34,001,2023_Jan_30_1122,searchDisc5,2021.2.3,60.01791990129429,
images/exp1b_trial_314_colour3_distractors4_l.png,l,1,3,4,1,,,,,0,120,120,120,,,,,,,,,,,,,,,,,,,,,,,,,,,,,,,,,,,,,,,,,,,533.4621584429988,None,2,0.3217398589476943,533.4621584429988,None,,,,,,,,,,,,,,,,None,None,None,,None,None,533.8284797000233,None,1,1,0.7708502429886721,533.8284797000233,None,534.5948518689256,None,None,None,None,,34,001,2023_Jan_30_1122,searchDisc5,2021.2.3,60.01791990129429,
images/exp1b_trial_206_colour3_distractors31_r.png,r,3,3,31,1,,,,,0,121,121,121,,,,,,,,,,,,,,,,,,,,,,,,,,,,,,,,,,,,,,,,,,,534.6120436270139,None,2,0.3551035920390859,534.6120436270139,None,,,,,,,,,,,,,,,,None,None,None,,None,None,535.0121869079885,None,3,1,0.9192180649843067,535.0121869079885,None,535.9289524789201,None,None,None,None,,34,001,2023_Jan_30_1122,searchDisc5,2021.2.3,60.01791990129429,
images/exp1b_trial_230_colour2_distractors4_r.png,r,3,2,4,1,,,,,0,122,122,122,,,,,,,,,,,,,,,,,,,,,,,,,,,,,,,,,,,,,,,,,,,535.9474724769825,None,2,0.3039607519749552,535.9474724769825,None,,,,,,,,,,,,,,,,None,None,None,,None,None,536.2956097740098,None,3,1,0.6056312000146136,536.2956097740098,None,536.8955436018878,None,None,None,None,,34,001,2023_Jan_30_1122,searchDisc5,2021.2.3,60.01791990129429,
images/exp1b_trial_46_colour3_distractors31_r.png,r,3,3,31,1,,,,,0,123,123,123,,,,,,,,,,,,,,,,,,,,,,,,,,,,,,,,,,,,,,,,,,,536.9120843780111,None,2,0.4565867169876583,536.9120843780111,None,,,,,,,,,,,,,,,,None,None,None,,None,None,537.4125369419926,None,3,1,0.6170418380061164,537.4125369419926,None,538.0289613889181,None,None,None,None,,34,001,2023_Jan_30_1122,searchDisc5,2021.2.3,60.01791990129429,
images/exp1b_trial_214_colour2_distractors9_l.png,l,1,2,9,1,,,,,0,124,124,124,,,,,,,,,,,,,,,,,,,,,,,,,,,,,,,,,,,,,,,,,,,538.0475086289807,None,2,0.3543269449728541,538.0475086289807,None,,,,,,,,,,,,,,,,None,None,None,,None,None,538.4480385740171,None,1,1,1.0714655800256878,538.4480385740171,None,539.5124766718945,None,None,None,None,,34,001,2023_Jan_30_1122,searchDisc5,2021.2.3,60.01791990129429,
images/exp1b_trial_44_colour3_distractors9_r.png,r,3,3,9,1,,,,,0,125,125,125,,,,,,,,,,,,,,,,,,,,,,,,,,,,,,,,,,,,,,,,,,,539.5287133880192,None,2,0.3209770059911534,539.5287133880192,None,,,,,,,,,,,,,,,,None,None,None,,None,None,539.8957384559908,None,3,1,0.5204061910044402,539.8957384559908,None,540.4123592568794,None,None,None,None,,34,001,2023_Jan_30_1122,searchDisc5,2021.2.3,60.01791990129429,
images/exp1b_trial_288_colour1_distractors1_r.png,r,3,1,1,1,,,,,0,126,126,126,,,,,,,,,,,,,,,,,,,,,,,,,,,,,,,,,,,,,,,,,,,540.4287799079902,None,2,0.27104989398503676,540.4287799079902,None,,,,,,,,,,,,,,,,None,None,None,,None,None,540.7458129000152,None,3,1,0.5222503670374863,540.7458129000152,None,541.2622799199307,None,None,None,None,,34,001,2023_Jan_30_1122,searchDisc5,2021.2.3,60.01791990129429,
images/exp1b_trial_201_colour2_distractors31_r.png,r,3,2,31,1,,,,,0,127,127,127,,,,,,,,,,,,,,,,,,,,,,,,,,,,,,,,,,,,,,,,,,,541.2808590659988,None,2,0.28768554801354185,541.2808590659988,None,,,,,,,,,,,,,,,,None,None,None,,None,None,541.6125212319894,None,3,1,1.402987320034299,541.6125212319894,None,543.0121246469207,None,None,None,None,,34,001,2023_Jan_30_1122,searchDisc5,2021.2.3,60.01791990129429,
images/exp1b_trial_38_colour2_distractors4_r.png,r,3,2,4,1,,,,,0,128,128,128,,,,,,,,,,,,,,,,,,,,,,,,,,,,,,,,,,,,,,,,,,,543.0305927380105,None,2,0.2068460650043562,543.0305927380105,None,,,,,,,,,,,,,,,,None,None,None,,None,None,543.2789376060246,None,3,1,0.636717347020749,543.2789376060246,None,543.9123159719165,None,None,None,None,,34,001,2023_Jan_30_1122,searchDisc5,2021.2.3,60.01791990129429,
images/exp1b_trial_271_colour1_distractors1_l.png,l,1,1,1,1,,,,,0,129,129,129,,,,,,,,,,,,,,,,,,,,,,,,,,,,,,,,,,,,,,,,,,,543.928622802021,None,2,0.4045840700273402,543.928622802021,None,,,,,,,,,,,,,,,,None,None,None,,None,None,544.3813163170125,None,1,1,0.8389084959635511,544.3813163170125,None,545.2122086049058,None,None,None,None,,34,001,2023_Jan_30_1122,searchDisc5,2021.2.3,60.01791990129429,
images/exp1b_trial_192_colour1_distractors1_r.png,r,3,1,1,1,,,,,0,130,130,130,,,,,,,,,,,,,,,,,,,,,,,,,,,,,,,,,,,,,,,,,,,545.2287171380012,None,2,0.4399646570091136,545.2287171380012,None,,,,,,,,,,,,,,,,None,None,None,,None,None,545.7144098469871,None,3,1,0.7536339230136946,545.7144098469871,None,546.4625027538859,None,None,None,None,,34,001,2023_Jan_30_1122,searchDisc5,2021.2.3,60.01791990129429,
images/exp1b_trial_179_colour1_distractors31_l.png,l,1,1,31,1,,,,,0,131,131,131,,,,,,,,,,,,,,,,,,,,,,,,,,,,,,,,,,,,,,,,,,,546.4791078830021,None,2,0.35436612501507625,546.4791078830021,None,,,,,,,,,,,,,,,,None,None,None,,None,None,546.8825686280034,None,1,1,0.8516862919786945,546.8825686280034,None,547.7299335089047,None,None,None,None,,34,001,2023_Jan_30_1122,searchDisc5,2021.2.3,60.01791990129429,
images/exp1b_trial_72_colour2_distractors19_r.png,r,3,2,19,1,,,,,0,132,132,132,,,,,,,,,,,,,,,,,,,,,,,,,,,,,,,,,,,,,,,,,,,547.7456311759888,None,2,0.3377179059898481,547.7456311759888,None,,,,,,,,,,,,,,,,None,None,None,,None,None,548.1298270440311,None,3,1,0.85322021599859,548.1298270440311,None,548.9791793848854,None,None,None,None,,34,001,2023_Jan_30_1122,searchDisc5,2021.2.3,60.01791990129429,
images/exp1b_trial_240_colour1_distractors4_l.png,l,1,1,4,1,,,,,0,133,133,133,,,,,,,,,,,,,,,,,,,,,,,,,,,,,,,,,,,,,,,,,,,548.9951716220239,None,2,0.3715905310236849,548.9951716220239,None,,,,,,,,,,,,,,,,None,None,None,,None,None,549.4138345459942,None,1,1,0.7209588169935159,549.4138345459942,None,550.1292150748777,None,None,None,None,,34,001,2023_Jan_30_1122,searchDisc5,2021.2.3,60.01791990129429,
images/exp1b_trial_256_colour1_distractors1_r.png,r,3,1,1,1,,,,,0,134,134,134,,,,,,,,,,,,,,,,,,,,,,,,,,,,,,,,,,,,,,,,,,,550.1464664600207,None,2,0.3880748510127887,550.1464664600207,None,,,,,,,,,,,,,,,,None,None,None,,None,None,550.5808726500254,None,3,1,0.5912705019582063,550.5808726500254,None,551.1648535018903,None,None,None,None,,34,001,2023_Jan_30_1122,searchDisc5,2021.2.3,60.01791990129429,
images/exp1b_trial_278_colour2_distractors9_l.png,l,1,2,9,1,,,,,0,135,135,135,,,,,,,,,,,,,,,,,,,,,,,,,,,,,,,,,,,,,,,,,,,551.1803517520311,None,2,0.3548170530120842,551.1803517520311,None,,,,,,,,,,,,,,,,None,None,None,,None,None,551.5795698729926,None,1,1,0.8017331839655526,551.5795698729926,None,552.3793044228805,None,None,None,None,,34,001,2023_Jan_30_1122,searchDisc5,2021.2.3,60.01791990129429,
images/exp1b_trial_31_colour0_distractors0_l.png,l,1,0,0,1,,,,,0,136,136,136,,,,,,,,,,,,,,,,,,,,,,,,,,,,,,,,,,,,,,,,,,,552.3959527179832,None,2,0.3572389070177451,552.3959527179832,None,,,,,,,,,,,,,,,,None,None,None,,None,None,552.7982627570163,None,1,1,0.6366305740084499,552.7982627570163,None,553.4297358199256,None,None,None,None,,34,001,2023_Jan_30_1122,searchDisc5,2021.2.3,60.01791990129429,
images/exp1b_trial_265_colour2_distractors31_r.png,r,3,2,31,1,,,,,0,137,137,137,,,,,,,,,,,,,,,,,,,,,,,,,,,,,,,,,,,,,,,,,,,553.4466756869806,None,2,0.40715256601106375,553.4466756869806,None,,,,,,,,,,,,,,,,None,None,None,,None,None,553.8980937399901,None,3,1,0.9322049299953505,553.8980937399901,None,554.8293776279315,None,None,None,None,,34,001,2023_Jan_30_1122,searchDisc5,2021.2.3,60.01791990129429,
images/exp1b_trial_195_colour1_distractors19_r.png,r,3,1,19,1,,,,,0,138,138,138,,,,,,,,,,,,,,,,,,,,,,,,,,,,,,,,,,,,,,,,,,,554.8480970719829,None,2,0.3733812489663251,554.8480970719829,None,,,,,,,,,,,,,,,,None,None,None,,None,None,555.2650534540298,None,3,1,0.6505893900175579,555.2650534540298,None,555.9128525418928,None,None,None,None,,34,001,2023_Jan_30_1122,searchDisc5,2021.2.3,60.01791990129429,
images/exp1b_trial_277_colour2_distractors4_l.png,l,1,2,4,1,,,,,0,139,139,139,,,,,,,,,,,,,,,,,,,,,,,,,,,,,,,,,,,,,,,,,,,555.9302865199861,None,2,0.4230489879846573,555.9302865199861,None,,,,,,,,,,,,,,,,None,None,None,,None,None,556.3993530820007,None,1,1,0.7363446920062415,556.3993530820007,None,557.1294291699305,None,None,None,None,,34,001,2023_Jan_30_1122,searchDisc5,2021.2.3,60.01791990129429,
images/exp1b_trial_58_colour3_distractors4_l.png,l,1,3,4,1,,,,,0,140,140,140,,,,,,,,,,,,,,,,,,,,,,,,,,,,,,,,,,,,,,,,,,,557.1489545599907,None,2,0.374196827004198,557.1489545599907,None,,,,,,,,,,,,,,,,None,None,None,,None,None,557.564591345028,None,1,1,1.018110245000571,557.564591345028,None,558.5794569628779,None,None,None,None,,34,001,2023_Jan_30_1122,searchDisc5,2021.2.3,60.01791990129429,
images/exp1b_trial_184_colour2_distractors31_l.png,l,1,2,31,1,,,,,0,141,141,141,,,,,,,,,,,,,,,,,,,,,,,,,,,,,,,,,,,,,,,,,,,558.5968724489794,None,2,0.4261535090045072,558.5968724489794,None,,,,,,,,,,,,,,,,None,None,None,,None,None,559.0622251339955,None,1,1,0.7314783229958266,559.0622251339955,None,559.7962385109277,None,None,None,None,,34,001,2023_Jan_30_1122,searchDisc5,2021.2.3,60.01791990129429,
images/exp1b_trial_104_colour2_distractors19_r.png,r,3,2,19,1,,,,,0,142,142,142,,,,,,,,,,,,,,,,,,,,,,,,,,,,,,,,,,,,,,,,,,,559.813284393982,None,2,0.440681024978403,559.813284393982,None,,,,,,,,,,,,,,,,None,None,None,,None,None,560.2966864890186,None,3,1,0.7841459909686819,560.2966864890186,None,561.0794628048898,None,None,None,None,,34,001,2023_Jan_30_1122,searchDisc5,2021.2.3,60.01791990129429,
images/exp1b_trial_26_colour3_distractors4_l.png,l,1,3,4,1,,,,,0,143,143,143,,,,,,,,,,,,,,,,,,,,,,,,,,,,,,,,,,,,,,,,,,,561.0971577899763,None,2,0.3721235200064257,561.0971577899763,None,,,,,,,,,,,,,,,,None,None,None,,None,None,561.5152916570078,None,1,1,1.0187205909751356,561.5152916570078,None,562.5291646869155,None,None,None,None,,34,001,2023_Jan_30_1122,searchDisc5,2021.2.3,60.01791990129429,
images/exp1b_trial_74_colour3_distractors1_r.png,r,3,3,1,1,,,,,0,144,144,144,,,,,,,,,,,,,,,,,,,,,,,,,,,,,,,,,,,,,,,,,,,562.5464250720106,None,2,0.38768319302471355,562.5464250720106,None,,,,,,,,,,,,,,,,None,None,None,,None,None,562.9830049360171,None,3,1,0.8885478120064363,562.9830049360171,None,563.8630887808977,None,None,None,None,,34,001,2023_Jan_30_1122,searchDisc5,2021.2.3,60.01791990129429,
images/exp1b_trial_183_colour2_distractors19_l.png,l,1,2,19,1,,,,,0,145,145,145,,,,,,,,,,,,,,,,,,,,,,,,,,,,,,,,,,,,,,,,,,,563.8801603739848,None,2,0.35537358099827543,563.8801603739848,None,,,,,,,,,,,,,,,,None,None,None,,None,None,564.2799412310123,None,1,1,1.0027880879933946,564.2799412310123,None,565.2796473188791,None,None,None,None,,34,001,2023_Jan_30_1122,searchDisc5,2021.2.3,60.01791990129429,
images/exp1b_trial_140_colour3_distractors9_r.png,r,3,3,9,1,,,,,0,146,146,146,,,,,,,,,,,,,,,,,,,,,,,,,,,,,,,,,,,,,,,,,,,565.2971273409785,None,2,0.3908285289653577,565.2971273409785,None,,,,,,,,,,,,,,,,None,None,None,,None,None,565.7329410099774,None,3,1,0.8177146620000713,565.7329410099774,None,566.5463223879342,None,None,None,None,,34,001,2023_Jan_30_1122,searchDisc5,2021.2.3,60.01791990129429,
images/exp1b_trial_59_colour3_distractors9_l.png,l,1,3,9,1,,,,,0,147,147,147,,,,,,,,,,,,,,,,,,,,,,,,,,,,,,,,,,,,,,,,,,,566.5650332539808,None,2,0.37415264395531267,566.5650332539808,None,,,,,,,,,,,,,,,,None,None,None,,None,None,566.9820312180091,None,1,1,0.966623624030035,566.9820312180091,None,567.9464001919259,None,None,None,None,,34,001,2023_Jan_30_1122,searchDisc5,2021.2.3,60.01791990129429,
images/exp1b_trial_158_colour0_distractors0_r.png,r,3,0,0,1,,,,,0,148,148,148,,,,,,,,,,,,,,,,,,,,,,,,,,,,,,,,,,,,,,,,,,,567.9630477210158,None,2,0.3377905720262788,567.9630477210158,None,,,,,,,,,,,,,,,,None,None,None,,None,None,568.3495210789843,None,3,1,0.6547790179611184,568.3495210789843,None,568.9966369349277,None,None,None,None,,34,001,2023_Jan_30_1122,searchDisc5,2021.2.3,60.01791990129429,
images/exp1b_trial_262_colour2_distractors4_r.png,r,3,2,4,1,,,,,0,149,149,149,,,,,,,,,,,,,,,,,,,,,,,,,,,,,,,,,,,,,,,,,,,569.013162777992,None,2,0.35445514001185074,569.013162777992,None,,,,,,,,,,,,,,,,None,None,None,,None,None,569.4154148389935,None,3,1,0.5386273809708655,569.4154148389935,None,569.9464701398974,None,None,None,None,,34,001,2023_Jan_30_1122,searchDisc5,2021.2.3,60.01791990129429,
images/exp1b_trial_83_colour1_distractors31_l.png,l,1,1,31,1,,,,,0,150,150,150,,,,,,,,,,,,,,,,,,,,,,,,,,,,,,,,,,,,,,,,,,,569.9651695489883,None,2,0.556639657006599,569.9651695489883,None,,,,,,,,,,,,,,,,None,None,None,,None,None,570.5637582489871,None,1,1,0.7518348699668422,570.5637582489871,None,571.3141335248947,None,None,None,None,,34,001,2023_Jan_30_1122,searchDisc5,2021.2.3,60.01791990129429,
images/exp1b_trial_217_colour3_distractors1_l.png,l,1,3,1,1,,,,,0,151,151,151,,,,,,,,,,,,,,,,,,,,,,,,,,,,,,,,,,,,,,,,,,,571.3317702920176,None,2,0.38783305505057797,571.3317702920176,None,,,,,,,,,,,,,,,,None,None,None,,None,None,571.7664874960319,None,1,1,0.8045163840288296,571.7664874960319,None,572.5642761139316,None,None,None,None,,34,001,2023_Jan_30_1122,searchDisc5,2021.2.3,60.01791990129429,
images/exp1b_trial_233_colour2_distractors31_r.png,r,3,2,31,1,,,,,0,152,152,152,,,,,,,,,,,,,,,,,,,,,,,,,,,,,,,,,,,,,,,,,,,572.5797229600139,None,2,0.6196590909967199,572.5797229600139,None,,,,,,,,,,,,,,,,None,None,None,,None,None,573.2499785940163,None,3,1,0.8707052189856768,573.2499785940163,None,574.1132025219267,None,None,None,None,,34,001,2023_Jan_30_1122,searchDisc5,2021.2.3,60.01791990129429,
images/exp1b_trial_106_colour3_distractors1_r.png,r,3,3,1,1,,,,,0,153,153,153,,,,,,,,,,,,,,,,,,,,,,,,,,,,,,,,,,,,,,,,,,,574.1302788989851,None,2,4.138372774992604,574.1302788989851,None,,,,,,,,,,,,,,,,None,None,None,,None,None,578.3160263079917,None,3,1,0.4550087589886971,578.3160263079917,None,578.7633854479063,None,None,None,None,,34,001,2023_Jan_30_1122,searchDisc5,2021.2.3,60.01791990129429,
images/exp1b_trial_222_colour0_distractors0_r.png,r,3,0,0,1,,,,,0,154,154,154,,,,,,,,,,,,,,,,,,,,,,,,,,,,,,,,,,,,,,,,,,,578.7810664970311,None,2,0.23955996200675145,578.7810664970311,None,,,,,,,,,,,,,,,,None,None,None,,None,None,579.0645067879814,None,3,1,0.45311622304143384,579.0645067879814,None,579.513390871929,None,None,None,None,,34,001,2023_Jan_30_1122,searchDisc5,2021.2.3,60.01791990129429,
images/exp1b_trial_221_colour3_distractors31_l.png,l,1,3,31,1,,,,,0,155,155,155,,,,,,,,,,,,,,,,,,,,,,,,,,,,,,,,,,,,,,,,,,,579.5306233569863,None,2,0.9212412729975767,579.5306233569863,None,,,,,,,,,,,,,,,,None,None,None,,None,None,580.4992367540253,None,1,1,0.7182089110137895,580.4992367540253,None,581.2134186009062,None,None,None,None,,34,001,2023_Jan_30_1122,searchDisc5,2021.2.3,60.01791990129429,
images/exp1b_trial_167_colour2_distractors9_r.png,r,3,2,9,1,,,,,0,156,156,156,,,,,,,,,,,,,,,,,,,,,,,,,,,,,,,,,,,,,,,,,,,581.2305292810197,None,2,0.33871476602507755,581.2305292810197,None,,,,,,,,,,,,,,,,None,None,None,,None,None,581.614263808995,None,3,1,0.7035405250499025,581.614263808995,None,582.313216099923,None,None,None,None,,34,001,2023_Jan_30_1122,searchDisc5,2021.2.3,60.01791990129429,
images/exp1b_trial_257_colour1_distractors4_r.png,r,3,1,4,1,,,,,0,157,157,157,,,,,,,,,,,,,,,,,,,,,,,,,,,,,,,,,,,,,,,,,,,582.3300009120139,None,2,0.32028358802199364,582.3300009120139,None,,,,,,,,,,,,,,,,None,None,None,,None,None,582.6975632510148,None,3,1,0.654479319055099,582.6975632510148,None,583.3474673709134,None,None,None,None,,34,001,2023_Jan_30_1122,searchDisc5,2021.2.3,60.01791990129429,
images/exp1b_trial_239_colour1_distractors1_l.png,l,1,1,1,1,,,,,0,158,158,158,,,,,,,,,,,,,,,,,,,,,,,,,,,,,,,,,,,,,,,,,,,583.3638959189993,None,2,0.3891423699678853,583.3638959189993,None,,,,,,,,,,,,,,,,None,None,None,,None,None,583.7992747970275,None,1,1,0.6203487840248272,583.7992747970275,None,584.4135118668783,None,None,None,None,,34,001,2023_Jan_30_1122,searchDisc5,2021.2.3,60.01791990129429,
images/exp1b_trial_103_colour2_distractors9_r.png,r,3,2,9,1,,,,,0,159,159,159,,,,,,,,,,,,,,,,,,,,,,,,,,,,,,,,,,,,,,,,,,,584.4301892450312,None,2,0.40674153197323903,584.4301892450312,None,,,,,,,,,,,,,,,,None,None,None,,None,None,584.8824548689881,None,3,1,0.6046584039577283,584.8824548689881,None,585.4802580999094,None,None,None,None,,34,001,2023_Jan_30_1122,searchDisc5,2021.2.3,60.01791990129429,
images/exp1b_trial_4_colour1_distractors31_r.png,r,3,1,31,1,,,,,0,160,160,160,,,,,,,,,,,,,,,,,,,,,,,,,,,,,,,,,,,,,,,,,,,585.4969782989938,None,2,0.3692397630074993,585.4969782989938,None,,,,,,,,,,,,,,,,None,None,None,,None,None,585.9138777939952,None,3,1,0.6347401330131106,585.9138777939952,None,586.5469702628907,None,None,None,None,,34,001,2023_Jan_30_1122,searchDisc5,2021.2.3,60.01791990129429,
images/exp1b_trial_53_colour2_distractors4_l.png,l,1,2,4,1,,,,,0,161,161,161,,,,,,,,,,,,,,,,,,,,,,,,,,,,,,,,,,,,,,,,,,,586.5635439699981,None,2,0.4211939050001092,586.5635439699981,None,,,,,,,,,,,,,,,,None,None,None,,None,None,587.0334149299888,None,1,1,0.690427276014816,587.0334149299888,None,587.7136298749247,None,None,None,None,,34,001,2023_Jan_30_1122,searchDisc5,2021.2.3,60.01791990129429,
images/exp1b_trial_267_colour3_distractors4_r.png,r,3,3,4,1,,,,,0,162,162,162,,,,,,,,,,,,,,,,,,,,,,,,,,,,,,,,,,,,,,,,,,,587.7334775410127,None,2,0.3700443510315381,587.7334775410127,None,,,,,,,,,,,,,,,,None,None,None,,None,None,588.1492779320106,None,3,1,0.6701858150190674,588.1492779320106,None,588.813698571932,None,None,None,None,,34,001,2023_Jan_30_1122,searchDisc5,2021.2.3,60.01791990129429,
images/exp1b_trial_78_colour3_distractors31_r.png,r,3,3,31,1,,,,,0,163,163,163,,,,,,,,,,,,,,,,,,,,,,,,,,,,,,,,,,,,,,,,,,,588.830297995999,None,2,0.3556059230468236,588.830297995999,None,,,,,,,,,,,,,,,,None,None,None,,None,None,589.2335683599813,None,3,1,1.1174723780131899,589.2335683599813,None,590.346995502885,None,None,None,None,,34,001,2023_Jan_30_1122,searchDisc5,2021.2.3,60.01791990129429,
images/exp1b_trial_154_colour3_distractors4_l.png,l,1,3,4,1,,,,,0,164,164,164,,,,,,,,,,,,,,,,,,,,,,,,,,,,,,,,,,,,,,,,,,,590.3642220490146,None,2,0.4074285489623435,590.3642220490146,None,,,,,,,,,,,,,,,,None,None,None,,None,None,590.8161161890021,None,1,1,0.7511370330466889,590.8161161890021,None,591.5634874819079,None,None,None,None,,34,001,2023_Jan_30_1122,searchDisc5,2021.2.3,60.01791990129429,
images/exp1b_trial_251_colour3_distractors9_l.png,l,1,3,9,1,,,,,0,165,165,165,,,,,,,,,,,,,,,,,,,,,,,,,,,,,,,,,,,,,,,,,,,591.5810420750058,None,2,0.3376842010184191,591.5810420750058,None,,,,,,,,,,,,,,,,None,None,None,,None,None,591.9660755119985,None,1,1,0.8380428739474155,591.9660755119985,None,592.7971631688997,None,None,None,None,,34,001,2023_Jan_30_1122,searchDisc5,2021.2.3,60.01791990129429,
images/exp1b_trial_119_colour2_distractors19_l.png,l,1,2,19,1,,,,,0,166,166,166,,,,,,,,,,,,,,,,,,,,,,,,,,,,,,,,,,,,,,,,,,,592.8137124960194,None,2,0.35521532699931413,592.8137124960194,None,,,,,,,,,,,,,,,,None,None,None,,None,None,593.2160942149931,None,1,1,0.9028741539805196,593.2160942149931,None,594.1137711959309,None,None,None,None,,34,001,2023_Jan_30_1122,searchDisc5,2021.2.3,60.01791990129429,
images/exp1b_trial_191_colour0_distractors0_l.png,l,1,0,0,1,,,,,0,167,167,167,,,,,,,,,,,,,,,,,,,,,,,,,,,,,,,,,,,,,,,,,,,594.1313810860156,None,2,0.33791062398813665,594.1313810860156,None,,,,,,,,,,,,,,,,None,None,None,,None,None,594.5167285380303,None,1,1,0.6220470590051264,594.5167285380303,None,595.1303782609175,None,None,None,None,,34,001,2023_Jan_30_1122,searchDisc5,2021.2.3,60.01791990129429,
images/exp1b_trial_27_colour3_distractors9_l.png,l,1,3,9,1,,,,,0,168,168,168,,,,,,,,,,,,,,,,,,,,,,,,,,,,,,,,,,,,,,,,,,,595.147085034987,None,2,0.6220282719586976,595.147085034987,None,,,,,,,,,,,,,,,,None,None,None,,None,None,595.8142127100145,None,1,1,0.7524314419715665,595.8142127100145,None,596.5638128349092,None,None,None,None,,34,001,2023_Jan_30_1122,searchDisc5,2021.2.3,60.01791990129429,
images/exp1b_trial_227_colour1_distractors19_r.png,r,3,1,19,1,,,,,0,169,169,169,,,,,,,,,,,,,,,,,,,,,,,,,,,,,,,,,,,,,,,,,,,596.5833786010044,None,2,0.40422779601067305,596.5833786010044,None,,,,,,,,,,,,,,,,None,None,None,,None,None,597.0317166449968,None,3,1,0.7024377080379054,597.0317166449968,None,597.7307076898869,None,None,None,None,,34,001,2023_Jan_30_1122,searchDisc5,2021.2.3,60.01791990129429,
images/exp1b_trial_170_colour3_distractors1_r.png,r,3,3,1,1,,,,,0,170,170,170,,,,,,,,,,,,,,,,,,,,,,,,,,,,,,,,,,,,,,,,,,,597.7473222889821,None,2,0.47286645701387897,597.7473222889821,None,,,,,,,,,,,,,,,,None,None,None,,None,None,598.2643187260255,None,1,0,0.6040193729568273,598.2643187260255,None,598.8641257699346,None,None,None,None,,34,001,2023_Jan_30_1122,searchDisc5,2021.2.3,60.01791990129429,
images/exp1b_trial_132_colour1_distractors31_r.png,r,3,1,31,1,,,,,0,171,171,171,,,,,,,,,,,,,,,,,,,,,,,,,,,,,,,,,,,,,,,,,,,598.8806163439876,None,2,1.204289382963907,598.8806163439876,None,,,,,,,,,,,,,,,,None,None,None,,None,None,600.1328691240051,None,3,1,0.8850114440429024,600.1328691240051,None,601.0139919939102,None,None,None,None,,34,001,2023_Jan_30_1122,searchDisc5,2021.2.3,60.01791990129429,
images/exp1b_trial_93_colour3_distractors31_l.png,l,1,3,31,1,,,,,0,172,172,172,,,,,,,,,,,,,,,,,,,,,,,,,,,,,,,,,,,,,,,,,,,601.031144011009,None,2,1.0226845369907096,601.031144011009,None,,,,,,,,,,,,,,,,None,None,None,,None,None,602.0977295240154,None,1,1,0.8675337780150585,602.0977295240154,None,602.9640091949259,None,None,None,None,,34,001,2023_Jan_30_1122,searchDisc5,2021.2.3,60.01791990129429,
images/exp1b_trial_123_colour3_distractors9_l.png,l,1,3,9,1,,,,,0,173,173,173,,,,,,,,,,,,,,,,,,,,,,,,,,,,,,,,,,,,,,,,,,,602.9812304420047,None,2,0.5067637109896168,602.9812304420047,None,,,,,,,,,,,,,,,,None,None,None,,None,None,603.5330129590002,None,1,1,0.8517724919947796,603.5330129590002,None,604.3807272189297,None,None,None,None,,34,001,2023_Jan_30_1122,searchDisc5,2021.2.3,60.01791990129429,
images/exp1b_trial_39_colour2_distractors9_r.png,r,3,2,9,1,,,,,0,174,174,174,,,,,,,,,,,,,,,,,,,,,,,,,,,,,,,,,,,,,,,,,,,604.398116190976,None,2,0.4573715419974178,604.398116190976,None,,,,,,,,,,,,,,,,None,None,None,,None,None,604.9003897400107,None,3,1,0.7345262129674666,604.9003897400107,None,605.6304127938929,None,None,None,None,,34,001,2023_Jan_30_1122,searchDisc5,2021.2.3,60.01791990129429,
images/exp1b_trial_164_colour1_distractors31_r.png,r,3,1,31,1,,,,,0,175,175,175,,,,,,,,,,,,,,,,,,,,,,,,,,,,,,,,,,,,,,,,,,,605.6476877550012,None,2,1.4052068659802899,605.6476877550012,None,,,,,,,,,,,,,,,,None,None,None,,None,None,607.1006828389945,None,3,1,0.6845530589926057,607.1006828389945,None,607.7808155338862,None,None,None,None,,34,001,2023_Jan_30_1122,searchDisc5,2021.2.3,60.01791990129429,
images/exp1b_trial_82_colour1_distractors19_l.png,l,1,1,19,1,,,,,0,176,176,176,,,,,,,,,,,,,,,,,,,,,,,,,,,,,,,,,,,,,,,,,,,607.7995430169976,None,2,0.37457090604584664,607.7995430169976,None,,,,,,,,,,,,,,,,None,None,None,,None,None,608.2167546270066,None,1,1,0.7514015499618836,608.2167546270066,None,608.9662678348832,None,None,None,None,,34,001,2023_Jan_30_1122,searchDisc5,2021.2.3,60.01791990129429,
images/exp1b_trial_243_colour1_distractors31_l.png,l,1,1,31,1,,,,,0,177,177,177,,,,,,,,,,,,,,,,,,,,,,,,,,,,,,,,,,,,,,,,,,,608.9818253599806,None,2,0.40257809695322067,608.9818253599806,None,,,,,,,,,,,,,,,,None,None,None,,None,None,609.4310574320261,None,1,1,0.8880646459874697,609.4310574320261,None,610.3151348729152,None,None,None,None,,34,001,2023_Jan_30_1122,searchDisc5,2021.2.3,60.01791990129429,
images/exp1b_trial_165_colour2_distractors1_r.png,r,3,2,1,1,,,,,0,178,178,178,,,,,,,,,,,,,,,,,,,,,,,,,,,,,,,,,,,,,,,,,,,610.3308648450184,None,2,0.3870010339887813,610.3308648450184,None,,,,,,,,,,,,,,,,None,None,None,,None,None,610.7644495639834,None,3,1,0.6869954299763776,610.7644495639834,None,611.4476187239052,None,None,None,None,,34,001,2023_Jan_30_1122,searchDisc5,2021.2.3,60.01791990129429,
images/exp1b_trial_146_colour1_distractors19_l.png,l,1,1,19,1,,,,,0,179,179,179,,,,,,,,,,,,,,,,,,,,,,,,,,,,,,,,,,,,,,,,,,,611.4651852200041,None,2,0.35517596697900444,611.4651852200041,None,,,,,,,,,,,,,,,,None,None,None,,None,None,611.8665874479921,None,1,1,0.9357912010164,611.8665874479921,None,612.7977031448972,None,None,None,None,,34,001,2023_Jan_30_1122,searchDisc5,2021.2.3,60.01791990129429,
images/exp1b_trial_76_colour3_distractors9_r.png,r,3,3,9,1,,,,,0,180,180,180,,,,,,,,,,,,,,,,,,,,,,,,,,,,,,,,,,,,,,,,,,,612.8150089569972,None,2,0.3379268880235031,612.8150089569972,None,,,,,,,,,,,,,,,,None,None,None,,None,None,613.2003379280213,None,3,1,1.1535709500312805,613.2003379280213,None,614.3474828659091,None,None,None,None,,34,001,2023_Jan_30_1122,searchDisc5,2021.2.3,60.01791990129429,
images/exp1b_trial_51_colour1_distractors31_l.png,l,1,1,31,1,,,,,0,181,181,181,,,,,,,,,,,,,,,,,,,,,,,,,,,,,,,,,,,,,,,,,,,614.364666946989,None,2,0.3566392849897966,614.364666946989,None,,,,,,,,,,,,,,,,None,None,None,,None,None,614.7653198519838,None,1,1,0.8011284520034678,614.7653198519838,None,615.5643554098788,None,None,None,None,,34,001,2023_Jan_30_1122,searchDisc5,2021.2.3,60.01791990129429,
images/exp1b_trial_71_colour2_distractors9_r.png,r,3,2,9,1,,,,,0,182,182,182,,,,,,,,,,,,,,,,,,,,,,,,,,,,,,,,,,,,,,,,,,,615.5806694449857,None,2,0.3538133249967359,615.5806694449857,None,,,,,,,,,,,,,,,,None,None,None,,None,None,615.980723049026,None,3,1,0.7539144670008682,615.980723049026,None,616.7310747329029,None,None,None,None,,34,001,2023_Jan_30_1122,searchDisc5,2021.2.3,60.01791990129429,
images/exp1b_trial_300_colour3_distractors9_r.png,r,3,3,9,1,,,,,0,183,183,183,,,,,,,,,,,,,,,,,,,,,,,,,,,,,,,,,,,,,,,,,,,616.7477663669852,None,2,0.4044861380243674,616.7477663669852,None,,,,,,,,,,,,,,,,None,None,None,,None,None,617.2002253209939,None,3,1,0.8217215689946897,617.2002253209939,None,618.0144133018912,None,None,None,None,,34,001,2023_Jan_30_1122,searchDisc5,2021.2.3,60.01791990129429,
images/exp1b_trial_28_colour3_distractors19_l.png,l,1,3,19,1,,,,,0,184,184,184,,,,,,,,,,,,,,,,,,,,,,,,,,,,,,,,,,,,,,,,,,,618.0311423559906,None,2,0.37031071103410795,618.0311423559906,None,,,,,,,,,,,,,,,,None,None,None,,None,None,618.4494669699925,None,1,1,0.6354856640100479,618.4494669699925,None,619.0812548468821,None,None,None,None,,34,001,2023_Jan_30_1122,searchDisc5,2021.2.3,60.01791990129429,
images/exp1b_trial_318_colour0_distractors0_r.png,r,3,0,0,1,,,,,0,185,185,185,,,,,,,,,,,,,,,,,,,,,,,,,,,,,,,,,,,,,,,,,,,619.0985211969819,None,2,0.27196577499853447,619.0985211969819,None,,,,,,,,,,,,,,,,None,None,None,,None,None,619.4156174020027,None,3,1,0.5380976190208457,619.4156174020027,None,619.947483082884,None,None,None,None,,34,001,2023_Jan_30_1122,searchDisc5,2021.2.3,60.01791990129429,
images/exp1b_trial_124_colour3_distractors19_l.png,l,1,3,19,1,,,,,0,186,186,186,,,,,,,,,,,,,,,,,,,,,,,,,,,,,,,,,,,,,,,,,,,619.964824263996,None,2,0.7753844080143608,619.964824263996,None,,,,,,,,,,,,,,,,None,None,None,,None,None,620.783453104028,None,1,1,0.8818155969493091,620.783453104028,None,621.6645263489336,None,None,None,None,,34,001,2023_Jan_30_1122,searchDisc5,2021.2.3,60.01791990129429,
images/exp1b_trial_14_colour3_distractors31_r.png,r,3,3,31,1,,,,,0,187,187,187,,,,,,,,,,,,,,,,,,,,,,,,,,,,,,,,,,,,,,,,,,,621.6807375770295,None,2,0.3714104620157741,621.6807375770295,None,,,,,,,,,,,,,,,,None,None,None,,None,None,622.1001685350202,None,3,1,1.6173753210459836,622.1001685350202,None,623.7143622208969,None,None,None,None,,34,001,2023_Jan_30_1122,searchDisc5,2021.2.3,60.01791990129429,
images/exp1b_trial_220_colour3_distractors19_l.png,l,1,3,19,1,,,,,0,188,188,188,,,,,,,,,,,,,,,,,,,,,,,,,,,,,,,,,,,,,,,,,,,623.7315349680139,None,2,0.4080152590177022,623.7315349680139,None,,,,,,,,,,,,,,,,None,None,None,,None,None,624.1843607660267,None,1,1,0.8827834050171077,624.1843607660267,None,625.06469521689,None,None,None,None,,34,001,2023_Jan_30_1122,searchDisc5,2021.2.3,60.01791990129429,
images/exp1b_trial_88_colour2_distractors31_l.png,l,1,2,31,1,,,,,0,189,189,189,,,,,,,,,,,,,,,,,,,,,,,,,,,,,,,,,,,,,,,,,,,625.0819055369939,None,2,0.28783682599896565,625.0819055369939,None,,,,,,,,,,,,,,,,None,None,None,,None,None,625.4155491549755,None,1,1,0.7534350039786659,625.4155491549755,None,626.164974796935,None,None,None,None,,34,001,2023_Jan_30_1122,searchDisc5,2021.2.3,60.01791990129429,
images/exp1b_trial_57_colour3_distractors1_l.png,l,1,3,1,1,,,,,0,190,190,190,,,,,,,,,,,,,,,,,,,,,,,,,,,,,,,,,,,,,,,,,,,626.1820304819848,None,2,0.3878077300032601,626.1820304819848,None,,,,,,,,,,,,,,,,None,None,None,,None,None,626.6177922899951,None,1,1,0.5879842289723456,626.6177922899951,None,627.1972110139322,None,None,None,None,,34,001,2023_Jan_30_1122,searchDisc5,2021.2.3,60.01791990129429,
images/exp1b_trial_121_colour3_distractors1_l.png,l,1,3,1,1,,,,,0,191,191,191,,,,,,,,,,,,,,,,,,,,,,,,,,,,,,,,,,,,,,,,,,,627.2155842999928,None,2,0.5054908490274101,627.2155842999928,None,,,,,,,,,,,,,,,,None,None,None,,None,None,627.7677640570328,None,1,1,0.8513804530375637,627.7677640570328,None,628.6145951818908,None,None,None,None,,34,001,2023_Jan_30_1122,searchDisc5,2021.2.3,60.01791990129429,
images/exp1b_trial_298_colour3_distractors1_r.png,r,3,3,1,1,,,,,0,192,192,192,,,,,,,,,,,,,,,,,,,,,,,,,,,,,,,,,,,,,,,,,,,628.6314292550087,None,2,0.37452414899598807,628.6314292550087,None,,,,,,,,,,,,,,,,None,None,None,,None,None,629.0500430379761,None,3,1,0.7356025759945624,629.0500430379761,None,629.7814217089326,None,None,None,None,,34,001,2023_Jan_30_1122,searchDisc5,2021.2.3,60.01791990129429,
images/exp1b_trial_286_colour0_distractors0_r.png,r,3,0,0,1,,,,,0,193,193,193,,,,,,,,,,,,,,,,,,,,,,,,,,,,,,,,,,,,,,,,,,,629.7976987920119,None,2,0.33795748103875667,629.7976987920119,None,,,,,,,,,,,,,,,,None,None,None,,None,None,630.1825061379932,None,3,1,0.622809613996651,630.1825061379932,None,630.7981729818857,None,None,None,None,,34,001,2023_Jan_30_1122,searchDisc5,2021.2.3,60.01791990129429,
images/exp1b_trial_169_colour2_distractors31_r.png,r,3,2,31,1,,,,,0,194,194,194,,,,,,,,,,,,,,,,,,,,,,,,,,,,,,,,,,,,,,,,,,,630.8154388910043,None,2,0.3908036799984984,630.8154388910043,None,,,,,,,,,,,,,,,,None,None,None,,None,None,631.248860371008,None,3,1,0.716990276996512,631.248860371008,None,631.9649007429252,None,None,None,None,,34,001,2023_Jan_30_1122,searchDisc5,2021.2.3,60.01791990129429,
images/exp1b_trial_177_colour1_distractors9_l.png,l,1,1,9,1,,,,,0,195,195,195,,,,,,,,,,,,,,,,,,,,,,,,,,,,,,,,,,,,,,,,,,,631.9835764429881,None,2,3.288805599033367,631.9835764429881,None,,,,,,,,,,,,,,,,None,None,None,,None,None,635.3182418509969,None,1,1,1.1865805240231566,635.3182418509969,None,636.498349355883,None,None,None,None,,34,001,2023_Jan_30_1122,searchDisc5,2021.2.3,60.01791990129429,
images/exp1b_trial_45_colour3_distractors19_r.png,r,3,3,19,1,,,,,0,196,196,196,,,,,,,,,,,,,,,,,,,,,,,,,,,,,,,,,,,,,,,,,,,636.5157745089964,None,2,0.35544922202825546,636.5157745089964,None,,,,,,,,,,,,,,,,None,None,None,,None,None,636.9181240060134,None,3,1,0.7678682109690271,636.9181240060134,None,637.681642078911,None,None,None,None,,34,001,2023_Jan_30_1122,searchDisc5,2021.2.3,60.01791990129429,
images/exp1b_trial_61_colour3_distractors31_l.png,l,1,3,31,1,,,,,0,197,197,197,,,,,,,,,,,,,,,,,,,,,,,,,,,,,,,,,,,,,,,,,,,637.7010959259933,None,2,0.3222532109939493,637.7010959259933,None,,,,,,,,,,,,,,,,None,None,None,,None,None,638.0680709080189,None,1,1,0.8681762180058286,638.0680709080189,None,638.9317852929235,None,None,None,None,,34,001,2023_Jan_30_1122,searchDisc5,2021.2.3,60.01791990129429,
images/exp1b_trial_284_colour3_distractors19_l.png,l,1,3,19,1,,,,,0,198,198,198,,,,,,,,,,,,,,,,,,,,,,,,,,,,,,,,,,,,,,,,,,,638.9490611510118,None,2,0.3544637140003033,638.9490611510118,None,,,,,,,,,,,,,,,,None,None,None,,None,None,639.3487673139898,None,1,1,0.6196500769583508,639.3487673139898,None,639.9650164119084,None,None,None,None,,34,001,2023_Jan_30_1122,searchDisc5,2021.2.3,60.01791990129429,
images/exp1b_trial_1_colour1_distractors4_r.png,r,3,1,4,1,,,,,0,199,199,199,,,,,,,,,,,,,,,,,,,,,,,,,,,,,,,,,,,,,,,,,,,639.9840099120047,None,2,0.37341183004900813,639.9840099120047,None,,,,,,,,,,,,,,,,None,None,None,,None,None,640.3986570429988,None,3,1,1.0861250690068118,640.3986570429988,None,641.4818771948921,None,None,None,None,,34,001,2023_Jan_30_1122,searchDisc5,2021.2.3,60.01791990129429,
images/exp1b_trial_36_colour1_distractors31_r.png,r,3,1,31,1,,,,,0,200,200,200,,,,,,,,,,,,,,,,,,,,,,,,,,,,,,,,,,,,,,,,,,,641.4995407540118,None,2,0.7570306020206772,641.4995407540118,None,,,,,,,,,,,,,,,,None,None,None,,None,None,642.3012229570304,None,3,1,0.6140946730156429,642.3012229570304,None,642.9151792689227,None,None,None,None,,34,001,2023_Jan_30_1122,searchDisc5,2021.2.3,60.01791990129429,
images/exp1b_trial_232_colour2_distractors19_r.png,r,3,2,19,1,,,,,0,201,201,201,,,,,,,,,,,,,,,,,,,,,,,,,,,,,,,,,,,,,,,,,,,642.9318063560058,None,2,0.40416992001701146,642.9318063560058,None,,,,,,,,,,,,,,,,None,None,None,,None,None,643.382923030993,None,3,1,0.6039019039599225,643.382923030993,None,643.9817146759015,None,None,None,None,,34,001,2023_Jan_30_1122,searchDisc5,2021.2.3,60.01791990129429,
images/exp1b_trial_20_colour2_distractors1_l.png,l,1,2,1,1,,,,,0,202,202,202,,,,,,,,,,,,,,,,,,,,,,,,,,,,,,,,,,,,,,,,,,,643.9984645600198,None,2,0.6221798420301639,643.9984645600198,None,,,,,,,,,,,,,,,,None,None,None,,None,None,644.6649640889955,None,1,1,0.6050091559882276,644.6649640889955,None,645.2653438778943,None,None,None,None,,34,001,2023_Jan_30_1122,searchDisc5,2021.2.3,60.01791990129429,
images/exp1b_trial_180_colour2_distractors1_l.png,l,1,2,1,1,,,,,0,203,203,203,,,,,,,,,,,,,,,,,,,,,,,,,,,,,,,,,,,,,,,,,,,645.2826842769864,None,2,0.3883929399889894,645.2826842769864,None,,,,,,,,,,,,,,,,None,None,None,,None,None,645.7175995510188,None,1,1,0.6887276039924473,645.7175995510188,None,646.3996966318809,None,None,None,None,,34,001,2023_Jan_30_1122,searchDisc5,2021.2.3,60.01791990129429,
images/exp1b_trial_189_colour3_distractors31_l.png,l,1,3,31,1,,,,,0,204,204,204,,,,,,,,,,,,,,,,,,,,,,,,,,,,,,,,,,,,,,,,,,,646.4175568330102,None,2,0.8878222389612347,646.4175568330102,None,,,,,,,,,,,,,,,,None,None,None,,None,None,647.3491841630312,None,1,1,0.7341246160212904,647.3491841630312,None,648.081875212898,None,None,None,None,,34,001,2023_Jan_30_1122,searchDisc5,2021.2.3,60.01791990129429,
images/exp1b_trial_319_colour0_distractors0_l.png,l,1,0,0,1,,,,,0,205,205,205,,,,,,,,,,,,,,,,,,,,,,,,,,,,,,,,,,,,,,,,,,,648.0985861499794,None,2,0.3877528300508857,648.0985861499794,None,,,,,,,,,,,,,,,,None,None,None,,None,None,648.5348306280212,None,1,1,0.6253610879648477,648.5348306280212,None,649.1496389008826,None,None,None,None,,34,001,2023_Jan_30_1122,searchDisc5,2021.2.3,60.01791990129429,
images/exp1b_trial_250_colour3_distractors4_l.png,l,1,3,4,1,,,,,0,206,206,206,,,,,,,,,,,,,,,,,,,,,,,,,,,,,,,,,,,,,,,,,,,649.1645249190042,None,2,0.43666764098452404,649.1645249190042,None,,,,,,,,,,,,,,,,None,None,None,,None,None,649.650928558025,None,1,1,0.5192354610189795,649.650928558025,None,650.1653098919196,None,None,None,None,,34,001,2023_Jan_30_1122,searchDisc5,2021.2.3,60.01791990129429,
images/exp1b_trial_142_colour3_distractors31_r.png,r,3,3,31,1,,,,,0,207,207,207,,,,,,,,,,,,,,,,,,,,,,,,,,,,,,,,,,,,,,,,,,,650.1845775970141,None,2,0.4214323969790712,650.1845775970141,None,,,,,,,,,,,,,,,,None,None,None,,None,None,650.6488686819794,None,3,1,0.7189676709822379,650.6488686819794,None,651.3653484358802,None,None,None,None,,34,001,2023_Jan_30_1122,searchDisc5,2021.2.3,60.01791990129429,
images/exp1b_trial_253_colour3_distractors31_l.png,l,1,3,31,1,,,,,0,208,208,208,,,,,,,,,,,,,,,,,,,,,,,,,,,,,,,,,,,,,,,,,,,651.3845269390149,None,2,0.5712836610036902,651.3845269390149,None,,,,,,,,,,,,,,,,None,None,None,,None,None,651.9997865160112,None,1,1,0.9856773789506406,651.9997865160112,None,652.982106191921,None,None,None,None,,34,001,2023_Jan_30_1122,searchDisc5,2021.2.3,60.01791990129429,
images/exp1b_trial_270_colour3_distractors31_r.png,r,3,3,31,1,,,,,0,209,209,209,,,,,,,,,,,,,,,,,,,,,,,,,,,,,,,,,,,,,,,,,,,652.9987754109898,None,2,0.4712641730438918,652.9987754109898,None,,,,,,,,,,,,,,,,None,None,None,,None,None,653.5188385890215,None,3,1,0.9512137889978476,653.5188385890215,None,654.4654632459278,None,None,None,None,,34,001,2023_Jan_30_1122,searchDisc5,2021.2.3,60.01791990129429,
images/exp1b_trial_252_colour3_distractors19_l.png,l,1,3,19,1,,,,,0,210,210,210,,,,,,,,,,,,,,,,,,,,,,,,,,,,,,,,,,,,,,,,,,,654.4826762970188,None,2,0.4754821490496397,654.4826762970188,None,,,,,,,,,,,,,,,,None,None,None,,None,None,655.0017455799971,None,1,1,0.931495354976505,655.0017455799971,None,655.9321470378782,None,None,None,None,,34,001,2023_Jan_30_1122,searchDisc5,2021.2.3,60.01791990129429,
images/exp1b_trial_155_colour3_distractors9_l.png,l,1,3,9,1,,,,,0,211,211,211,,,,,,,,,,,,,,,,,,,,,,,,,,,,,,,,,,,,,,,,,,,655.9513830409851,None,2,0.4545855639735237,655.9513830409851,None,,,,,,,,,,,,,,,,None,None,None,,None,None,656.4514324439806,None,1,1,0.5537160329986364,656.4514324439806,None,656.9987568499055,None,None,None,None,,34,001,2023_Jan_30_1122,searchDisc5,2021.2.3,60.01791990129429,
images/exp1b_trial_258_colour1_distractors9_r.png,r,3,1,9,1,,,,,0,212,212,212,,,,,,,,,,,,,,,,,,,,,,,,,,,,,,,,,,,,,,,,,,,657.0159735429916,None,2,0.43773896695347503,657.0159735429916,None,,,,,,,,,,,,,,,,None,None,None,,None,None,657.5000665559783,None,3,1,0.8223326769657433,657.5000665559783,None,658.3157800168847,None,None,None,None,,34,001,2023_Jan_30_1122,searchDisc5,2021.2.3,60.01791990129429,
images/exp1b_trial_94_colour0_distractors0_r.png,r,3,0,0,1,,,,,0,213,213,213,,,,,,,,,,,,,,,,,,,,,,,,,,,,,,,,,,,,,,,,,,,658.3340076900204,None,2,0.3878702180227265,658.3340076900204,None,,,,,,,,,,,,,,,,None,None,None,,None,None,658.7680215649889,None,3,1,0.6374182899598964,658.7680215649889,None,659.3989415538963,None,None,None,None,,34,001,2023_Jan_30_1122,searchDisc5,2021.2.3,60.01791990129429,
images/exp1b_trial_185_colour3_distractors1_l.png,l,1,3,1,1,,,,,0,214,214,214,,,,,,,,,,,,,,,,,,,,,,,,,,,,,,,,,,,,,,,,,,,659.4165493570035,None,2,0.38779001199873164,659.4165493570035,None,,,,,,,,,,,,,,,,None,None,None,,None,None,659.8513436969952,None,1,1,0.8054615649743937,659.8513436969952,None,660.6489462458994,None,None,None,None,,34,001,2023_Jan_30_1122,searchDisc5,2021.2.3,60.01791990129429,
images/exp1b_trial_301_colour3_distractors19_r.png,r,3,3,19,1,,,,,0,215,215,215,,,,,,,,,,,,,,,,,,,,,,,,,,,,,,,,,,,,,,,,,,,660.6657365499996,None,2,0.3556973250233568,660.6657365499996,None,,,,,,,,,,,,,,,,None,None,None,,None,None,661.065827451006,None,3,1,0.7525826710043475,661.065827451006,None,661.8156414579134,None,None,None,None,,34,001,2023_Jan_30_1122,searchDisc5,2021.2.3,60.01791990129429,
images/exp1b_trial_213_colour2_distractors4_l.png,l,1,2,4,1,,,,,0,216,216,216,,,,,,,,,,,,,,,,,,,,,,,,,,,,,,,,,,,,,,,,,,,661.8325189240277,None,2,0.3702618370298296,661.8325189240277,None,,,,,,,,,,,,,,,,None,None,None,,None,None,662.2513359420118,None,1,1,0.7226580609567463,662.2513359420118,None,662.9657105599181,None,None,None,None,,34,001,2023_Jan_30_1122,searchDisc5,2021.2.3,60.01791990129429,
images/exp1b_trial_178_colour1_distractors19_l.png,l,1,1,19,1,,,,,0,217,217,217,,,,,,,,,,,,,,,,,,,,,,,,,,,,,,,,,,,,,,,,,,,662.9826090190327,None,2,0.41973361000418663,662.9826090190327,None,,,,,,,,,,,,,,,,None,None,None,,None,None,663.4520866280072,None,1,1,0.6206802770029753,663.4520866280072,None,664.0657099509262,None,None,None,None,,34,001,2023_Jan_30_1122,searchDisc5,2021.2.3,60.01791990129429,
images/exp1b_trial_289_colour1_distractors4_r.png,r,3,1,4,1,,,,,0,218,218,218,,,,,,,,,,,,,,,,,,,,,,,,,,,,,,,,,,,,,,,,,,,664.0825156560168,None,2,0.3715360200149007,664.0825156560168,None,,,,,,,,,,,,,,,,None,None,None,,None,None,664.500002766028,None,3,1,0.8057124380138703,664.500002766028,None,665.2984824778978,None,None,None,None,,34,001,2023_Jan_30_1122,searchDisc5,2021.2.3,60.01791990129429,
images/exp1b_trial_96_colour1_distractors1_r.png,r,3,1,1,1,,,,,0,219,219,219,,,,,,,,,,,,,,,,,,,,,,,,,,,,,,,,,,,,,,,,,,,665.3166311610257,None,2,0.40417492704000324,665.3166311610257,None,,,,,,,,,,,,,,,,None,None,None,,None,None,665.7666936889873,None,3,1,0.554485596017912,665.7666936889873,None,666.3158071609214,None,None,None,None,,34,001,2023_Jan_30_1122,searchDisc5,2021.2.3,60.01791990129429,
images/exp1b_trial_219_colour3_distractors9_l.png,l,1,3,9,1,,,,,0,220,220,220,,,,,,,,,,,,,,,,,,,,,,,,,,,,,,,,,,,,,,,,,,,666.3324640400242,None,2,0.30467617500107735,666.3324640400242,None,,,,,,,,,,,,,,,,None,None,None,,None,None,666.6826881450252,None,1,1,0.720073176024016,666.6826881450252,None,667.399195929931,None,None,None,None,,34,001,2023_Jan_30_1122,searchDisc5,2021.2.3,60.01791990129429,
images/exp1b_trial_17_colour1_distractors9_l.png,l,1,1,9,1,,,,,0,221,221,221,,,,,,,,,,,,,,,,,,,,,,,,,,,,,,,,,,,,,,,,,,,667.4158420549938,None,2,0.3741002370370552,667.4158420549938,None,,,,,,,,,,,,,,,,None,None,None,,None,None,667.8353996319929,None,1,1,0.48466477397596464,667.8353996319929,None,668.3159560898785,None,None,None,None,,34,001,2023_Jan_30_1122,searchDisc5,2021.2.3,60.01791990129429,
images/exp1b_trial_128_colour1_distractors1_r.png,r,3,1,1,1,,,,,0,222,222,222,,,,,,,,,,,,,,,,,,,,,,,,,,,,,,,,,,,,,,,,,,,668.3334467289969,None,2,0.3380615620408207,668.3334467289969,None,,,,,,,,,,,,,,,,None,None,None,,None,None,668.7160861640004,None,3,1,0.47127154195914045,668.7160861640004,None,669.1825259568868,None,None,None,None,,34,001,2023_Jan_30_1122,searchDisc5,2021.2.3,60.01791990129429,
images/exp1b_trial_60_colour3_distractors19_l.png,l,1,3,19,1,,,,,0,223,223,223,,,,,,,,,,,,,,,,,,,,,,,,,,,,,,,,,,,,,,,,,,,669.1997219100012,None,2,0.33752768102567643,669.1997219100012,None,,,,,,,,,,,,,,,,None,None,None,,None,None,669.5827624889789,None,1,1,1.435801277984865,669.5827624889789,None,671.0158236139105,None,None,None,None,,34,001,2023_Jan_30_1122,searchDisc5,2021.2.3,60.01791990129429,
images/exp1b_trial_25_colour3_distractors1_l.png,l,1,3,1,1,,,,,0,224,224,224,,,,,,,,,,,,,,,,,,,,,,,,,,,,,,,,,,,,,,,,,,,671.0331738810055,None,2,0.3898897190229036,671.0331738810055,None,,,,,,,,,,,,,,,,None,None,None,,None,None,671.4689323769999,None,1,1,1.0868465880048461,671.4689323769999,None,672.5492847228888,None,None,None,None,,34,001,2023_Jan_30_1122,searchDisc5,2021.2.3,60.01791990129429,
images/exp1b_trial_34_colour1_distractors9_r.png,r,3,1,9,1,,,,,0,225,225,225,,,,,,,,,,,,,,,,,,,,,,,,,,,,,,,,,,,,,,,,,,,672.5660998380044,None,2,0.5888275090255775,672.5660998380044,None,,,,,,,,,,,,,,,,None,None,None,,None,None,673.1991263910313,None,3,1,0.8531945800059475,673.1991263910313,None,674.0493321829126,None,None,None,None,,34,001,2023_Jan_30_1122,searchDisc5,2021.2.3,60.01791990129429,
