ImageFile,targ_side,correctAnswer,colour,distNo,targetType,trials_2.thisRepN,trials_2.thisTrialN,trials_2.thisN,trials_2.thisIndex,trials.thisRepN,trials.thisTrialN,trials.thisN,trials.thisIndex,text_6.started,text_6.stopped,buttonBox.keys,buttonBox.rt,buttonBox.started,buttonBox.stopped,text_7.started,text_7.stopped,buttonBox_3.keys,buttonBox_3.rt,buttonBox_3.started,buttonBox_3.stopped,text_8.started,text_8.stopped,buttonBox_4.keys,buttonBox_4.rt,buttonBox_4.started,buttonBox_4.stopped,text_9.started,text_9.stopped,buttonBox_5.keys,buttonBox_5.rt,buttonBox_5.started,buttonBox_5.stopped,text_2.started,text_2.stopped,buttonBox_6.keys,buttonBox_6.rt,buttonBox_6.started,buttonBox_6.stopped,text_5.started,text_5.stopped,buttonBox_7.keys,buttonBox_7.rt,image_2.started,image_2.stopped,image_3.started,image_3.stopped,buttonBox_8.keys,buttonBox_8.rt,buttonBox_8.started,buttonBox_8.stopped,polygon.started,polygon.stopped,buttonBox_9.keys,buttonBox_9.rt,buttonBox_9.started,buttonBox_9.stopped,image.started,image.stopped,buttonBox_10.keys,buttonBox_10.corr,buttonBox_10.rt,buttonBox_10.started,buttonBox_10.stopped,text_4.started,text_4.stopped,text.started,text.stopped,buttonBox_11.keys,buttonBox_11.rt,buttonBox_11.started,buttonBox_11.stopped,targetTypeInstruction.started,targetTypeInstruction.stopped,buttonBox_2.keys,buttonBox_2.rt,buttonBox_2.started,buttonBox_2.stopped,dispStimuli.started,dispStimuli.stopped,buttonBox_12.keys,buttonBox_12.corr,buttonBox_12.rt,buttonBox_12.started,buttonBox_12.stopped,breakMessage.started,breakMessage.stopped,buttonBox_13.keys,buttonBox_13.started,buttonBox_13.stopped,buttonBox_13.rt,participant,session,date,expName,psychopyVersion,frameRate,
,,,,,,,,,,,,,,46.992983363976236,None,2,19.457217882038094,46.992983363976236,None,,,,,,,,,,,,,,,,,,,,,,,,,,,,,,,,,,,,,,,,,,,,,,,,,,,,,,,,,,,,,,,,,,,,,,,,,,,,,35,001,2023_Jan_30_1218,searchDisc5,2021.2.3,59.96200723146965,
,,,,,,,,,,,,,,,,,,,,66.4433728029835,None,2,66.3009805130423,66.4433728029835,None,,,,,,,,,,,,,,,,,,,,,,,,,,,,,,,,,,,,,,,,,,,,,,,,,,,,,,,,,,,,,,,,,,,,,,,35,001,2023_Jan_30_1218,searchDisc5,2021.2.3,59.96200723146965,
,,,,,,,,,,,,,,,,,,,,,,,,,,132.7432473449735,None,2,5.530008877045475,132.7432473449735,None,,,,,,,,,,,,,,,,,,,,,,,,,,,,,,,,,,,,,,,,,,,,,,,,,,,,,,,,,,,,,,,,,35,001,2023_Jan_30_1218,searchDisc5,2021.2.3,59.96200723146965,
,,,,,,,,,,,,,,,,,,,,,,,,,,,,,,,,138.27672716998495,None,2,4.480335617961828,138.27672716998495,None,,,,,,,,,,,,,,,,,,,,,,,,,,,,,,,,,,,,,,,,,,,,,,,,,,,,,,,,,,,35,001,2023_Jan_30_1218,searchDisc5,2021.2.3,59.96200723146965,
,,,,,,,,,,,,,,,,,,,,,,,,,,,,,,,,,,,,,,142.76002605399117,None,2,11.331451988022309,143.74560896598268,None,,,,,,,,,,,,,,,,,,,,,,,,,,,,,,,,,,,,,,,,,,,,,,,,,,,,,35,001,2023_Jan_30_1218,searchDisc5,2021.2.3,59.96200723146965,
,,,,,,,,,,,,,,,,,,,,,,,,,,,,,,,,,,,,,,,,,,,,155.07909481000388,None,2,6.581488177005667,,,,,,,,,,,,,,,,,,,,,,,,,,,,,,,,,,,,,,,,,,,,,,,,,35,001,2023_Jan_30_1218,searchDisc5,2021.2.3,59.96200723146965,
,,,,,,,,,,,,,,,,,,,,,,,,,,,,,,,,,,,,,,,,,,,,,,,,164.66058048501145,None,164.66058048501145,None,2,5.7678559140185826,164.66058048501145,None,,,,,,,,,,,,,,,,,,,,,,,,,,,,,,,,,,,,,,,,,35,001,2023_Jan_30_1218,searchDisc5,2021.2.3,59.96200723146965,
Practice arrays/exp1a_trial_10_colour3_distractors1_r.png,r,3,,,,0,0,0,4,,,,,,,,,,,,,,,,,,,,,,,,,,,,,,,,,,,,,,,,,,,,,,,170.46286825300194,None,2,1.8675469750305638,170.46286825300194,None,172.37973716901615,None,3,1,2.9380360649665818,172.37973716901615,None,175.31059593800455,None,,,,,,,,,,,,,,,,,,,,,,,,,,35,001,2023_Jan_30_1218,searchDisc5,2021.2.3,59.96200723146965,
Practice arrays/exp1a_trial_14_colour3_distractors31_r.png,r,3,,,,0,1,1,6,,,,,,,,,,,,,,,,,,,,,,,,,,,,,,,,,,,,,,,,,,,,,,,177.31295951496577,None,2,2.563598279026337,177.31295951496577,None,179.92737546999706,None,3,1,2.080281217000447,179.92737546999706,None,182.01110278896522,None,,,,,,,,,,,,,,,,,,,,,,,,,,35,001,2023_Jan_30_1218,searchDisc5,2021.2.3,59.96200723146965,
Practice arrays/exp1a_trial_16_colour1_distractors4_l.png,l,1,,,,0,2,2,13,,,,,,,,,,,,,,,,,,,,,,,,,,,,,,,,,,,,,,,,,,,,,,,184.0133789969841,None,2,0.9306850510183722,184.0133789969841,None,184.99462297098944,None,1,1,1.4854064949904568,184.99462297098944,None,186.47806065902114,None,,,,,,,,,,,,,,,,,,,,,,,,,,35,001,2023_Jan_30_1218,searchDisc5,2021.2.3,59.96200723146965,
Practice arrays/exp1a_trial_7_colour2_distractors9_r.png,r,3,,,,0,3,3,2,,,,,,,,,,,,,,,,,,,,,,,,,,,,,,,,,,,,,,,,,,,,,,,188.48019063501852,None,2,1.099459606979508,188.48019063501852,None,189.63017881999258,None,3,1,0.6855032710009255,189.63017881999258,None,190.31122495100135,None,,,,,,,,,,,,,,,,,,,,,,,,,,35,001,2023_Jan_30_1218,searchDisc5,2021.2.3,59.96200723146965,
Practice arrays/exp1a_trial_25_colour3_distractors1_l.png,l,1,,,,0,4,4,11,,,,,,,,,,,,,,,,,,,,,,,,,,,,,,,,,,,,,,,,,,,,,,,192.31312560196966,None,2,0.6818119499948807,192.31312560196966,None,193.04715665301774,None,1,1,0.8061474089627154,193.04715665301774,None,193.84497103397734,None,,,,,,,,,,,,,,,,,,,,,,,,,,35,001,2023_Jan_30_1218,searchDisc5,2021.2.3,59.96200723146965,
Practice arrays/exp1a_trial_27_colour3_distractors9_l.png,l,1,,,,0,5,5,12,,,,,,,,,,,,,,,,,,,,,,,,,,,,,,,,,,,,,,,,,,,,,,,195.84656121698208,None,2,1.3969920649542473,195.84656121698208,None,197.29668047401356,None,1,1,0.6517550209537148,197.29668047401356,None,197.94498266401934,None,,,,,,,,,,,,,,,,,,,,,,,,,,35,001,2023_Jan_30_1218,searchDisc5,2021.2.3,59.96200723146965,
Practice arrays/exp1a_trial_1_colour1_distractors4_r.png,r,3,,,,0,6,6,1,,,,,,,,,,,,,,,,,,,,,,,,,,,,,,,,,,,,,,,,,,,,,,,199.9471932509914,None,2,0.3495834569912404,199.9471932509914,None,200.34714872797485,None,3,1,0.6698463759967126,200.34714872797485,None,201.0116504119942,None,,,,,,,,,,,,,,,,,,,,,,,,,,35,001,2023_Jan_30_1218,searchDisc5,2021.2.3,59.96200723146965,
Practice arrays/exp1a_trial_23_colour2_distractors19_l.png,l,1,,,,0,7,7,10,,,,,,,,,,,,,,,,,,,,,,,,,,,,,,,,,,,,,,,,,,,,,,,203.0135809329804,None,2,0.7334080800064839,203.0135809329804,None,203.7972794219968,None,1,1,0.6668844200321473,203.7972794219968,None,204.46155789197655,None,,,,,,,,,,,,,,,,,,,,,,,,,,35,001,2023_Jan_30_1218,searchDisc5,2021.2.3,59.96200723146965,
Practice arrays/exp1a_trial_8_colour2_distractors19_r.png,r,3,,,,0,8,8,3,,,,,,,,,,,,,,,,,,,,,,,,,,,,,,,,,,,,,,,,,,,,,,,206.4635686139809,None,2,0.4637682089814916,206.4635686139809,None,206.98035006399732,None,3,1,0.6861434750026092,206.98035006399732,None,207.66180530696874,None,,,,,,,,,,,,,,,,,,,,,,,,,,35,001,2023_Jan_30_1218,searchDisc5,2021.2.3,59.96200723146965,
Practice arrays/exp1a_trial_17_colour1_distractors9_l.png,l,1,,,,0,9,9,7,,,,,,,,,,,,,,,,,,,,,,,,,,,,,,,,,,,,,,,,,,,,,,,209.6639916379936,None,2,0.4639319680281915,209.6639916379936,None,210.18018579797354,None,1,1,0.6361550809815526,210.18018579797354,None,210.8118855059729,None,,,,,,,,,,,,,,,,,,,,,,,,,,35,001,2023_Jan_30_1218,searchDisc5,2021.2.3,59.96200723146965,
Practice arrays/exp1a_trial_30_colour0_distractors0_r.png,r,3,,,,0,10,10,14,,,,,,,,,,,,,,,,,,,,,,,,,,,,,,,,,,,,,,,,,,,,,,,212.8135205960134,None,2,0.7492049610009417,212.8135205960134,None,213.61422824498732,None,3,1,0.5544266960350797,213.61422824498732,None,214.1619612170034,None,,,,,,,,,,,,,,,,,,,,,,,,,,35,001,2023_Jan_30_1218,searchDisc5,2021.2.3,59.96200723146965,
Practice arrays/exp1a_trial_21_colour2_distractors4_l.png,l,1,,,,0,11,11,9,,,,,,,,,,,,,,,,,,,,,,,,,,,,,,,,,,,,,,,,,,,,,,,216.16424983897014,None,2,0.5472336389939301,216.16424983897014,None,216.7619977639988,None,1,1,0.772144595044665,216.7619977639988,None,217.52902844996424,None,,,,,,,,,,,,,,,,,,,,,,,,,,35,001,2023_Jan_30_1218,searchDisc5,2021.2.3,59.96200723146965,
Practice arrays/exp1a_trial_0_colour1_distractors1_r.png,r,3,,,,0,12,12,0,,,,,,,,,,,,,,,,,,,,,,,,,,,,,,,,,,,,,,,,,,,,,,,219.53115776600316,None,2,0.4639185010455549,219.53115776600316,None,220.04760821798118,None,3,1,0.6706816629739478,220.04760821798118,None,220.71219748299336,None,,,,,,,,,,,,,,,,,,,,,,,,,,35,001,2023_Jan_30_1218,searchDisc5,2021.2.3,59.96200723146965,
Practice arrays/exp1a_trial_12_colour3_distractors9_r.png,r,3,,,,0,13,13,5,,,,,,,,,,,,,,,,,,,,,,,,,,,,,,,,,,,,,,,,,,,,,,,222.7143327399972,None,2,0.5968160100164823,222.7143327399972,None,223.3623285079957,None,3,1,0.587750356993638,223.3623285079957,None,223.94556965801166,None,,,,,,,,,,,,,,,,,,,,,,,,,,35,001,2023_Jan_30_1218,searchDisc5,2021.2.3,59.96200723146965,
Practice arrays/exp1a_trial_31_colour0_distractors0_l.png,l,1,,,,0,14,14,15,,,,,,,,,,,,,,,,,,,,,,,,,,,,,,,,,,,,,,,,,,,,,,,225.94711988198105,None,2,0.996955530019477,225.94711988198105,None,226.9950765069807,None,1,1,0.4899831819930114,226.9950765069807,None,227.47903085901635,None,,,,,,,,,,,,,,,,,,,,,,,,,,35,001,2023_Jan_30_1218,searchDisc5,2021.2.3,59.96200723146965,
Practice arrays/exp1a_trial_18_colour1_distractors19_l.png,l,1,,,,0,15,15,8,,,,,,,,,,,,,,,,,,,,,,,,,,,,,,,,,,,,,,,,,,,,,,,229.4811736489646,None,2,0.41412926104385406,229.4811736489646,None,229.9460305639659,None,1,1,0.8040508729754947,229.9460305639659,None,230.74583803897258,None,,,,,,,,,,,,,,,,,,,,,,,,,,35,001,2023_Jan_30_1218,searchDisc5,2021.2.3,59.96200723146965,
,,,,,,,,,,,,,,,,,,,,,,,,,,,,,,,,,,,,,,,,,,,,,,,,,,,,,,,,,,,,,,,,,,,,,,,232.83137487596832,None,2,4.966692437010352,233.81411241501337,None,,,,,,,,,,,,,,,,,,,,35,001,2023_Jan_30_1218,searchDisc5,2021.2.3,59.96200723146965,
images/exp2b_trial_304_colour1_distractors4_l.png,l,1,1,4,0,,,,,0,0,0,0,,,,,,,,,,,,,,,,,,,,,,,,,,,,,,,,,,,,,,,,,,,244.81269331101794,None,2,3.3122153700096533,244.81269331101794,None,,,,,,,,,,,,,,,,239.3813154179952,None,2,3.448124763031956,241.36458244000096,None,248.1861659400165,None,1,1,0.9351185809937306,248.1861659400165,None,249.13010803798682,None,None,None,None,,35,001,2023_Jan_30_1218,searchDisc5,2021.2.3,59.96200723146965,
images/exp2c_trial_86_colour2_distractors9_l.png,l,1,2,9,0,,,,,0,1,1,1,,,,,,,,,,,,,,,,,,,,,,,,,,,,,,,,,,,,,,,,,,,249.14831035898533,None,2,2.568958456045948,249.14831035898533,None,,,,,,,,,,,,,,,,None,None,None,,None,None,251.7647612330038,None,1,1,0.7358764149830677,251.7647612330038,None,252.4964534854633,None,None,None,None,,35,001,2023_Jan_30_1218,searchDisc5,2021.2.3,59.96200723146965,
images/exp2a_trial_149_colour2_distractors4_l.png,l,1,2,4,0,,,,,0,2,2,2,,,,,,,,,,,,,,,,,,,,,,,,,,,,,,,,,,,,,,,,,,,252.51244956400478,None,2,0.9546357170329429,252.51244956400478,None,,,,,,,,,,,,,,,,None,None,None,,None,None,253.51535394001985,None,1,1,0.7521134269773029,253.51535394001985,None,254.26330086351373,None,None,None,None,,35,001,2023_Jan_30_1218,searchDisc5,2021.2.3,59.96200723146965,
images/exp2a_trial_43_colour3_distractors4_r.png,r,3,3,4,0,,,,,0,3,3,3,,,,,,,,,,,,,,,,,,,,,,,,,,,,,,,,,,,,,,,,,,,254.27951532497536,None,2,0.8199454009882174,254.27951532497536,None,,,,,,,,,,,,,,,,None,None,None,,None,None,255.14627962000668,None,3,1,0.6891128679853864,255.14627962000668,None,255.82996752446053,None,None,None,None,,35,001,2023_Jan_30_1218,searchDisc5,2021.2.3,59.96200723146965,
images/exp2b_trial_245_colour2_distractors4_l.png,l,1,2,4,0,,,,,0,4,4,4,,,,,,,,,,,,,,,,,,,,,,,,,,,,,,,,,,,,,,,,,,,255.84800011501648,None,2,0.7903877590433694,255.84800011501648,None,,,,,,,,,,,,,,,,None,None,None,,None,None,256.67986047198065,None,1,1,0.6338919079862535,256.67986047198065,None,257.3133124284912,None,None,None,None,,35,001,2023_Jan_30_1218,searchDisc5,2021.2.3,59.96200723146965,
images/exp2b_trial_281_colour3_distractors1_l.png,l,1,3,1,0,,,,,0,5,5,5,,,,,,,,,,,,,,,,,,,,,,,,,,,,,,,,,,,,,,,,,,,257.3296612399863,None,2,0.7368487189523876,257.3296612399863,None,,,,,,,,,,,,,,,,None,None,None,,None,None,258.11354927701177,None,1,1,0.6558742900379002,258.11354927701177,None,258.7633141955128,None,None,None,None,,35,001,2023_Jan_30_1218,searchDisc5,2021.2.3,59.96200723146965,
images/exp2c_trial_11_colour3_distractors4_r.png,r,3,3,4,0,,,,,0,6,6,6,,,,,,,,,,,,,,,,,,,,,,,,,,,,,,,,,,,,,,,,,,,258.77968098100973,None,2,0.771234129962977,258.77968098100973,None,,,,,,,,,,,,,,,,None,None,None,,None,None,259.59876680601155,None,3,1,1.2025281909736805,259.59876680601155,None,260.796904630505,None,None,None,None,,35,001,2023_Jan_30_1218,searchDisc5,2021.2.3,59.96200723146965,
images/exp2b_trial_306_colour1_distractors19_l.png,l,1,1,19,0,,,,,0,7,7,7,,,,,,,,,,,,,,,,,,,,,,,,,,,,,,,,,,,,,,,,,,,260.8130809930153,None,2,0.6377198889967985,260.8130809930153,None,,,,,,,,,,,,,,,,None,None,None,,None,None,261.4969249810092,None,1,1,0.670296108990442,261.4969249810092,None,262.1636626934749,None,None,None,None,,35,001,2023_Jan_30_1218,searchDisc5,2021.2.3,59.96200723146965,
images/exp2c_trial_20_colour2_distractors1_l.png,l,1,2,1,0,,,,,0,8,8,8,,,,,,,,,,,,,,,,,,,,,,,,,,,,,,,,,,,,,,,,,,,262.179535764968,None,2,0.5208473849925213,262.179535764968,None,,,,,,,,,,,,,,,,None,None,None,,None,None,262.7488313000067,None,1,1,0.5896878120256588,262.7488313000067,None,263.33014774847544,None,None,None,None,,35,001,2023_Jan_30_1218,searchDisc5,2021.2.3,59.96200723146965,
images/exp2c_trial_57_colour3_distractors1_l.png,l,1,3,1,0,,,,,0,9,9,9,,,,,,,,,,,,,,,,,,,,,,,,,,,,,,,,,,,,,,,,,,,263.3465486469795,None,2,0.5899710539961234,263.3465486469795,None,,,,,,,,,,,,,,,,None,None,None,,None,None,263.9822584069916,None,1,1,0.8367768540047109,263.9822584069916,None,264.8135043184855,None,None,None,None,,35,001,2023_Jan_30_1218,searchDisc5,2021.2.3,59.96200723146965,
images/exp1a_trial_128_colour1_distractors1_r.png,r,3,1,1,0,,,,,0,10,10,10,,,,,,,,,,,,,,,,,,,,,,,,,,,,,,,,,,,,,,,,,,,264.83006883697817,None,2,0.5207665789639577,264.83006883697817,None,,,,,,,,,,,,,,,,None,None,None,,None,None,265.3984540840029,None,3,1,0.5727287699701265,265.3984540840029,None,265.96374228149654,None,None,None,None,,35,001,2023_Jan_30_1218,searchDisc5,2021.2.3,59.96200723146965,
images/exp2a_trial_124_colour3_distractors19_l.png,l,1,3,19,0,,,,,0,11,11,11,,,,,,,,,,,,,,,,,,,,,,,,,,,,,,,,,,,,,,,,,,,265.9798987369868,None,2,0.670958291972056,265.9798987369868,None,,,,,,,,,,,,,,,,None,None,None,,None,None,266.6967686279677,None,1,1,0.5868572979816236,266.6967686279677,None,267.28022915248295,None,None,None,None,,35,001,2023_Jan_30_1218,searchDisc5,2021.2.3,59.96200723146965,
images/exp1a_trial_274_colour1_distractors19_l.png,l,1,1,19,0,,,,,0,12,12,12,,,,,,,,,,,,,,,,,,,,,,,,,,,,,,,,,,,,,,,,,,,267.29872245696606,None,2,0.4545625149621628,267.29872245696606,None,,,,,,,,,,,,,,,,None,None,None,,None,None,267.7968684239895,None,1,1,1.0684017749736086,267.7968684239895,None,268.86380024849205,None,None,None,None,,35,001,2023_Jan_30_1218,searchDisc5,2021.2.3,59.96200723146965,
images/exp1a_trial_216_colour2_distractors31_l.png,l,1,2,31,0,,,,,0,13,13,13,,,,,,,,,,,,,,,,,,,,,,,,,,,,,,,,,,,,,,,,,,,268.8799552959972,None,2,0.5050568520091474,268.8799552959972,None,,,,,,,,,,,,,,,,None,None,None,,None,None,269.43634500599,None,1,1,0.6947006310219876,269.43634500599,None,270.1302699564956,None,None,None,None,,35,001,2023_Jan_30_1218,searchDisc5,2021.2.3,59.96200723146965,
images/exp1a_trial_6_colour2_distractors4_r.png,r,3,2,4,0,,,,,0,14,14,14,,,,,,,,,,,,,,,,,,,,,,,,,,,,,,,,,,,,,,,,,,,270.14641888299957,None,2,0.689131892984733,270.14641888299957,None,,,,,,,,,,,,,,,,None,None,None,,None,None,270.88236090901773,None,3,1,0.5716444860445336,270.88236090901773,None,271.44704379148317,None,None,None,None,,35,001,2023_Jan_30_1218,searchDisc5,2021.2.3,59.96200723146965,
images/exp2c_trial_37_colour2_distractors1_r.png,r,3,2,1,0,,,,,0,15,15,15,,,,,,,,,,,,,,,,,,,,,,,,,,,,,,,,,,,,,,,,,,,271.4632887580083,None,2,0.5190995529992506,271.4632887580083,None,,,,,,,,,,,,,,,,None,None,None,,None,None,272.0320475419867,None,3,1,0.5389356379746459,272.0320475419867,None,272.5638340065023,None,None,None,None,,35,001,2023_Jan_30_1218,searchDisc5,2021.2.3,59.96200723146965,
images/exp1a_trial_130_colour1_distractors9_r.png,r,3,1,9,0,,,,,0,16,16,16,,,,,,,,,,,,,,,,,,,,,,,,,,,,,,,,,,,,,,,,,,,272.58192677696934,None,2,0.45437509595649317,272.58192677696934,None,,,,,,,,,,,,,,,,None,None,None,,None,None,273.0800265939906,None,3,1,0.6869730239850469,273.0800265939906,None,273.7638251584838,None,None,None,None,,35,001,2023_Jan_30_1218,searchDisc5,2021.2.3,59.96200723146965,
images/exp2a_trial_128_colour1_distractors1_r.png,r,3,1,1,0,,,,,0,17,17,17,,,,,,,,,,,,,,,,,,,,,,,,,,,,,,,,,,,,,,,,,,,273.7824318379862,None,2,0.6040813379804604,273.7824318379862,None,,,,,,,,,,,,,,,,None,None,None,,None,None,274.4304837289965,None,3,1,0.6563090619747527,274.4304837289965,None,275.0805552664795,None,None,None,None,,35,001,2023_Jan_30_1218,searchDisc5,2021.2.3,59.96200723146965,
images/exp1a_trial_214_colour2_distractors9_l.png,l,1,2,9,0,,,,,0,18,18,18,,,,,,,,,,,,,,,,,,,,,,,,,,,,,,,,,,,,,,,,,,,275.0964942849823,None,2,0.4712407400365919,275.0964942849823,None,,,,,,,,,,,,,,,,None,None,None,,None,None,275.6133550470113,None,1,1,0.6724688250105828,275.6133550470113,None,276.28047445947306,None,None,None,None,,35,001,2023_Jan_30_1218,searchDisc5,2021.2.3,59.96200723146965,
images/exp2c_trial_43_colour3_distractors4_r.png,r,3,3,4,0,,,,,0,19,19,19,,,,,,,,,,,,,,,,,,,,,,,,,,,,,,,,,,,,,,,,,,,276.29667172802147,None,2,0.35263132996624336,276.29667172802147,None,,,,,,,,,,,,,,,,None,None,None,,None,None,276.6990100769908,None,3,1,0.7386716559994966,276.6990100769908,None,277.4305182505166,None,None,None,None,,35,001,2023_Jan_30_1218,searchDisc5,2021.2.3,59.96200723146965,
images/exp2a_trial_212_colour2_distractors1_l.png,l,1,2,1,0,,,,,0,20,20,20,,,,,,,,,,,,,,,,,,,,,,,,,,,,,,,,,,,,,,,,,,,277.4468029770069,None,2,0.3377108399872668,277.4468029770069,None,,,,,,,,,,,,,,,,None,None,None,,None,None,277.83061635500053,None,1,1,0.6892111789784394,277.83061635500053,None,278.51382003749023,None,None,None,None,,35,001,2023_Jan_30_1218,searchDisc5,2021.2.3,59.96200723146965,
images/exp1a_trial_28_colour3_distractors19_l.png,l,1,3,19,0,,,,,0,21,21,21,,,,,,,,,,,,,,,,,,,,,,,,,,,,,,,,,,,,,,,,,,,278.53031425201334,None,2,0.3041724979993887,278.53031425201334,None,,,,,,,,,,,,,,,,None,None,None,,None,None,278.88012646196876,None,1,1,0.7022467369679362,278.88012646196876,None,279.58047815850006,None,None,None,None,,35,001,2023_Jan_30_1218,searchDisc5,2021.2.3,59.96200723146965,
images/exp2a_trial_50_colour1_distractors19_l.png,l,1,1,19,0,,,,,0,22,22,22,,,,,,,,,,,,,,,,,,,,,,,,,,,,,,,,,,,,,,,,,,,279.5964424900012,None,2,0.4062601210316643,279.5964424900012,None,,,,,,,,,,,,,,,,None,None,None,,None,None,280.04918611299945,None,1,1,0.7523728119558655,280.04918611299945,None,280.7973946824903,None,None,None,None,,35,001,2023_Jan_30_1218,searchDisc5,2021.2.3,59.96200723146965,
images/exp2c_trial_164_colour1_distractors31_r.png,r,3,1,31,0,,,,,0,23,23,23,,,,,,,,,,,,,,,,,,,,,,,,,,,,,,,,,,,,,,,,,,,280.81332455400843,None,2,0.2875929119763896,280.81332455400843,None,,,,,,,,,,,,,,,,None,None,None,,None,None,281.14690542797325,None,3,1,0.6527012640144676,281.14690542797325,None,281.79742849951145,None,None,None,None,,35,001,2023_Jan_30_1218,searchDisc5,2021.2.3,59.96200723146965,
images/exp2a_trial_306_colour1_distractors19_l.png,l,1,1,19,0,,,,,0,24,24,24,,,,,,,,,,,,,,,,,,,,,,,,,,,,,,,,,,,,,,,,,,,281.8136976509704,None,2,0.42112591402838007,281.8136976509704,None,,,,,,,,,,,,,,,,None,None,None,,None,None,282.28268833697075,None,1,1,0.571631855040323,282.28268833697075,None,282.84743341350696,None,None,None,None,,35,001,2023_Jan_30_1218,searchDisc5,2021.2.3,59.96200723146965,
images/exp2c_trial_277_colour2_distractors4_l.png,l,1,2,4,0,,,,,0,25,25,25,,,,,,,,,,,,,,,,,,,,,,,,,,,,,,,,,,,,,,,,,,,282.8634268739843,None,2,0.3201307039707899,282.8634268739843,None,,,,,,,,,,,,,,,,None,None,None,,None,None,283.2300227119704,None,1,1,0.5729018460260704,283.2300227119704,None,283.79729245650816,None,None,None,None,,35,001,2023_Jan_30_1218,searchDisc5,2021.2.3,59.96200723146965,
images/exp2c_trial_255_colour0_distractors0_l.png,l,1,0,0,0,,,,,0,26,26,26,,,,,,,,,,,,,,,,,,,,,,,,,,,,,,,,,,,,,,,,,,,283.81546486896696,None,2,0.3196833679685369,283.81546486896696,None,,,,,,,,,,,,,,,,None,None,None,,None,None,284.1803740239702,None,1,1,0.6068836930207908,284.1803740239702,None,284.7802816605079,None,None,None,None,,35,001,2023_Jan_30_1218,searchDisc5,2021.2.3,59.96200723146965,
images/exp2c_trial_14_colour3_distractors31_r.png,r,3,3,31,0,,,,,0,27,27,27,,,,,,,,,,,,,,,,,,,,,,,,,,,,,,,,,,,,,,,,,,,284.7964573560166,None,2,0.28846482699736953,284.7964573560166,None,,,,,,,,,,,,,,,,None,None,None,,None,None,285.1306816089782,None,3,1,0.8859496500226669,285.1306816089782,None,286.01403205546086,None,None,None,None,,35,001,2023_Jan_30_1218,searchDisc5,2021.2.3,59.96200723146965,
images/exp2c_trial_42_colour3_distractors1_r.png,r,3,3,1,0,,,,,0,28,28,28,,,,,,,,,,,,,,,,,,,,,,,,,,,,,,,,,,,,,,,,,,,286.0326176320086,None,2,0.2713259980082512,286.0326176320086,None,,,,,,,,,,,,,,,,None,None,None,,None,None,286.3475793590187,None,3,1,0.5725880989921279,286.3475793590187,None,286.9140642364626,None,None,None,None,,35,001,2023_Jan_30_1218,searchDisc5,2021.2.3,59.96200723146965,
images/exp1a_trial_259_colour1_distractors19_r.png,r,3,1,19,0,,,,,0,29,29,29,,,,,,,,,,,,,,,,,,,,,,,,,,,,,,,,,,,,,,,,,,,286.92997168697184,None,2,0.27343816397478804,286.92997168697184,None,,,,,,,,,,,,,,,,None,None,None,,None,None,287.2474459100049,None,3,1,0.9986331930267625,287.2474459100049,None,288.2466298124753,None,None,None,None,,35,001,2023_Jan_30_1218,searchDisc5,2021.2.3,59.96200723146965,
images/exp2c_trial_107_colour3_distractors4_r.png,r,3,3,4,0,,,,,0,30,30,30,,,,,,,,,,,,,,,,,,,,,,,,,,,,,,,,,,,,,,,,,,,288.2637575130211,None,2,0.2239829630125314,288.2637575130211,None,,,,,,,,,,,,,,,,None,None,None,,None,None,288.5329839750193,None,3,1,0.6863865009509027,288.5329839750193,None,289.21420561249835,None,None,None,None,,35,001,2023_Jan_30_1218,searchDisc5,2021.2.3,59.96200723146965,
images/exp2c_trial_175_colour1_distractors1_l.png,l,1,1,1,0,,,,,0,31,31,31,,,,,,,,,,,,,,,,,,,,,,,,,,,,,,,,,,,,,,,,,,,289.2321743380162,None,2,0.25460943701909855,289.2321743380162,None,,,,,,,,,,,,,,,,None,None,None,,None,None,289.5306221289793,None,1,1,0.5890999459661543,289.5306221289793,None,290.1138240784756,None,None,None,None,,35,001,2023_Jan_30_1218,searchDisc5,2021.2.3,59.96200723146965,
images/exp2c_trial_151_colour2_distractors19_l.png,l,1,2,19,0,,,,,0,32,32,32,,,,,,,,,,,,,,,,,,,,,,,,,,,,,,,,,,,,,,,,,,,290.1299602430081,None,2,0.2737045759567991,290.1299602430081,None,,,,,,,,,,,,,,,,None,None,None,,None,None,290.4474843199714,None,1,1,0.9017764500458725,290.4474843199714,None,291.34778059449746,None,None,None,None,,35,001,2023_Jan_30_1218,searchDisc5,2021.2.3,59.96200723146965,
images/exp2a_trial_244_colour2_distractors1_l.png,l,1,2,1,0,,,,,0,33,33,33,,,,,,,,,,,,,,,,,,,,,,,,,,,,,,,,,,,,,,,,,,,291.3639998320141,None,2,0.20634605799568817,291.3639998320141,None,,,,,,,,,,,,,,,,None,None,None,,None,None,291.6157202589675,None,1,1,0.7537708659656346,291.6157202589675,None,292.36434345047456,None,None,None,None,,35,001,2023_Jan_30_1218,searchDisc5,2021.2.3,59.96200723146965,
images/exp2a_trial_291_colour1_distractors19_r.png,r,3,1,19,0,,,,,0,34,34,34,,,,,,,,,,,,,,,,,,,,,,,,,,,,,,,,,,,,,,,,,,,292.3807601080043,None,2,0.18968305399175733,292.3807601080043,None,,,,,,,,,,,,,,,,None,None,None,,None,None,292.61630988598336,None,3,1,0.5843380239675753,292.61630988598336,None,293.1972435104661,None,None,None,None,,35,001,2023_Jan_30_1218,searchDisc5,2021.2.3,59.96200723146965,
images/exp1a_trial_190_colour0_distractors0_r.png,r,3,0,0,0,,,,,0,35,35,35,,,,,,,,,,,,,,,,,,,,,,,,,,,,,,,,,,,,,,,,,,,293.2140571689815,None,2,0.5047628870233893,293.2140571689815,None,,,,,,,,,,,,,,,,None,None,None,,None,None,293.766538262018,None,3,1,0.4870866640121676,293.766538262018,None,294.24759949849687,None,None,None,None,,35,001,2023_Jan_30_1218,searchDisc5,2021.2.3,59.96200723146965,
images/exp2b_trial_82_colour1_distractors19_l.png,l,1,1,19,0,,,,,0,36,36,36,,,,,,,,,,,,,,,,,,,,,,,,,,,,,,,,,,,,,,,,,,,294.2641179480124,None,2,0.487864852999337,294.2641179480124,None,,,,,,,,,,,,,,,,None,None,None,,None,None,294.7975317889941,None,1,1,0.5040879669832066,294.7975317889941,None,295.2978529124637,None,None,None,None,,35,001,2023_Jan_30_1218,searchDisc5,2021.2.3,59.96200723146965,
images/exp1a_trial_145_colour1_distractors9_l.png,l,1,1,9,0,,,,,0,37,37,37,,,,,,,,,,,,,,,,,,,,,,,,,,,,,,,,,,,,,,,,,,,295.3138108139974,None,2,0.37106743798358366,295.3138108139974,None,,,,,,,,,,,,,,,,None,None,None,,None,None,295.73316227301257,None,1,1,0.7020222839782946,295.73316227301257,None,296.43124369847357,None,None,None,None,,35,001,2023_Jan_30_1218,searchDisc5,2021.2.3,59.96200723146965,
images/exp2a_trial_33_colour1_distractors4_r.png,r,3,1,4,0,,,,,0,38,38,38,,,,,,,,,,,,,,,,,,,,,,,,,,,,,,,,,,,,,,,,,,,296.4474903749651,None,2,0.15440155699616298,296.4474903749651,None,,,,,,,,,,,,,,,,None,None,None,,None,None,296.64741966698784,None,3,1,0.7226906349533238,296.64741966698784,None,297.36444254651434,None,None,None,None,,35,001,2023_Jan_30_1218,searchDisc5,2021.2.3,59.96200723146965,
images/exp1a_trial_56_colour2_distractors31_l.png,l,1,2,31,0,,,,,0,39,39,39,,,,,,,,,,,,,,,,,,,,,,,,,,,,,,,,,,,,,,,,,,,297.3808372200001,None,2,0.253130613011308,297.3808372200001,None,,,,,,,,,,,,,,,,None,None,None,,None,None,297.6810575950076,None,1,1,0.6840714759891853,297.6810575950076,None,298.3639533894719,None,None,None,None,,35,001,2023_Jan_30_1218,searchDisc5,2021.2.3,59.96200723146965,
images/exp1a_trial_276_colour2_distractors1_l.png,l,1,2,1,0,,,,,0,40,40,40,,,,,,,,,,,,,,,,,,,,,,,,,,,,,,,,,,,,,,,,,,,298.38058513001306,None,2,0.1696006340207532,298.38058513001306,None,,,,,,,,,,,,,,,,None,None,None,,None,None,298.5979664269835,None,1,1,0.8728425949811935,298.5979664269835,None,299.464443959482,None,None,None,None,,35,001,2023_Jan_30_1218,searchDisc5,2021.2.3,59.96200723146965,
images/exp2b_trial_255_colour0_distractors0_l.png,l,1,0,0,0,,,,,0,41,41,41,,,,,,,,,,,,,,,,,,,,,,,,,,,,,,,,,,,,,,,,,,,299.48086084699025,None,2,0.24001699598738924,299.48086084699025,None,,,,,,,,,,,,,,,,None,None,None,,None,None,299.76457841397496,None,1,1,0.5875159470015205,299.76457841397496,None,300.3478526254883,None,None,None,None,,35,001,2023_Jan_30_1218,searchDisc5,2021.2.3,59.96200723146965,
images/exp2b_trial_237_colour3_distractors19_r.png,r,3,3,19,0,,,,,0,42,42,42,,,,,,,,,,,,,,,,,,,,,,,,,,,,,,,,,,,,,,,,,,,300.3642059689737,None,2,0.2041784559842199,300.3642059689737,None,,,,,,,,,,,,,,,,None,None,None,,None,None,300.6161687129643,None,3,1,0.48900616099126637,300.6161687129643,None,301.09806949547493,None,None,None,None,,35,001,2023_Jan_30_1218,searchDisc5,2021.2.3,59.96200723146965,
images/exp1a_trial_23_colour2_distractors19_l.png,l,1,2,19,0,,,,,0,43,43,43,,,,,,,,,,,,,,,,,,,,,,,,,,,,,,,,,,,,,,,,,,,301.11420730897225,None,2,0.2520940420217812,301.11420730897225,None,,,,,,,,,,,,,,,,None,None,None,,None,None,301.4135979890125,None,1,1,0.5986926719779149,301.4135979890125,None,302.0144811055041,None,None,None,None,,35,001,2023_Jan_30_1218,searchDisc5,2021.2.3,59.96200723146965,
images/exp2a_trial_264_colour2_distractors19_r.png,r,3,2,19,0,,,,,0,44,44,44,,,,,,,,,,,,,,,,,,,,,,,,,,,,,,,,,,,,,,,,,,,302.03293159097666,None,2,0.27086536498973146,302.03293159097666,None,,,,,,,,,,,,,,,,None,None,None,,None,None,302.34773404698353,None,3,1,0.6646341920131817,302.34773404698353,None,303.0147153404658,None,None,None,None,,35,001,2023_Jan_30_1218,searchDisc5,2021.2.3,59.96200723146965,
images/exp2b_trial_212_colour2_distractors1_l.png,l,1,2,1,0,,,,,0,45,45,45,,,,,,,,,,,,,,,,,,,,,,,,,,,,,,,,,,,,,,,,,,,303.03097011201316,None,2,0.27076652902178466,303.03097011201316,None,,,,,,,,,,,,,,,,None,None,None,,None,None,303.3479252840043,None,1,1,0.5063010660232976,303.3479252840043,None,303.8478999685147,None,None,None,None,,35,001,2023_Jan_30_1218,searchDisc5,2021.2.3,59.96200723146965,
images/exp1a_trial_149_colour2_distractors4_l.png,l,1,2,4,0,,,,,0,46,46,46,,,,,,,,,,,,,,,,,,,,,,,,,,,,,,,,,,,,,,,,,,,303.86412870301865,None,2,0.17126311996253207,303.86412870301865,None,,,,,,,,,,,,,,,,None,None,None,,None,None,304.0833474319661,None,1,1,0.5386648160056211,304.0833474319661,None,304.6147000054596,None,None,None,None,,35,001,2023_Jan_30_1218,searchDisc5,2021.2.3,59.96200723146965,
images/exp2c_trial_274_colour1_distractors19_l.png,l,1,1,19,0,,,,,0,47,47,47,,,,,,,,,,,,,,,,,,,,,,,,,,,,,,,,,,,,,,,,,,,304.63051821198314,None,2,0.17104793898761272,304.63051821198314,None,,,,,,,,,,,,,,,,None,None,None,,None,None,304.8479794290033,None,1,1,1.0034392999950796,304.8479794290033,None,305.847978850489,None,None,None,None,,35,001,2023_Jan_30_1218,searchDisc5,2021.2.3,59.96200723146965,
images/exp2c_trial_121_colour3_distractors1_l.png,l,1,3,1,0,,,,,0,48,48,48,,,,,,,,,,,,,,,,,,,,,,,,,,,,,,,,,,,,,,,,,,,305.8665412060218,None,2,0.17341990600107238,305.8665412060218,None,,,,,,,,,,,,,,,,None,None,None,,None,None,306.0826930659823,None,1,1,0.6371523219859228,306.0826930659823,None,306.71454767849065,None,None,None,None,,35,001,2023_Jan_30_1218,searchDisc5,2021.2.3,59.96200723146965,
images/exp2c_trial_204_colour3_distractors9_r.png,r,3,3,9,0,,,,,0,49,49,49,,,,,,,,,,,,,,,,,,,,,,,,,,,,,,,,,,,,,,,,,,,306.7310825539753,None,2,0.17304821097059175,306.7310825539753,None,,,,,,,,,,,,,,,,None,None,None,,None,None,306.94966096797725,None,3,1,0.7857152540236712,306.94966096797725,None,307.7314441065071,None,None,None,None,,35,001,2023_Jan_30_1218,searchDisc5,2021.2.3,59.96200723146965,
images/exp2a_trial_153_colour3_distractors1_l.png,l,1,3,1,0,,,,,0,50,50,50,,,,,,,,,,,,,,,,,,,,,,,,,,,,,,,,,,,,,,,,,,,307.74746860197047,None,2,0.22060951101593673,307.74746860197047,None,,,,,,,,,,,,,,,,None,None,None,,None,None,308.0166634650086,None,1,1,0.5059267650358379,308.0166634650086,None,308.5141028654878,None,None,None,None,,35,001,2023_Jan_30_1218,searchDisc5,2021.2.3,59.96200723146965,
images/exp1a_trial_230_colour2_distractors4_r.png,r,3,2,4,0,,,,,0,51,51,51,,,,,,,,,,,,,,,,,,,,,,,,,,,,,,,,,,,,,,,,,,,308.5310210469761,None,2,0.17159111995715648,308.5310210469761,None,,,,,,,,,,,,,,,,None,None,None,,None,None,308.7496500699781,None,3,1,0.7378118640044704,308.7496500699781,None,309.4815084585105,None,None,None,None,,35,001,2023_Jan_30_1218,searchDisc5,2021.2.3,59.96200723146965,
images/exp1a_trial_75_colour3_distractors4_r.png,r,3,3,4,0,,,,,0,52,52,52,,,,,,,,,,,,,,,,,,,,,,,,,,,,,,,,,,,,,,,,,,,309.49772311298875,None,2,0.2233012350043282,309.49772311298875,None,,,,,,,,,,,,,,,,None,None,None,,None,None,309.76675596798304,None,3,1,0.6191781630041078,309.76675596798304,None,310.3815026354976,None,None,None,None,,35,001,2023_Jan_30_1218,searchDisc5,2021.2.3,59.96200723146965,
images/exp2b_trial_284_colour3_distractors19_l.png,l,1,3,19,0,,,,,0,53,53,53,,,,,,,,,,,,,,,,,,,,,,,,,,,,,,,,,,,,,,,,,,,310.39772154099774,None,2,0.22105967899551615,310.39772154099774,None,,,,,,,,,,,,,,,,None,None,None,,None,None,310.6667884599883,None,1,1,0.6837464889977127,310.6667884599883,None,311.3480772315059,None,None,None,None,,35,001,2023_Jan_30_1218,searchDisc5,2021.2.3,59.96200723146965,
images/exp2b_trial_278_colour2_distractors9_l.png,l,1,2,9,0,,,,,0,54,54,54,,,,,,,,,,,,,,,,,,,,,,,,,,,,,,,,,,,,,,,,,,,311.3666248249938,None,2,0.19004385697189718,311.3666248249938,None,,,,,,,,,,,,,,,,None,None,None,,None,None,311.6002342290012,None,1,1,0.6192558879847638,311.6002342290012,None,312.21454600851285,None,None,None,None,,35,001,2023_Jan_30_1218,searchDisc5,2021.2.3,59.96200723146965,
images/exp2b_trial_40_colour2_distractors19_r.png,r,3,2,19,0,,,,,0,55,55,55,,,,,,,,,,,,,,,,,,,,,,,,,,,,,,,,,,,,,,,,,,,312.23093320196494,None,2,0.18751332600368187,312.23093320196494,None,,,,,,,,,,,,,,,,None,None,None,,None,None,312.4669872120139,None,3,1,0.6530997549998574,312.4669872120139,None,313.1142172864755,None,None,None,None,,35,001,2023_Jan_30_1218,searchDisc5,2021.2.3,59.96200723146965,
images/exp2b_trial_8_colour2_distractors19_r.png,r,3,2,19,0,,,,,0,56,56,56,,,,,,,,,,,,,,,,,,,,,,,,,,,,,,,,,,,,,,,,,,,313.1312752519734,None,2,0.20726405299501494,313.1312752519734,None,,,,,,,,,,,,,,,,None,None,None,,None,None,313.3835383550031,None,3,1,0.6516637590248138,313.3835383550031,None,314.0316176344757,None,None,None,None,,35,001,2023_Jan_30_1218,searchDisc5,2021.2.3,59.96200723146965,
images/exp2b_trial_270_colour3_distractors31_r.png,r,3,3,31,0,,,,,0,57,57,57,,,,,,,,,,,,,,,,,,,,,,,,,,,,,,,,,,,,,,,,,,,314.04764946596697,None,2,0.20632474398007616,314.04764946596697,None,,,,,,,,,,,,,,,,None,None,None,,None,None,314.30014691798715,None,3,1,0.7179916829918511,314.30014691798715,None,315.01491942950526,None,None,None,None,,35,001,2023_Jan_30_1218,searchDisc5,2021.2.3,59.96200723146965,
images/exp2c_trial_289_colour1_distractors4_r.png,r,3,1,4,0,,,,,0,58,58,58,,,,,,,,,,,,,,,,,,,,,,,,,,,,,,,,,,,,,,,,,,,315.0311722669867,None,2,0.1545274700038135,315.0311722669867,None,,,,,,,,,,,,,,,,None,None,None,,None,None,315.23154650296783,None,3,1,0.7245975189725868,315.23154650296783,None,315.94821270649555,None,None,None,None,,35,001,2023_Jan_30_1218,searchDisc5,2021.2.3,59.96200723146965,
images/exp2a_trial_228_colour1_distractors31_r.png,r,3,1,31,0,,,,,0,59,59,59,,,,,,,,,,,,,,,,,,,,,,,,,,,,,,,,,,,,,,,,,,,315.964778079011,None,2,0.2526286559877917,315.964778079011,None,,,,,,,,,,,,,,,,None,None,None,,None,None,316.26498359499965,None,3,1,0.6199786879587919,316.26498359499965,None,316.8815397395054,None,None,None,None,,35,001,2023_Jan_30_1218,searchDisc5,2021.2.3,59.96200723146965,
images/exp1a_trial_219_colour3_distractors9_l.png,l,1,3,9,0,,,,,0,60,60,60,,,,,,,,,,,,,,,,,,,,,,,,,,,,,,,,,,,,,,,,,,,316.8977002829779,None,2,0.22331978502916172,316.8977002829779,None,,,,,,,,,,,,,,,,None,None,None,,None,None,317.166921180964,None,1,1,0.6186933299759403,317.166921180964,None,317.7817128974828,None,None,None,None,,35,001,2023_Jan_30_1218,searchDisc5,2021.2.3,59.96200723146965,
images/exp1a_trial_222_colour0_distractors0_r.png,r,3,0,0,0,,,,,0,61,61,61,,,,,,,,,,,,,,,,,,,,,,,,,,,,,,,,,,,,,,,,,,,317.79785576899303,None,2,0.18744290003087372,317.79785576899303,None,,,,,,,,,,,,,,,,None,None,None,,None,None,318.03375741199125,None,3,1,0.5559961060062051,318.03375741199125,None,318.58181664651494,None,None,None,None,,35,001,2023_Jan_30_1218,searchDisc5,2021.2.3,59.96200723146965,
images/exp2c_trial_266_colour3_distractors1_r.png,r,3,3,1,0,,,,,0,62,62,62,,,,,,,,,,,,,,,,,,,,,,,,,,,,,,,,,,,,,,,,,,,318.5978053510189,None,2,0.2563997620018199,318.5978053510189,None,,,,,,,,,,,,,,,,None,None,None,,None,None,318.89992162497947,None,3,1,0.6040588910109363,318.89992162497947,None,319.4983954214957,None,None,None,None,,35,001,2023_Jan_30_1218,searchDisc5,2021.2.3,59.96200723146965,
images/exp2b_trial_95_colour0_distractors0_l.png,l,1,0,0,0,,,,,0,63,63,63,,,,,,,,,,,,,,,,,,,,,,,,,,,,,,,,,,,,,,,,,,,319.517129076994,None,2,0.17343443998834118,319.517129076994,None,,,,,,,,,,,,,,,,None,None,None,,None,None,319.73343400098383,None,1,1,0.5044685920001939,319.73343400098383,None,320.2318249184871,None,None,None,None,,35,001,2023_Jan_30_1218,searchDisc5,2021.2.3,59.96200723146965,
images/exp2a_trial_67_colour1_distractors19_r.png,r,3,1,19,0,,,,,0,64,64,64,,,,,,,,,,,,,,,,,,,,,,,,,,,,,,,,,,,,,,,,,,,320.24778577697,None,2,0.18980811699293554,320.24778577697,None,,,,,,,,,,,,,,,,None,None,None,,None,None,320.4840175699792,None,3,1,0.5017282189801335,320.4840175699792,None,320.9817274334608,None,None,None,None,,35,001,2023_Jan_30_1218,searchDisc5,2021.2.3,59.96200723146965,
images/exp2c_trial_165_colour2_distractors1_r.png,r,3,2,1,0,,,,,0,65,65,65,,,,,,,,,,,,,,,,,,,,,,,,,,,,,,,,,,,,,,,,,,,320.9981971500092,None,2,0.25439166103024036,320.9981971500092,None,,,,,,,,,,,,,,,,None,None,None,,None,None,321.29840221098857,None,3,1,0.5389181249774992,321.29840221098857,None,321.83148415946636,None,None,None,None,,35,001,2023_Jan_30_1218,searchDisc5,2021.2.3,59.96200723146965,
images/exp2c_trial_235_colour3_distractors4_r.png,r,3,3,4,0,,,,,0,66,66,66,,,,,,,,,,,,,,,,,,,,,,,,,,,,,,,,,,,,,,,,,,,321.8480738850194,None,2,0.20614813099382445,321.8480738850194,None,,,,,,,,,,,,,,,,None,None,None,,None,None,322.1000519390218,None,3,1,0.771110197994858,322.1000519390218,None,322.8652798495139,None,None,None,None,,35,001,2023_Jan_30_1218,searchDisc5,2021.2.3,59.96200723146965,
images/exp2b_trial_47_colour1_distractors1_l.png,l,1,1,1,0,,,,,0,67,67,67,,,,,,,,,,,,,,,,,,,,,,,,,,,,,,,,,,,,,,,,,,,322.8816338159959,None,2,0.18735234398627654,322.8816338159959,None,,,,,,,,,,,,,,,,None,None,None,,None,None,323.1144892430166,None,1,1,0.5913024849724025,323.1144892430166,None,323.698514870496,None,None,None,None,,35,001,2023_Jan_30_1218,searchDisc5,2021.2.3,59.96200723146965,
images/exp1a_trial_88_colour2_distractors31_l.png,l,1,2,31,0,,,,,0,68,68,68,,,,,,,,,,,,,,,,,,,,,,,,,,,,,,,,,,,,,,,,,,,323.7142385399784,None,2,0.2552101509645581,323.7142385399784,None,,,,,,,,,,,,,,,,None,None,None,,None,None,324.0170901269885,None,1,1,0.6147734600235708,324.0170901269885,None,324.63177236950725,None,None,None,None,,35,001,2023_Jan_30_1218,searchDisc5,2021.2.3,59.96200723146965,
images/exp2b_trial_206_colour3_distractors31_r.png,r,3,3,31,0,,,,,0,69,69,69,,,,,,,,,,,,,,,,,,,,,,,,,,,,,,,,,,,,,,,,,,,324.6481446530088,None,2,0.2566378299961798,324.6481446530088,None,,,,,,,,,,,,,,,,None,None,None,,None,None,324.95035667996854,None,3,1,0.6021066320245154,324.95035667996854,None,325.54847683351255,None,None,None,None,,35,001,2023_Jan_30_1218,searchDisc5,2021.2.3,59.96200723146965,
images/exp1a_trial_309_colour2_distractors4_l.png,l,1,2,4,0,,,,,0,70,70,70,,,,,,,,,,,,,,,,,,,,,,,,,,,,,,,,,,,,,,,,,,,325.56694569496904,None,2,0.23781425796914846,325.56694569496904,None,,,,,,,,,,,,,,,,None,None,None,,None,None,325.8489015059895,None,1,1,0.5377755659865215,325.8489015059895,None,326.38165506547085,None,None,None,None,,35,001,2023_Jan_30_1218,searchDisc5,2021.2.3,59.96200723146965,
images/exp2c_trial_139_colour3_distractors4_r.png,r,3,3,4,0,,,,,0,71,71,71,,,,,,,,,,,,,,,,,,,,,,,,,,,,,,,,,,,,,,,,,,,326.39800784300314,None,2,0.2401127690100111,326.39800784300314,None,,,,,,,,,,,,,,,,None,None,None,,None,None,326.6819611869869,None,3,1,0.4528788839816116,326.6819611869869,None,327.13152363449336,None,None,None,None,,35,001,2023_Jan_30_1218,searchDisc5,2021.2.3,59.96200723146965,
images/exp2b_trial_171_colour3_distractors4_r.png,r,3,3,4,0,,,,,0,72,72,72,,,,,,,,,,,,,,,,,,,,,,,,,,,,,,,,,,,,,,,,,,,327.1482335869805,None,2,0.33828138798708096,327.1482335869805,None,,,,,,,,,,,,,,,,None,None,None,,None,None,327.5320155689842,None,3,1,0.73920770798577,327.5320155689842,None,328.265491388517,None,None,None,None,,35,001,2023_Jan_30_1218,searchDisc5,2021.2.3,59.96200723146965,
images/exp2a_trial_29_colour3_distractors31_l.png,l,1,3,31,0,,,,,0,73,73,73,,,,,,,,,,,,,,,,,,,,,,,,,,,,,,,,,,,,,,,,,,,328.28349424601765,None,2,0.18952876201365143,328.28349424601765,None,,,,,,,,,,,,,,,,None,None,None,,None,None,328.51721882697893,None,1,1,0.6183317269897088,328.51721882697893,None,329.13198074850953,None,None,None,None,,35,001,2023_Jan_30_1218,searchDisc5,2021.2.3,59.96200723146965,
images/exp2a_trial_225_colour1_distractors4_r.png,r,3,1,4,0,,,,,0,74,74,74,,,,,,,,,,,,,,,,,,,,,,,,,,,,,,,,,,,,,,,,,,,329.14833564998116,None,2,0.2211566399782896,329.14833564998116,None,,,,,,,,,,,,,,,,None,None,None,,None,None,329.4173811050132,None,3,1,0.5719608080107719,329.4173811050132,None,329.98191912549083,None,None,None,None,,35,001,2023_Jan_30_1218,searchDisc5,2021.2.3,59.96200723146965,
images/exp2a_trial_213_colour2_distractors4_l.png,l,1,2,4,0,,,,,0,75,75,75,,,,,,,,,,,,,,,,,,,,,,,,,,,,,,,,,,,,,,,,,,,329.9979789389763,None,2,0.22334168601082638,329.9979789389763,None,,,,,,,,,,,,,,,,None,None,None,,None,None,330.26702499500243,None,1,1,0.6184417590266094,330.26702499500243,None,330.88151492249455,None,None,None,None,,35,001,2023_Jan_30_1218,searchDisc5,2021.2.3,59.96200723146965,
images/exp2c_trial_92_colour3_distractors19_l.png,l,1,3,19,0,,,,,0,76,76,76,,,,,,,,,,,,,,,,,,,,,,,,,,,,,,,,,,,,,,,,,,,330.89815486001316,None,2,0.2235855939798057,330.89815486001316,None,,,,,,,,,,,,,,,,None,None,None,,None,None,331.1674762389739,None,1,1,1.0344917079783045,331.1674762389739,None,332.19890393347015,None,None,None,None,,35,001,2023_Jan_30_1218,searchDisc5,2021.2.3,59.96200723146965,
images/exp1a_trial_187_colour3_distractors9_l.png,l,1,3,9,0,,,,,0,77,77,77,,,,,,,,,,,,,,,,,,,,,,,,,,,,,,,,,,,,,,,,,,,332.2149414580199,None,2,0.27302337903529406,332.2149414580199,None,,,,,,,,,,,,,,,,None,None,None,,None,None,332.5318486900069,None,1,1,0.6512579170521349,332.5318486900069,None,333.1820169384708,None,None,None,None,,35,001,2023_Jan_30_1218,searchDisc5,2021.2.3,59.96200723146965,
images/exp1a_trial_53_colour2_distractors4_l.png,l,1,2,4,0,,,,,0,78,78,78,,,,,,,,,,,,,,,,,,,,,,,,,,,,,,,,,,,,,,,,,,,333.19815357000334,None,2,0.17114405997563154,333.19815357000334,None,,,,,,,,,,,,,,,,None,None,None,,None,None,333.41757074499037,None,1,1,0.6214157520444132,333.41757074499037,None,334.03208794445965,None,None,None,None,,35,001,2023_Jan_30_1218,searchDisc5,2021.2.3,59.96200723146965,
images/exp1a_trial_300_colour3_distractors9_r.png,r,3,3,9,0,,,,,0,79,79,79,,,,,,,,,,,,,,,,,,,,,,,,,,,,,,,,,,,,,,,,,,,334.04848776297877,None,2,0.1877762249787338,334.04848776297877,None,,,,,,,,,,,,,,,,None,None,None,,None,None,334.2842408749857,None,3,1,0.5528051480068825,334.2842408749857,None,334.83208115050803,None,None,None,None,,35,001,2023_Jan_30_1218,searchDisc5,2021.2.3,59.96200723146965,
images/exp2a_trial_261_colour2_distractors1_r.png,r,3,2,1,0,,,,,0,80,80,80,,,,,,,,,,,,,,,,,,,,,,,,,,,,,,,,,,,,,,,,,,,334.8480109159718,None,2,0.35462366900173947,334.8480109159718,None,,,,,,,,,,,,,,,,None,None,None,,None,None,335.2488324830192,None,3,1,0.6726244079764001,335.2488324830192,None,335.91561299447204,None,None,None,None,,35,001,2023_Jan_30_1218,searchDisc5,2021.2.3,59.96200723146965,
images/exp1a_trial_291_colour1_distractors19_r.png,r,3,1,19,0,,,,,0,81,81,81,,,,,,,,,,,,,,,,,,,,,,,,,,,,,,,,,,,,,,,,,,,335.9318754890119,None,2,0.22254328895360231,335.9318754890119,None,,,,,,,,,,,,,,,,None,None,None,,None,None,336.2007290790207,None,3,1,0.7677565520280041,336.2007290790207,None,336.9656830125139,None,None,None,None,,35,001,2023_Jan_30_1218,searchDisc5,2021.2.3,59.96200723146965,
images/exp2b_trial_258_colour1_distractors9_r.png,r,3,1,9,0,,,,,0,82,82,82,,,,,,,,,,,,,,,,,,,,,,,,,,,,,,,,,,,,,,,,,,,336.9838955309824,None,2,0.28814930497901514,336.9838955309824,None,,,,,,,,,,,,,,,,None,None,None,,None,None,337.3153085089871,None,3,1,0.5356019589817151,337.3153085089871,None,337.8488902294892,None,None,None,None,,35,001,2023_Jan_30_1218,searchDisc5,2021.2.3,59.96200723146965,
images/exp2b_trial_18_colour1_distractors19_l.png,l,1,1,19,0,,,,,0,83,83,83,,,,,,,,,,,,,,,,,,,,,,,,,,,,,,,,,,,,,,,,,,,337.86704957002075,None,2,0.23781551199499518,337.86704957002075,None,,,,,,,,,,,,,,,,None,None,None,,None,None,338.1485804839758,None,1,1,0.6376972169964574,338.1485804839758,None,338.7824540904956,None,None,None,None,,35,001,2023_Jan_30_1218,searchDisc5,2021.2.3,59.96200723146965,
images/exp2b_trial_29_colour3_distractors31_l.png,l,1,3,31,0,,,,,0,84,84,84,,,,,,,,,,,,,,,,,,,,,,,,,,,,,,,,,,,,,,,,,,,338.7984259839868,None,2,0.2220448239822872,338.7984259839868,None,,,,,,,,,,,,,,,,None,None,None,,None,None,339.0676530729979,None,1,1,0.6530095289926976,339.0676530729979,None,339.71579580650433,None,None,None,None,,35,001,2023_Jan_30_1218,searchDisc5,2021.2.3,59.96200723146965,
images/exp1a_trial_278_colour2_distractors9_l.png,l,1,2,9,0,,,,,0,85,85,85,,,,,,,,,,,,,,,,,,,,,,,,,,,,,,,,,,,,,,,,,,,339.73203182098223,None,2,0.2221903380122967,339.73203182098223,None,,,,,,,,,,,,,,,,None,None,None,,None,None,340.0005225309869,None,1,1,0.6181780209881254,340.0005225309869,None,340.61564085546416,None,None,None,None,,35,001,2023_Jan_30_1218,searchDisc5,2021.2.3,59.96200723146965,
images/exp2b_trial_90_colour3_distractors4_l.png,l,1,3,4,0,,,,,0,86,86,86,,,,,,,,,,,,,,,,,,,,,,,,,,,,,,,,,,,,,,,,,,,340.6319667019998,None,2,0.2209199540084228,340.6319667019998,None,,,,,,,,,,,,,,,,None,None,None,,None,None,340.90117349498905,None,1,1,0.6382397609995678,340.90117349498905,None,341.5323224064894,None,None,None,None,,35,001,2023_Jan_30_1218,searchDisc5,2021.2.3,59.96200723146965,
images/exp1a_trial_169_colour2_distractors31_r.png,r,3,2,31,0,,,,,0,87,87,87,,,,,,,,,,,,,,,,,,,,,,,,,,,,,,,,,,,,,,,,,,,341.548912164988,None,2,0.2044417230063118,341.548912164988,None,,,,,,,,,,,,,,,,None,None,None,,None,None,341.80087803897914,None,3,1,0.5998017230303958,341.80087803897914,None,342.3985634374665,None,None,None,None,,35,001,2023_Jan_30_1218,searchDisc5,2021.2.3,59.96200723146965,
images/exp1a_trial_51_colour1_distractors31_l.png,l,1,1,31,0,,,,,0,88,88,88,,,,,,,,,,,,,,,,,,,,,,,,,,,,,,,,,,,,,,,,,,,342.41677314200206,None,2,0.23825637699337676,342.41677314200206,None,,,,,,,,,,,,,,,,None,None,None,,None,None,342.69896944600623,None,1,1,0.8835457440000027,342.69896944600623,None,343.58233621647815,None,None,None,None,,35,001,2023_Jan_30_1218,searchDisc5,2021.2.3,59.96200723146965,
images/exp1a_trial_207_colour1_distractors1_l.png,l,1,1,1,0,,,,,0,89,89,89,,,,,,,,,,,,,,,,,,,,,,,,,,,,,,,,,,,,,,,,,,,343.59881247696467,None,2,0.22324895404744893,343.59881247696467,None,,,,,,,,,,,,,,,,None,None,None,,None,None,343.8670636200113,None,1,1,0.6539409830002114,343.8670636200113,None,344.515198804508,None,None,None,None,,35,001,2023_Jan_30_1218,searchDisc5,2021.2.3,59.96200723146965,
images/exp1a_trial_146_colour1_distractors19_l.png,l,1,1,19,0,,,,,0,90,90,90,,,,,,,,,,,,,,,,,,,,,,,,,,,,,,,,,,,,,,,,,,,344.53175743098836,None,2,0.2064040019758977,344.53175743098836,None,,,,,,,,,,,,,,,,None,None,None,,None,None,344.7836408080184,None,1,1,1.4342991760349832,344.7836408080184,None,346.2158775815158,None,None,None,None,,35,001,2023_Jan_30_1218,searchDisc5,2021.2.3,59.96200723146965,
images/exp2b_trial_144_colour1_distractors4_l.png,l,1,1,4,0,,,,,0,91,91,91,,,,,,,,,,,,,,,,,,,,,,,,,,,,,,,,,,,,,,,,,,,346.2344079739996,None,2,0.18827089900150895,346.2344079739996,None,,,,,,,,,,,,,,,,None,None,None,,None,None,346.4658777919831,None,1,1,0.8881046390160918,346.4658777919831,None,347.3491979304934,None,None,None,None,,35,001,2023_Jan_30_1218,searchDisc5,2021.2.3,59.96200723146965,
images/exp1a_trial_210_colour1_distractors19_l.png,l,1,1,19,0,,,,,0,92,92,92,,,,,,,,,,,,,,,,,,,,,,,,,,,,,,,,,,,,,,,,,,,347.3657146450132,None,2,0.18726239103125408,347.3657146450132,None,,,,,,,,,,,,,,,,None,None,None,,None,None,347.6012690960197,None,1,1,0.8183848659973592,347.6012690960197,None,348.4159679394914,None,None,None,None,,35,001,2023_Jan_30_1218,searchDisc5,2021.2.3,59.96200723146965,
images/exp2c_trial_302_colour3_distractors31_r.png,r,3,3,31,0,,,,,0,93,93,93,,,,,,,,,,,,,,,,,,,,,,,,,,,,,,,,,,,,,,,,,,,348.4329052749672,None,2,0.23784200299996883,348.4329052749672,None,,,,,,,,,,,,,,,,None,None,None,,None,None,348.7163974569994,None,3,1,0.8203321069595404,348.7163974569994,None,349.53377014347353,None,None,None,None,,35,001,2023_Jan_30_1218,searchDisc5,2021.2.3,59.96200723146965,
images/exp2c_trial_174_colour3_distractors31_r.png,r,3,3,31,0,,,,,0,94,94,94,,,,,,,,,,,,,,,,,,,,,,,,,,,,,,,,,,,,,,,,,,,349.5490477689891,None,2,0.2867841270053759,349.5490477689891,None,,,,,,,,,,,,,,,,None,None,None,,None,None,349.88311273796717,None,3,1,1.0360942150000483,349.88311273796717,None,350.91596931348323,None,None,None,None,,35,001,2023_Jan_30_1218,searchDisc5,2021.2.3,59.96200723146965,
images/exp2c_trial_52_colour2_distractors1_l.png,l,1,2,1,0,,,,,0,95,95,95,,,,,,,,,,,,,,,,,,,,,,,,,,,,,,,,,,,,,,,,,,,350.9324257369735,None,2,0.23784241697285324,350.9324257369735,None,,,,,,,,,,,,,,,,None,None,None,,None,None,351.2161434669979,None,1,1,0.5560225039953366,351.2161434669979,None,351.76597506047693,None,None,None,None,,35,001,2023_Jan_30_1218,searchDisc5,2021.2.3,59.96200723146965,
images/exp2b_trial_259_colour1_distractors19_r.png,r,3,1,19,0,,,,,0,96,96,96,,,,,,,,,,,,,,,,,,,,,,,,,,,,,,,,,,,,,,,,,,,351.78329016600037,None,2,0.22584543901029974,351.78329016600037,None,,,,,,,,,,,,,,,,None,None,None,,None,None,352.0506873939885,None,3,1,0.8823310669977218,352.0506873939885,None,352.9326882244903,None,None,None,None,,35,001,2023_Jan_30_1218,searchDisc5,2021.2.3,59.96200723146965,
images/exp1a_trial_62_colour0_distractors0_r.png,r,3,0,0,0,,,,,0,97,97,97,,,,,,,,,,,,,,,,,,,,,,,,,,,,,,,,,,,,,,,,,,,352.9489159769728,None,2,0.2045254580443725,352.9489159769728,None,,,,,,,,,,,,,,,,None,None,None,,None,None,353.2017251569778,None,3,1,0.5405548029812053,353.2017251569778,None,353.7338200974744,None,None,None,None,,35,001,2023_Jan_30_1218,searchDisc5,2021.2.3,59.96200723146965,
images/exp1a_trial_167_colour2_distractors9_r.png,r,3,2,9,0,,,,,0,98,98,98,,,,,,,,,,,,,,,,,,,,,,,,,,,,,,,,,,,,,,,,,,,353.7492747780052,None,2,0.2377298570354469,353.7492747780052,None,,,,,,,,,,,,,,,,None,None,None,,None,None,354.0330954109668,None,3,1,0.6036793970270082,354.0330954109668,None,354.63377012051643,None,None,None,None,,35,001,2023_Jan_30_1218,searchDisc5,2021.2.3,59.96200723146965,
images/exp2c_trial_111_colour1_distractors1_l.png,l,1,1,1,0,,,,,0,99,99,99,,,,,,,,,,,,,,,,,,,,,,,,,,,,,,,,,,,,,,,,,,,354.649334413989,None,2,0.25619820097927004,354.649334413989,None,,,,,,,,,,,,,,,,None,None,None,,None,None,354.9495082820067,None,1,1,0.5720938760205172,354.9495082820067,None,355.5158721605083,None,None,None,None,,35,001,2023_Jan_30_1218,searchDisc5,2021.2.3,59.96200723146965,
images/exp2c_trial_85_colour2_distractors4_l.png,l,1,2,4,0,,,,,0,100,100,100,,,,,,,,,,,,,,,,,,,,,,,,,,,,,,,,,,,,,,,,,,,355.53534613898955,None,2,0.1868391300085932,355.53534613898955,None,,,,,,,,,,,,,,,,None,None,None,,None,None,355.76712199597387,None,1,1,0.5686538150184788,355.76712199597387,None,356.33291487146636,None,None,None,None,,35,001,2023_Jan_30_1218,searchDisc5,2021.2.3,59.96200723146965,
images/exp2a_trial_24_colour2_distractors31_l.png,l,1,2,31,0,,,,,0,101,101,101,,,,,,,,,,,,,,,,,,,,,,,,,,,,,,,,,,,,,,,,,,,356.34883288899437,None,2,0.17054991301847622,356.34883288899437,None,,,,,,,,,,,,,,,,None,None,None,,None,None,356.56941594701493,None,1,1,0.6632617120048963,356.56941594701493,None,357.2329259354854,None,None,None,None,,35,001,2023_Jan_30_1218,searchDisc5,2021.2.3,59.96200723146965,
images/exp2a_trial_295_colour2_distractors9_r.png,r,3,2,9,0,,,,,0,102,102,102,,,,,,,,,,,,,,,,,,,,,,,,,,,,,,,,,,,,,,,,,,,357.2498420479824,None,2,0.13881048501934856,357.2498420479824,None,,,,,,,,,,,,,,,,None,None,None,,None,None,357.4348361759912,None,3,1,0.5838216569973156,357.4348361759912,None,358.0162020605174,None,None,None,None,,35,001,2023_Jan_30_1218,searchDisc5,2021.2.3,59.96200723146965,
images/exp2a_trial_78_colour3_distractors31_r.png,r,3,3,31,0,,,,,0,103,103,103,,,,,,,,,,,,,,,,,,,,,,,,,,,,,,,,,,,,,,,,,,,358.0332494130125,None,2,0.22333379101473838,358.0332494130125,None,,,,,,,,,,,,,,,,None,None,None,,None,None,358.2993936879793,None,3,1,0.5837835679994896,358.2993936879793,None,358.8828230904881,None,None,None,None,,35,001,2023_Jan_30_1218,searchDisc5,2021.2.3,59.96200723146965,
images/exp2b_trial_65_colour1_distractors4_r.png,r,3,1,4,0,,,,,0,104,104,104,,,,,,,,,,,,,,,,,,,,,,,,,,,,,,,,,,,,,,,,,,,358.8992214530008,None,2,0.18998642096994445,358.8992214530008,None,,,,,,,,,,,,,,,,None,None,None,,None,None,359.13555631699273,None,3,1,0.6200813759933226,359.13555631699273,None,359.74956053351053,None,None,None,None,,35,001,2023_Jan_30_1218,searchDisc5,2021.2.3,59.96200723146965,
images/exp1a_trial_281_colour3_distractors1_l.png,l,1,3,1,0,,,,,0,105,105,105,,,,,,,,,,,,,,,,,,,,,,,,,,,,,,,,,,,,,,,,,,,359.766007756989,None,2,0.20536938798613846,359.766007756989,None,,,,,,,,,,,,,,,,None,None,None,,None,None,360.01848725700984,None,1,1,0.822017528989818,360.01848725700984,None,360.8329604764702,None,None,None,None,,35,001,2023_Jan_30_1218,searchDisc5,2021.2.3,59.96200723146965,
images/exp2b_trial_19_colour1_distractors31_l.png,l,1,1,31,0,,,,,0,106,106,106,,,,,,,,,,,,,,,,,,,,,,,,,,,,,,,,,,,,,,,,,,,360.8492963829776,None,2,0.1710488620446995,360.8492963829776,None,,,,,,,,,,,,,,,,None,None,None,,None,None,361.0686651819851,None,1,1,0.6201443700119853,361.0686651819851,None,361.68344424549724,None,None,None,None,,35,001,2023_Jan_30_1218,searchDisc5,2021.2.3,59.96200723146965,
images/exp2c_trial_301_colour3_distractors19_r.png,r,3,3,19,0,,,,,0,107,107,107,,,,,,,,,,,,,,,,,,,,,,,,,,,,,,,,,,,,,,,,,,,361.70016443700297,None,2,0.1370489569962956,361.70016443700297,None,,,,,,,,,,,,,,,,None,None,None,,None,None,361.8840468749986,None,3,1,0.6373453140258789,361.8840468749986,None,362.5172688014689,None,None,None,None,,35,001,2023_Jan_30_1218,searchDisc5,2021.2.3,59.96200723146965,
images/exp2c_trial_291_colour1_distractors19_r.png,r,3,1,19,0,,,,,0,108,108,108,,,,,,,,,,,,,,,,,,,,,,,,,,,,,,,,,,,,,,,,,,,362.5327471679775,None,2,0.22313337301602587,362.5327471679775,None,,,,,,,,,,,,,,,,None,None,None,,None,None,362.8024461310124,None,3,1,0.516715754987672,362.8024461310124,None,363.3162762014661,None,None,None,None,,35,001,2023_Jan_30_1218,searchDisc5,2021.2.3,59.96200723146965,
images/exp2c_trial_201_colour2_distractors31_r.png,r,3,2,31,0,,,,,0,109,109,109,,,,,,,,,,,,,,,,,,,,,,,,,,,,,,,,,,,,,,,,,,,363.3327846219763,None,2,0.1889209349756129,363.3327846219763,None,,,,,,,,,,,,,,,,None,None,None,,None,None,363.5684284599847,None,3,1,0.6198684729752131,363.5684284599847,None,364.1828235974652,None,None,None,None,,35,001,2023_Jan_30_1218,searchDisc5,2021.2.3,59.96200723146965,
images/exp2b_trial_233_colour2_distractors31_r.png,r,3,2,31,0,,,,,0,110,110,110,,,,,,,,,,,,,,,,,,,,,,,,,,,,,,,,,,,,,,,,,,,364.1993676269776,None,2,0.20468837599037215,364.1993676269776,None,,,,,,,,,,,,,,,,None,None,None,,None,None,364.45172690198524,None,3,1,0.6869469020166434,364.45172690198524,None,365.1329619514989,None,None,None,None,,35,001,2023_Jan_30_1218,searchDisc5,2021.2.3,59.96200723146965,
images/exp2c_trial_192_colour1_distractors1_r.png,r,3,1,1,0,,,,,0,111,111,111,,,,,,,,,,,,,,,,,,,,,,,,,,,,,,,,,,,,,,,,,,,365.1501238020137,None,2,0.23976075497921556,365.1501238020137,None,,,,,,,,,,,,,,,,None,None,None,,None,None,365.4360145870014,None,3,1,0.7541303700418212,365.4360145870014,None,366.1830426404602,None,None,None,None,,35,001,2023_Jan_30_1218,searchDisc5,2021.2.3,59.96200723146965,
images/exp2c_trial_105_colour2_distractors31_r.png,r,3,2,31,0,,,,,0,112,112,112,,,,,,,,,,,,,,,,,,,,,,,,,,,,,,,,,,,,,,,,,,,366.1995436910074,None,2,0.20654876600019634,366.1995436910074,None,,,,,,,,,,,,,,,,None,None,None,,None,None,366.45274377800524,None,3,1,0.6674259610008448,366.45274377800524,None,367.11629942147994,None,None,None,None,,35,001,2023_Jan_30_1218,searchDisc5,2021.2.3,59.96200723146965,
images/exp2c_trial_70_colour2_distractors4_r.png,r,3,2,4,0,,,,,0,113,113,113,,,,,,,,,,,,,,,,,,,,,,,,,,,,,,,,,,,,,,,,,,,367.13369579199934,None,2,0.22184685297543183,367.13369579199934,None,,,,,,,,,,,,,,,,None,None,None,,None,None,367.4005904410151,None,3,1,0.6383216400281526,367.4005904410151,None,368.03313590249746,None,None,None,None,,35,001,2023_Jan_30_1218,searchDisc5,2021.2.3,59.96200723146965,
images/exp2b_trial_316_colour3_distractors19_l.png,l,1,3,19,0,,,,,0,114,114,114,,,,,,,,,,,,,,,,,,,,,,,,,,,,,,,,,,,,,,,,,,,368.04955888399854,None,2,0.2888025689753704,368.04955888399854,None,,,,,,,,,,,,,,,,None,None,None,,None,None,368.3839697309886,None,1,1,0.6718292579753324,368.3839697309886,None,369.0497242924874,None,None,None,None,,35,001,2023_Jan_30_1218,searchDisc5,2021.2.3,59.96200723146965,
images/exp1a_trial_295_colour2_distractors9_r.png,r,3,2,9,0,,,,,0,115,115,115,,,,,,,,,,,,,,,,,,,,,,,,,,,,,,,,,,,,,,,,,,,369.06640609999886,None,2,0.1865436620428227,369.06640609999886,None,,,,,,,,,,,,,,,,None,None,None,,None,None,369.3021220570081,None,3,1,0.6036328580230474,369.3021220570081,None,369.9008533174754,None,None,None,None,,35,001,2023_Jan_30_1218,searchDisc5,2021.2.3,59.96200723146965,
images/exp2b_trial_177_colour1_distractors9_l.png,l,1,1,9,0,,,,,0,116,116,116,,,,,,,,,,,,,,,,,,,,,,,,,,,,,,,,,,,,,,,,,,,369.91828802396776,None,2,0.23746573098469526,369.91828802396776,None,,,,,,,,,,,,,,,,None,None,None,,None,None,370.2004659039667,None,1,1,0.7230157789890654,370.2004659039667,None,370.91650883348194,None,None,None,None,,35,001,2023_Jan_30_1218,searchDisc5,2021.2.3,59.96200723146965,
images/exp1a_trial_80_colour1_distractors4_l.png,l,1,1,4,0,,,,,0,117,117,117,,,,,,,,,,,,,,,,,,,,,,,,,,,,,,,,,,,,,,,,,,,370.93302378000226,None,2,0.17004678898956627,370.93302378000226,None,,,,,,,,,,,,,,,,None,None,None,,None,None,371.15230847802013,None,3,0,0.6363173860008828,371.15230847802013,None,371.7825084335171,None,None,None,None,,35,001,2023_Jan_30_1218,searchDisc5,2021.2.3,59.96200723146965,
images/exp1a_trial_252_colour3_distractors19_l.png,l,1,3,19,0,,,,,0,118,118,118,,,,,,,,,,,,,,,,,,,,,,,,,,,,,,,,,,,,,,,,,,,371.79963420599233,None,2,1.1059589060023427,371.79963420599233,None,,,,,,,,,,,,,,,,None,None,None,,None,None,372.95214936399134,None,1,1,0.7009556060074829,372.95214936399134,None,373.6498790304875,None,None,None,None,,35,001,2023_Jan_30_1218,searchDisc5,2021.2.3,59.96200723146965,
images/exp2c_trial_67_colour1_distractors19_r.png,r,3,1,19,0,,,,,0,119,119,119,,,,,,,,,,,,,,,,,,,,,,,,,,,,,,,,,,,,,,,,,,,373.6672158159781,None,2,0.2886267509893514,373.6672158159781,None,,,,,,,,,,,,,,,,None,None,None,,None,None,374.00102965097176,None,3,1,0.5527153779985383,374.00102965097176,None,374.5498888334958,None,None,None,None,,35,001,2023_Jan_30_1218,searchDisc5,2021.2.3,59.96200723146965,
images/exp2b_trial_198_colour2_distractors4_r.png,r,3,2,4,0,,,,,0,120,120,120,,,,,,,,,,,,,,,,,,,,,,,,,,,,,,,,,,,,,,,,,,,374.5664088979829,None,2,0.3055331339710392,374.5664088979829,None,,,,,,,,,,,,,,,,None,None,None,,None,None,374.91721841000253,None,3,1,0.7212552789715119,374.91721841000253,None,375.6334792754613,None,None,None,None,,35,001,2023_Jan_30_1218,searchDisc5,2021.2.3,59.96200723146965,
images/exp2a_trial_135_colour2_distractors9_r.png,r,3,2,9,0,,,,,0,121,121,121,,,,,,,,,,,,,,,,,,,,,,,,,,,,,,,,,,,,,,,,,,,375.6519214939908,None,2,0.2901777299703099,375.6519214939908,None,,,,,,,,,,,,,,,,None,None,None,,None,None,375.9838161370135,None,3,1,0.6489889430231415,375.9838161370135,None,376.6332742594648,None,None,None,None,,35,001,2023_Jan_30_1218,searchDisc5,2021.2.3,59.96200723146965,
images/exp2a_trial_183_colour2_distractors19_l.png,l,1,2,19,0,,,,,0,122,122,122,,,,,,,,,,,,,,,,,,,,,,,,,,,,,,,,,,,,,,,,,,,376.65041336399736,None,2,0.2544332260149531,376.65041336399736,None,,,,,,,,,,,,,,,,None,None,None,,None,None,376.95100688101957,None,1,1,0.665780725015793,376.95100688101957,None,377.61679225951667,None,None,None,None,,35,001,2023_Jan_30_1218,searchDisc5,2021.2.3,59.96200723146965,
images/exp2b_trial_38_colour2_distractors4_r.png,r,3,2,4,0,,,,,0,123,123,123,,,,,,,,,,,,,,,,,,,,,,,,,,,,,,,,,,,,,,,,,,,377.63329273898853,None,2,0.35440545197343454,377.63329273898853,None,,,,,,,,,,,,,,,,None,None,None,,None,None,378.03553024696885,None,3,1,0.4907788570271805,378.03553024696885,None,378.5177914014901,None,None,None,None,,35,001,2023_Jan_30_1218,searchDisc5,2021.2.3,59.96200723146965,
images/exp2a_trial_70_colour2_distractors4_r.png,r,3,2,4,0,,,,,0,124,124,124,,,,,,,,,,,,,,,,,,,,,,,,,,,,,,,,,,,,,,,,,,,378.5330214310088,None,2,0.28577824600506574,378.5330214310088,None,,,,,,,,,,,,,,,,None,None,None,,None,None,378.86728240101365,None,3,1,0.6374806570238434,378.86728240101365,None,379.4999357814784,None,None,None,None,,35,001,2023_Jan_30_1218,searchDisc5,2021.2.3,59.96200723146965,
images/exp2b_trial_39_colour2_distractors9_r.png,r,3,2,9,0,,,,,0,125,125,125,,,,,,,,,,,,,,,,,,,,,,,,,,,,,,,,,,,,,,,,,,,379.5165249349666,None,2,0.23974706494482234,379.5165249349666,None,,,,,,,,,,,,,,,,None,None,None,,None,None,379.80111619998934,None,3,1,0.6529195589828305,379.80111619998934,None,380.4502153874608,None,None,None,None,,35,001,2023_Jan_30_1218,searchDisc5,2021.2.3,59.96200723146965,
images/exp2c_trial_244_colour2_distractors1_l.png,l,1,2,1,0,,,,,0,126,126,126,,,,,,,,,,,,,,,,,,,,,,,,,,,,,,,,,,,,,,,,,,,380.4676606070134,None,2,0.23887258302420378,380.4676606070134,None,,,,,,,,,,,,,,,,None,None,None,,None,None,380.75045562698506,None,1,1,0.7214079110417515,380.75045562698506,None,381.46686308546924,None,None,None,None,,35,001,2023_Jan_30_1218,searchDisc5,2021.2.3,59.96200723146965,
images/exp1a_trial_227_colour1_distractors19_r.png,r,3,1,19,0,,,,,0,127,127,127,,,,,,,,,,,,,,,,,,,,,,,,,,,,,,,,,,,,,,,,,,,381.482442752982,None,2,0.2399157480103895,381.482442752982,None,,,,,,,,,,,,,,,,None,None,None,,None,None,381.7688224230078,None,3,1,0.6327723329886794,381.7688224230078,None,382.40017818247435,None,None,None,None,,35,001,2023_Jan_30_1218,searchDisc5,2021.2.3,59.96200723146965,
images/exp1a_trial_49_colour1_distractors9_l.png,l,1,1,9,0,,,,,0,128,128,128,,,,,,,,,,,,,,,,,,,,,,,,,,,,,,,,,,,,,,,,,,,382.41741694597295,None,2,0.22541865397943184,382.41741694597295,None,,,,,,,,,,,,,,,,None,None,None,,None,None,382.68450540298363,None,1,1,1.0675676980172284,382.68450540298363,None,383.7501270594774,None,None,None,None,,35,001,2023_Jan_30_1218,searchDisc5,2021.2.3,59.96200723146965,
images/exp1a_trial_264_colour2_distractors19_r.png,r,3,2,19,0,,,,,0,129,129,129,,,,,,,,,,,,,,,,,,,,,,,,,,,,,,,,,,,,,,,,,,,383.7678283379646,None,2,0.10507952602347359,383.7678283379646,None,,,,,,,,,,,,,,,,None,None,None,,None,None,383.91810370696476,None,3,1,0.7521240359637886,383.91810370696476,None,384.66791828850984,None,None,None,None,,35,001,2023_Jan_30_1218,searchDisc5,2021.2.3,59.96200723146965,
images/exp2b_trial_46_colour3_distractors31_r.png,r,3,3,31,0,,,,,0,130,130,130,,,,,,,,,,,,,,,,,,,,,,,,,,,,,,,,,,,,,,,,,,,384.6832011360093,None,2,0.43883936997735873,384.6832011360093,None,,,,,,,,,,,,,,,,None,None,None,,None,None,385.1695722229779,None,3,1,1.234925488999579,385.1695722229779,None,386.4003178494866,None,None,None,None,,35,001,2023_Jan_30_1218,searchDisc5,2021.2.3,59.96200723146965,
images/exp2b_trial_269_colour3_distractors19_r.png,r,3,3,19,0,,,,,0,131,131,131,,,,,,,,,,,,,,,,,,,,,,,,,,,,,,,,,,,,,,,,,,,386.4176895240089,None,2,0.20721476699691266,386.4176895240089,None,,,,,,,,,,,,,,,,None,None,None,,None,None,386.66962990997126,None,3,1,0.5336084530572407,386.66962990997126,None,387.2002128004795,None,None,None,None,,35,001,2023_Jan_30_1218,searchDisc5,2021.2.3,59.96200723146965,
images/exp2a_trial_253_colour3_distractors31_l.png,l,1,3,31,0,,,,,0,132,132,132,,,,,,,,,,,,,,,,,,,,,,,,,,,,,,,,,,,,,,,,,,,387.2166947220103,None,2,0.18871864397078753,387.2166947220103,None,,,,,,,,,,,,,,,,None,None,None,,None,None,387.45322095701704,None,1,1,0.8687217109836638,387.45322095701704,None,388.3170659804717,None,None,None,None,,35,001,2023_Jan_30_1218,searchDisc5,2021.2.3,59.96200723146965,
images/exp1a_trial_142_colour3_distractors31_r.png,r,3,3,31,0,,,,,0,133,133,133,,,,,,,,,,,,,,,,,,,,,,,,,,,,,,,,,,,,,,,,,,,388.3360655590077,None,2,0.12209551397245377,388.3360655590077,None,,,,,,,,,,,,,,,,None,None,None,,None,None,388.5010464009829,None,3,1,0.7009512649965473,388.5010464009829,None,389.2004359265091,None,None,None,None,,35,001,2023_Jan_30_1218,searchDisc5,2021.2.3,59.96200723146965,
images/exp1a_trial_156_colour3_distractors19_l.png,l,1,3,19,0,,,,,0,134,134,134,,,,,,,,,,,,,,,,,,,,,,,,,,,,,,,,,,,,,,,,,,,389.2174332329887,None,2,0.18862904497655109,389.2174332329887,None,,,,,,,,,,,,,,,,None,None,None,,None,None,389.45037795900134,None,1,1,0.667146049963776,389.45037795900134,None,390.1169972074684,None,None,None,None,,35,001,2023_Jan_30_1218,searchDisc5,2021.2.3,59.96200723146965,
images/exp2c_trial_108_colour3_distractors9_r.png,r,3,3,9,0,,,,,0,135,135,135,,,,,,,,,,,,,,,,,,,,,,,,,,,,,,,,,,,,,,,,,,,390.13550238200696,None,2,0.10552361200097948,390.13550238200696,None,,,,,,,,,,,,,,,,None,None,None,,None,None,390.28347776597366,None,3,1,0.7203047910006717,390.28347776597366,None,391.0003803474945,None,None,None,None,,35,001,2023_Jan_30_1218,searchDisc5,2021.2.3,59.96200723146965,
images/exp2b_trial_149_colour2_distractors4_l.png,l,1,2,4,0,,,,,0,136,136,136,,,,,,,,,,,,,,,,,,,,,,,,,,,,,,,,,,,,,,,,,,,391.01732458296465,None,2,0.1898679820005782,391.01732458296465,None,,,,,,,,,,,,,,,,None,None,None,,None,None,391.25257993198466,None,1,1,0.7033110350021161,391.25257993198466,None,391.9504346554866,None,None,None,None,,35,001,2023_Jan_30_1218,searchDisc5,2021.2.3,59.96200723146965,
images/exp2c_trial_9_colour2_distractors31_r.png,r,3,2,31,0,,,,,0,137,137,137,,,,,,,,,,,,,,,,,,,,,,,,,,,,,,,,,,,,,,,,,,,391.9677919599926,None,2,0.1063692580210045,391.9677919599926,None,,,,,,,,,,,,,,,,None,None,None,,None,None,392.1175803329679,None,3,1,0.8493903009803034,392.1175803329679,None,392.9670313825016,None,None,None,None,,35,001,2023_Jan_30_1218,searchDisc5,2021.2.3,59.96200723146965,
images/exp2c_trial_292_colour1_distractors31_r.png,r,3,1,31,0,,,,,0,138,138,138,,,,,,,,,,,,,,,,,,,,,,,,,,,,,,,,,,,,,,,,,,,392.9841674930067,None,2,0.1545872800052166,392.9841674930067,None,,,,,,,,,,,,,,,,None,None,None,,None,None,393.1859316689661,None,3,1,0.6535739270038903,393.1859316689661,None,393.83480285051047,None,None,None,None,,35,001,2023_Jan_30_1218,searchDisc5,2021.2.3,59.96200723146965,
images/exp2a_trial_247_colour2_distractors19_l.png,l,1,2,19,0,,,,,0,139,139,139,,,,,,,,,,,,,,,,,,,,,,,,,,,,,,,,,,,,,,,,,,,393.8501263890066,None,2,0.16974354902049527,393.8501263890066,None,,,,,,,,,,,,,,,,None,None,None,,None,None,394.0675918950001,None,1,1,0.9159696610295214,394.0675918950001,None,394.984898163483,None,None,None,None,,35,001,2023_Jan_30_1218,searchDisc5,2021.2.3,59.96200723146965,
images/exp2b_trial_93_colour3_distractors31_l.png,l,1,3,31,0,,,,,0,140,140,140,,,,,,,,,,,,,,,,,,,,,,,,,,,,,,,,,,,,,,,,,,,395.0019020399777,None,2,0.17026130302110687,395.0019020399777,None,,,,,,,,,,,,,,,,None,None,None,,None,None,395.21739276498556,None,1,1,0.6884550580289215,395.21739276498556,None,395.90061373648933,None,None,None,None,,35,001,2023_Jan_30_1218,searchDisc5,2021.2.3,59.96200723146965,
images/exp1a_trial_177_colour1_distractors9_l.png,l,1,1,9,0,,,,,0,141,141,141,,,,,,,,,,,,,,,,,,,,,,,,,,,,,,,,,,,,,,,,,,,395.91694600100163,None,2,0.13867837499128655,395.91694600100163,None,,,,,,,,,,,,,,,,None,None,None,,None,None,396.09974905097624,None,1,1,1.0364433110225946,396.09974905097624,None,397.13388449647465,None,None,None,None,,35,001,2023_Jan_30_1218,searchDisc5,2021.2.3,59.96200723146965,
images/exp1a_trial_61_colour3_distractors31_l.png,l,1,3,31,0,,,,,0,142,142,142,,,,,,,,,,,,,,,,,,,,,,,,,,,,,,,,,,,,,,,,,,,397.1506012369646,None,2,0.17112709500361234,397.1506012369646,None,,,,,,,,,,,,,,,,None,None,None,,None,None,397.3693341399776,None,1,1,0.6494406599667855,397.3693341399776,None,398.01722635551124,None,None,None,None,,35,001,2023_Jan_30_1218,searchDisc5,2021.2.3,59.96200723146965,
images/exp2a_trial_210_colour1_distractors19_l.png,l,1,1,19,0,,,,,0,143,143,143,,,,,,,,,,,,,,,,,,,,,,,,,,,,,,,,,,,,,,,,,,,398.034545640985,None,2,0.17225447605596855,398.034545640985,None,,,,,,,,,,,,,,,,None,None,None,,None,None,398.25267973396694,None,1,1,0.5884924730053172,398.25267973396694,None,398.8348415854969,None,None,None,None,,35,001,2023_Jan_30_1218,searchDisc5,2021.2.3,59.96200723146965,
images/exp1a_trial_235_colour3_distractors4_r.png,r,3,3,4,0,,,,,0,144,144,144,,,,,,,,,,,,,,,,,,,,,,,,,,,,,,,,,,,,,,,,,,,398.8501937389956,None,2,0.18902637000428513,398.8501937389956,None,,,,,,,,,,,,,,,,None,None,None,,None,None,399.08627788501326,None,3,1,0.5356622329563834,399.08627788501326,None,399.61690201850143,None,None,None,None,,35,001,2023_Jan_30_1218,searchDisc5,2021.2.3,59.96200723146965,
images/exp2c_trial_283_colour3_distractors9_l.png,l,1,3,9,0,,,,,0,145,145,145,,,,,,,,,,,,,,,,,,,,,,,,,,,,,,,,,,,,,,,,,,,399.6333832779783,None,2,0.1890211919671856,399.6333832779783,None,,,,,,,,,,,,,,,,None,None,None,,None,None,399.8702845629887,None,1,1,0.7216578939696774,399.8702845629887,None,400.5849239634816,None,None,None,None,,35,001,2023_Jan_30_1218,searchDisc5,2021.2.3,59.96200723146965,
images/exp2a_trial_269_colour3_distractors19_r.png,r,3,3,19,0,,,,,0,146,146,146,,,,,,,,,,,,,,,,,,,,,,,,,,,,,,,,,,,,,,,,,,,400.6009392879787,None,2,0.0890399040072225,400.6009392879787,None,,,,,,,,,,,,,,,,None,None,None,,None,None,400.7359726619907,None,3,1,0.5685321139753796,400.7359726619907,None,401.30086315948284,None,None,None,None,,35,001,2023_Jan_30_1218,searchDisc5,2021.2.3,59.96200723146965,
images/exp2a_trial_18_colour1_distractors19_l.png,l,1,1,19,0,,,,,0,147,147,147,,,,,,,,,,,,,,,,,,,,,,,,,,,,,,,,,,,,,,,,,,,401.31782192597166,None,2,0.20668747299350798,401.31782192597166,None,,,,,,,,,,,,,,,,None,None,None,,None,None,401.56833430798724,None,1,1,0.6177789460052736,401.56833430798724,None,402.1840866945102,None,None,None,None,,35,001,2023_Jan_30_1218,searchDisc5,2021.2.3,59.96200723146965,
images/exp2b_trial_110_colour3_distractors31_r.png,r,3,3,31,0,,,,,0,148,148,148,,,,,,,,,,,,,,,,,,,,,,,,,,,,,,,,,,,,,,,,,,,402.2024087290047,None,2,0.23764219001168385,402.2024087290047,None,,,,,,,,,,,,,,,,None,None,None,,None,None,402.48441748000914,None,3,1,0.45335278200218454,402.48441748000914,None,402.933972262498,None,None,None,None,,35,001,2023_Jan_30_1218,searchDisc5,2021.2.3,59.96200723146965,
images/exp2a_trial_255_colour0_distractors0_l.png,l,1,0,0,0,,,,,0,149,149,149,,,,,,,,,,,,,,,,,,,,,,,,,,,,,,,,,,,,,,,,,,,402.9511119420058,None,2,0.20734987099422142,402.9511119420058,None,,,,,,,,,,,,,,,,None,None,None,,None,None,403.2027433529729,None,1,1,0.5699912619893439,403.2027433529729,None,403.76747518249323,None,None,None,None,,35,001,2023_Jan_30_1218,searchDisc5,2021.2.3,59.96200723146965,
images/exp1a_trial_64_colour1_distractors1_r.png,r,3,1,1,0,,,,,0,150,150,150,,,,,,,,,,,,,,,,,,,,,,,,,,,,,,,,,,,,,,,,,,,403.7847030609846,None,2,0.2549751680344343,403.7847030609846,None,,,,,,,,,,,,,,,,None,None,None,,None,None,404.08419237699127,None,3,1,0.7389184799976647,404.08419237699127,None,404.81760020747316,None,None,None,None,,35,001,2023_Jan_30_1218,searchDisc5,2021.2.3,59.96200723146965,
images/exp2b_trial_120_colour2_distractors31_l.png,l,1,2,31,0,,,,,0,151,151,151,,,,,,,,,,,,,,,,,,,,,,,,,,,,,,,,,,,,,,,,,,,404.8359571339679,None,2,0.17360673303483054,404.8359571339679,None,,,,,,,,,,,,,,,,None,None,None,,None,None,405.0512579070055,None,1,1,0.684807304001879,405.0512579070055,None,405.7351143015083,None,None,None,None,,35,001,2023_Jan_30_1218,searchDisc5,2021.2.3,59.96200723146965,
images/exp1a_trial_59_colour3_distractors9_l.png,l,1,3,9,0,,,,,0,152,152,152,,,,,,,,,,,,,,,,,,,,,,,,,,,,,,,,,,,,,,,,,,,405.75053469097475,None,2,0.17029925400856882,405.75053469097475,None,,,,,,,,,,,,,,,,None,None,None,,None,None,405.9698348880047,None,1,1,0.6206185140181333,405.9698348880047,None,406.58414071450244,None,None,None,None,,35,001,2023_Jan_30_1218,searchDisc5,2021.2.3,59.96200723146965,
images/exp2a_trial_136_colour2_distractors19_r.png,r,3,2,19,0,,,,,0,153,153,153,,,,,,,,,,,,,,,,,,,,,,,,,,,,,,,,,,,,,,,,,,,406.6006017400068,None,2,0.17223092197673395,406.6006017400068,None,,,,,,,,,,,,,,,,None,None,None,,None,None,406.81958743400173,None,3,1,0.5482550750020891,406.81958743400173,None,407.3675519084907,None,None,None,None,,35,001,2023_Jan_30_1218,searchDisc5,2021.2.3,59.96200723146965,
images/exp2c_trial_240_colour1_distractors4_l.png,l,1,1,4,0,,,,,0,154,154,154,,,,,,,,,,,,,,,,,,,,,,,,,,,,,,,,,,,,,,,,,,,407.3846698909765,None,2,0.18861190602183342,407.3846698909765,None,,,,,,,,,,,,,,,,None,None,None,,None,None,407.6196352489642,None,1,1,0.671688256028574,407.6196352489642,None,408.2841288094758,None,None,None,None,,35,001,2023_Jan_30_1218,searchDisc5,2021.2.3,59.96200723146965,
images/exp2b_trial_175_colour1_distractors1_l.png,l,1,1,1,0,,,,,0,155,155,155,,,,,,,,,,,,,,,,,,,,,,,,,,,,,,,,,,,,,,,,,,,408.30166235298384,None,2,0.18937852699309587,408.30166235298384,None,,,,,,,,,,,,,,,,None,None,None,,None,None,408.53674433298875,None,1,1,0.5539108180091716,408.53674433298875,None,409.08368956747,None,None,None,None,,35,001,2023_Jan_30_1218,searchDisc5,2021.2.3,59.96200723146965,
images/exp2a_trial_198_colour2_distractors4_r.png,r,3,2,4,0,,,,,0,156,156,156,,,,,,,,,,,,,,,,,,,,,,,,,,,,,,,,,,,,,,,,,,,409.10171720100334,None,2,0.1903566109831445,409.10171720100334,None,,,,,,,,,,,,,,,,None,None,None,,None,None,409.3370042319875,None,3,1,0.5033132570097223,409.3370042319875,None,409.83635973948986,None,None,None,None,,35,001,2023_Jan_30_1218,searchDisc5,2021.2.3,59.96200723146965,
images/exp2b_trial_174_colour3_distractors31_r.png,r,3,3,31,0,,,,,0,157,157,157,,,,,,,,,,,,,,,,,,,,,,,,,,,,,,,,,,,,,,,,,,,409.85158541298006,None,2,0.20363012194866315,409.85158541298006,None,,,,,,,,,,,,,,,,None,None,None,,None,None,410.1011585079832,None,3,1,0.5840228220331483,410.1011585079832,None,410.68420116651106,None,None,None,None,,35,001,2023_Jan_30_1218,searchDisc5,2021.2.3,59.96200723146965,
images/exp2b_trial_27_colour3_distractors9_l.png,l,1,3,9,0,,,,,0,158,158,158,,,,,,,,,,,,,,,,,,,,,,,,,,,,,,,,,,,,,,,,,,,410.70068156096386,None,2,0.17230830003973097,410.70068156096386,None,,,,,,,,,,,,,,,,None,None,None,,None,None,410.91734628000995,None,1,1,0.6377412150031887,410.91734628000995,None,411.55101276848,None,None,None,None,,35,001,2023_Jan_30_1218,searchDisc5,2021.2.3,59.96200723146965,
images/exp1a_trial_315_colour3_distractors9_l.png,l,1,3,9,0,,,,,0,159,159,159,,,,,,,,,,,,,,,,,,,,,,,,,,,,,,,,,,,,,,,,,,,411.56742975400994,None,2,0.17309485602891073,411.56742975400994,None,,,,,,,,,,,,,,,,None,None,None,,None,None,411.78691385599086,None,1,1,0.567984672030434,411.78691385599086,None,412.3509391995147,None,None,None,None,,35,001,2023_Jan_30_1218,searchDisc5,2021.2.3,59.96200723146965,
images/exp2c_trial_94_colour0_distractors0_r.png,r,3,0,0,0,,,,,0,160,160,160,,,,,,,,,,,,,,,,,,,,,,,,,,,,,,,,,,,,,,,,,,,412.3673266089754,None,2,0.17346582299796864,412.3673266089754,None,,,,,,,,,,,,,,,,None,None,None,,None,None,412.58736300998135,None,3,1,0.5215116629842669,412.58736300998135,None,413.1018811274669,None,None,None,None,,35,001,2023_Jan_30_1218,searchDisc5,2021.2.3,59.96200723146965,
images/exp2a_trial_200_colour2_distractors19_r.png,r,3,2,19,0,,,,,0,161,161,161,,,,,,,,,,,,,,,,,,,,,,,,,,,,,,,,,,,,,,,,,,,413.12021674896823,None,2,0.2192772559938021,413.12021674896823,None,,,,,,,,,,,,,,,,None,None,None,,None,None,413.385170301015,None,3,1,0.6152413969975896,413.385170301015,None,414.0011844094959,None,None,None,None,,35,001,2023_Jan_30_1218,searchDisc5,2021.2.3,59.96200723146965,
images/exp2b_trial_125_colour3_distractors31_l.png,l,1,3,31,0,,,,,0,162,162,162,,,,,,,,,,,,,,,,,,,,,,,,,,,,,,,,,,,,,,,,,,,414.0207332749851,None,2,0.1872348000179045,414.0207332749851,None,,,,,,,,,,,,,,,,None,None,None,,None,None,414.25207432196476,None,1,1,0.6367986650438979,414.25207432196476,None,414.88388607547387,None,None,None,None,,35,001,2023_Jan_30_1218,searchDisc5,2021.2.3,59.96200723146965,
images/exp2a_trial_226_colour1_distractors9_r.png,r,3,1,9,0,,,,,0,163,163,163,,,,,,,,,,,,,,,,,,,,,,,,,,,,,,,,,,,,,,,,,,,414.900753719965,None,2,0.17172507400391623,414.900753719965,None,,,,,,,,,,,,,,,,None,None,None,,None,None,415.11935872398317,None,3,1,0.5224179860088043,415.11935872398317,None,415.63555958251237,None,None,None,None,,35,001,2023_Jan_30_1218,searchDisc5,2021.2.3,59.96200723146965,
images/exp1a_trial_287_colour0_distractors0_l.png,l,1,0,0,0,,,,,0,164,164,164,,,,,,,,,,,,,,,,,,,,,,,,,,,,,,,,,,,,,,,,,,,415.65291382797295,None,2,0.20349258196074516,415.65291382797295,None,,,,,,,,,,,,,,,,None,None,None,,None,None,415.901200095017,None,1,1,0.4899323509889655,415.901200095017,None,416.38433842548403,None,None,None,None,,35,001,2023_Jan_30_1218,searchDisc5,2021.2.3,59.96200723146965,
images/exp1a_trial_201_colour2_distractors31_r.png,r,3,2,31,0,,,,,0,165,165,165,,,,,,,,,,,,,,,,,,,,,,,,,,,,,,,,,,,,,,,,,,,416.4014172760071,None,2,0.2879897619714029,416.4014172760071,None,,,,,,,,,,,,,,,,None,None,None,,None,None,416.7343879939872,None,3,1,0.5999298239476047,416.7343879939872,None,417.33460542846007,None,None,None,None,,35,001,2023_Jan_30_1218,searchDisc5,2021.2.3,59.96200723146965,
images/exp2b_trial_14_colour3_distractors31_r.png,r,3,3,31,0,,,,,0,166,166,166,,,,,,,,,,,,,,,,,,,,,,,,,,,,,,,,,,,,,,,,,,,417.3515685379971,None,2,0.1884436669643037,417.3515685379971,None,,,,,,,,,,,,,,,,None,None,None,,None,None,417.587083565013,None,3,1,0.6689467769465409,417.587083565013,None,418.2511396024609,None,None,None,None,,35,001,2023_Jan_30_1218,searchDisc5,2021.2.3,59.96200723146965,
images/exp2b_trial_234_colour3_distractors1_r.png,r,3,3,1,0,,,,,0,167,167,167,,,,,,,,,,,,,,,,,,,,,,,,,,,,,,,,,,,,,,,,,,,418.26843264402123,None,2,0.17173045896925032,418.26843264402123,None,,,,,,,,,,,,,,,,None,None,None,,None,None,418.4872998659848,None,1,0,0.5219068329897709,418.4872998659848,None,419.001186911494,None,None,None,None,,35,001,2023_Jan_30_1218,searchDisc5,2021.2.3,59.96200723146965,
images/exp1a_trial_31_colour0_distractors0_l.png,l,1,0,0,0,,,,,0,168,168,168,,,,,,,,,,,,,,,,,,,,,,,,,,,,,,,,,,,,,,,,,,,419.019632830983,None,2,1.137882559967693,419.019632830983,None,,,,,,,,,,,,,,,,None,None,None,,None,None,420.2042921310058,None,1,1,0.5062450459809043,420.2042921310058,None,420.7012307894882,None,None,None,None,,35,001,2023_Jan_30_1218,searchDisc5,2021.2.3,59.96200723146965,
images/exp2c_trial_264_colour2_distractors19_r.png,r,3,2,19,0,,,,,0,169,169,169,,,,,,,,,,,,,,,,,,,,,,,,,,,,,,,,,,,,,,,,,,,420.7176447249949,None,2,0.1899314449983649,420.7176447249949,None,,,,,,,,,,,,,,,,None,None,None,,None,None,420.9541051639826,None,3,1,0.9008853459963575,420.9541051639826,None,421.85109227448703,None,None,None,None,,35,001,2023_Jan_30_1218,searchDisc5,2021.2.3,59.96200723146965,
images/exp2c_trial_39_colour2_distractors9_r.png,r,3,2,9,0,,,,,0,170,170,170,,,,,,,,,,,,,,,,,,,,,,,,,,,,,,,,,,,,,,,,,,,421.86768633598695,None,2,0.38890579901635647,421.86768633598695,None,,,,,,,,,,,,,,,,None,None,None,,None,None,422.30341412097914,None,3,1,0.6531808410072699,422.30341412097914,None,422.95092969848776,None,None,None,None,,35,001,2023_Jan_30_1218,searchDisc5,2021.2.3,59.96200723146965,
images/exp2b_trial_41_colour2_distractors31_r.png,r,3,2,31,0,,,,,0,171,171,171,,,,,,,,,,,,,,,,,,,,,,,,,,,,,,,,,,,,,,,,,,,422.96844361297553,None,2,0.305250519013498,422.96844361297553,None,,,,,,,,,,,,,,,,None,None,None,,None,None,423.3180728100124,None,3,1,0.6854776079999283,423.3180728100124,None,424.00131945650793,None,None,None,None,,35,001,2023_Jan_30_1218,searchDisc5,2021.2.3,59.96200723146965,
images/exp1a_trial_17_colour1_distractors9_l.png,l,1,1,9,0,,,,,0,172,172,172,,,,,,,,,,,,,,,,,,,,,,,,,,,,,,,,,,,,,,,,,,,424.01776796998456,None,2,0.7054423440131359,424.01776796998456,None,,,,,,,,,,,,,,,,None,None,None,,None,None,424.77100963599514,None,1,1,0.7034057070268318,424.77100963599514,None,425.46809740051395,None,None,None,None,,35,001,2023_Jan_30_1218,searchDisc5,2021.2.3,59.96200723146965,
images/exp1a_trial_268_colour3_distractors9_r.png,r,3,3,9,0,,,,,0,173,173,173,,,,,,,,,,,,,,,,,,,,,,,,,,,,,,,,,,,,,,,,,,,425.48618795297807,None,2,0.38976035197265446,425.48618795297807,None,,,,,,,,,,,,,,,,None,None,None,,None,None,425.9209165869979,None,3,1,0.7022776270168833,425.9209165869979,None,426.6180623764638,None,None,None,None,,35,001,2023_Jan_30_1218,searchDisc5,2021.2.3,59.96200723146965,
images/exp2b_trial_53_colour2_distractors4_l.png,l,1,2,4,0,,,,,0,174,174,174,,,,,,,,,,,,,,,,,,,,,,,,,,,,,,,,,,,,,,,,,,,426.63459567999234,None,2,0.3711454359581694,426.63459567999234,None,,,,,,,,,,,,,,,,None,None,None,,None,None,427.0535011650063,None,1,1,0.8044179909629747,427.0535011650063,None,427.8511336554773,None,None,None,None,,35,001,2023_Jan_30_1218,searchDisc5,2021.2.3,59.96200723146965,
images/exp2c_trial_206_colour3_distractors31_r.png,r,3,3,31,0,,,,,0,175,175,175,,,,,,,,,,,,,,,,,,,,,,,,,,,,,,,,,,,,,,,,,,,427.8687336379662,None,2,0.4063782019657083,427.8687336379662,None,,,,,,,,,,,,,,,,None,None,None,,None,None,428.32056824996835,None,3,1,0.7674838890088722,428.32056824996835,None,429.08477739851224,None,None,None,None,,35,001,2023_Jan_30_1218,searchDisc5,2021.2.3,59.96200723146965,
images/exp2b_trial_163_colour1_distractors19_r.png,r,3,1,19,0,,,,,0,176,176,176,,,,,,,,,,,,,,,,,,,,,,,,,,,,,,,,,,,,,,,,,,,429.1033655880019,None,2,0.2537916050059721,429.1033655880019,None,,,,,,,,,,,,,,,,None,None,None,,None,None,429.4021171120112,None,3,1,0.5212743119918741,429.4021171120112,None,429.9181545954896,None,None,None,None,,35,001,2023_Jan_30_1218,searchDisc5,2021.2.3,59.96200723146965,
images/exp2a_trial_229_colour2_distractors1_r.png,r,3,2,1,0,,,,,0,177,177,177,,,,,,,,,,,,,,,,,,,,,,,,,,,,,,,,,,,,,,,,,,,429.93385985598434,None,2,0.18744713097112253,429.93385985598434,None,,,,,,,,,,,,,,,,None,None,None,,None,None,430.1711031619925,None,3,1,0.6396311110001989,430.1711031619925,None,430.8016864234931,None,None,None,None,,35,001,2023_Jan_30_1218,searchDisc5,2021.2.3,59.96200723146965,
images/exp2b_trial_303_colour1_distractors1_l.png,l,1,1,1,0,,,,,0,178,178,178,,,,,,,,,,,,,,,,,,,,,,,,,,,,,,,,,,,,,,,,,,,430.8182525750017,None,2,0.20514247298706323,430.8182525750017,None,,,,,,,,,,,,,,,,None,None,None,,None,None,431.07102475099964,None,1,1,0.6050850269966759,431.07102475099964,None,431.66811568250415,None,None,None,None,,35,001,2023_Jan_30_1218,searchDisc5,2021.2.3,59.96200723146965,
images/exp2a_trial_79_colour1_distractors1_l.png,l,1,1,1,0,,,,,0,179,179,179,,,,,,,,,,,,,,,,,,,,,,,,,,,,,,,,,,,,,,,,,,,431.6866110729752,None,2,0.23786068602930754,431.6866110729752,None,,,,,,,,,,,,,,,,None,None,None,,None,None,431.96806780598126,None,3,0,0.555710930027999,431.96806780598126,None,432.51818037249615,None,None,None,None,,35,001,2023_Jan_30_1218,searchDisc5,2021.2.3,59.96200723146965,
images/exp2a_trial_204_colour3_distractors9_r.png,r,3,3,9,0,,,,,0,180,180,180,,,,,,,,,,,,,,,,,,,,,,,,,,,,,,,,,,,,,,,,,,,432.5339512680075,None,2,0.8569651300203986,432.5339512680075,None,,,,,,,,,,,,,,,,None,None,None,,None,None,433.4374060030095,None,3,1,0.5853249470237643,433.4374060030095,None,434.0183656464913,None,None,None,None,,35,001,2023_Jan_30_1218,searchDisc5,2021.2.3,59.96200723146965,
images/exp2a_trial_297_colour2_distractors31_r.png,r,3,2,31,0,,,,,0,181,181,181,,,,,,,,,,,,,,,,,,,,,,,,,,,,,,,,,,,,,,,,,,,434.0347119490034,None,2,0.5877877729944885,434.0347119490034,None,,,,,,,,,,,,,,,,None,None,None,,None,None,434.66838095599087,None,3,1,0.6797002459643409,434.66838095599087,None,435.3516359015019,None,None,None,None,,35,001,2023_Jan_30_1218,searchDisc5,2021.2.3,59.96200723146965,
images/exp2b_trial_105_colour2_distractors31_r.png,r,3,2,31,0,,,,,0,182,182,182,,,,,,,,,,,,,,,,,,,,,,,,,,,,,,,,,,,,,,,,,,,435.368282314972,None,2,0.3707235580077395,435.368282314972,None,,,,,,,,,,,,,,,,None,None,None,,None,None,435.7882278310135,None,3,1,0.5549485849915072,435.7882278310135,None,436.3360346455127,None,None,None,None,,35,001,2023_Jan_30_1218,searchDisc5,2021.2.3,59.96200723146965,
images/exp2a_trial_111_colour1_distractors1_l.png,l,1,1,1,0,,,,,0,183,183,183,,,,,,,,,,,,,,,,,,,,,,,,,,,,,,,,,,,,,,,,,,,436.3532232440193,None,2,0.33735402894672006,436.3532232440193,None,,,,,,,,,,,,,,,,None,None,None,,None,None,436.73771398101235,None,1,1,0.5542021899600513,436.73771398101235,None,437.285108292487,None,None,None,None,,35,001,2023_Jan_30_1218,searchDisc5,2021.2.3,59.96200723146965,
images/exp2b_trial_275_colour1_distractors31_l.png,l,1,1,31,0,,,,,0,184,184,184,,,,,,,,,,,,,,,,,,,,,,,,,,,,,,,,,,,,,,,,,,,437.3011839109822,None,2,0.33945401199162006,437.3011839109822,None,,,,,,,,,,,,,,,,None,None,None,,None,None,437.68546905601397,None,1,1,0.6347230490064248,437.68546905601397,None,438.3183132024831,None,None,None,None,,35,001,2023_Jan_30_1218,searchDisc5,2021.2.3,59.96200723146965,
images/exp2b_trial_81_colour1_distractors9_l.png,l,1,1,9,0,,,,,0,185,185,185,,,,,,,,,,,,,,,,,,,,,,,,,,,,,,,,,,,,,,,,,,,438.3356004569796,None,2,0.3711746460176073,438.3356004569796,None,,,,,,,,,,,,,,,,None,None,None,,None,None,438.75107952801045,None,1,1,0.521319100051187,438.75107952801045,None,439.2681488614879,None,None,None,None,,35,001,2023_Jan_30_1218,searchDisc5,2021.2.3,59.96200723146965,
images/exp2c_trial_66_colour1_distractors9_r.png,r,3,1,9,0,,,,,0,186,186,186,,,,,,,,,,,,,,,,,,,,,,,,,,,,,,,,,,,,,,,,,,,439.2853173199692,None,2,0.25758850999409333,439.2853173199692,None,,,,,,,,,,,,,,,,None,None,None,,None,None,439.5862396659795,None,3,1,0.5350788119831122,439.5862396659795,None,440.11832740147366,None,None,None,None,,35,001,2023_Jan_30_1218,searchDisc5,2021.2.3,59.96200723146965,
images/exp1a_trial_20_colour2_distractors1_l.png,l,1,2,1,0,,,,,0,187,187,187,,,,,,,,,,,,,,,,,,,,,,,,,,,,,,,,,,,,,,,,,,,440.1348243149696,None,2,0.32215636695036665,440.1348243149696,None,,,,,,,,,,,,,,,,None,None,None,,None,None,440.5011159289861,None,1,1,0.5715677230036817,440.5011159289861,None,441.0684862865135,None,None,None,None,,35,001,2023_Jan_30_1218,searchDisc5,2021.2.3,59.96200723146965,
images/exp1a_trial_144_colour1_distractors4_l.png,l,1,1,4,0,,,,,0,188,188,188,,,,,,,,,,,,,,,,,,,,,,,,,,,,,,,,,,,,,,,,,,,441.0878558739787,None,2,0.238611091976054,441.0878558739787,None,,,,,,,,,,,,,,,,None,None,None,,None,None,441.3683087750105,None,1,1,0.8535004340228625,441.3683087750105,None,442.2182353244978,None,None,None,None,,35,001,2023_Jan_30_1218,searchDisc5,2021.2.3,59.96200723146965,
images/exp2a_trial_260_colour1_distractors31_r.png,r,3,1,31,0,,,,,0,189,189,189,,,,,,,,,,,,,,,,,,,,,,,,,,,,,,,,,,,,,,,,,,,442.23530608799774,None,2,0.1882654779474251,442.23530608799774,None,,,,,,,,,,,,,,,,None,None,None,,None,None,442.47053591301665,None,3,1,0.7189732050173916,442.47053591301665,None,443.1851434104727,None,None,None,None,,35,001,2023_Jan_30_1218,searchDisc5,2021.2.3,59.96200723146965,
images/exp2c_trial_116_colour2_distractors1_l.png,l,1,2,1,0,,,,,0,190,190,190,,,,,,,,,,,,,,,,,,,,,,,,,,,,,,,,,,,,,,,,,,,443.20219338696916,None,2,0.2243897500447929,443.20219338696916,None,,,,,,,,,,,,,,,,None,None,None,,None,None,443.47053517599124,None,1,1,0.7695314510492608,443.47053517599124,None,444.23526777549415,None,None,None,None,,35,001,2023_Jan_30_1218,searchDisc5,2021.2.3,59.96200723146965,
images/exp1a_trial_211_colour1_distractors31_l.png,l,1,1,31,0,,,,,0,191,191,191,,,,,,,,,,,,,,,,,,,,,,,,,,,,,,,,,,,,,,,,,,,444.25235858297674,None,2,0.22182667395099998,444.25235858297674,None,,,,,,,,,,,,,,,,None,None,None,,None,None,444.51857649500016,None,1,1,0.7652643609908409,444.51857649500016,None,445.28522781947396,None,None,None,None,,35,001,2023_Jan_30_1218,searchDisc5,2021.2.3,59.96200723146965,
images/exp2c_trial_2_colour1_distractors9_r.png,r,3,1,9,0,,,,,0,192,192,192,,,,,,,,,,,,,,,,,,,,,,,,,,,,,,,,,,,,,,,,,,,445.3023449850152,None,2,0.20785329100908712,445.3023449850152,None,,,,,,,,,,,,,,,,None,None,None,,None,None,445.55444361496484,None,3,1,0.5674818340339698,445.55444361496484,None,446.1177971444675,None,None,None,None,,35,001,2023_Jan_30_1218,searchDisc5,2021.2.3,59.96200723146965,
images/exp1a_trial_184_colour2_distractors31_l.png,l,1,2,31,0,,,,,0,193,193,193,,,,,,,,,,,,,,,,,,,,,,,,,,,,,,,,,,,,,,,,,,,446.135053002974,None,2,0.22177766100503504,446.135053002974,None,,,,,,,,,,,,,,,,None,None,None,,None,None,446.40369788598036,None,1,1,0.7160556120215915,446.40369788598036,None,447.118240768509,None,None,None,None,,35,001,2023_Jan_30_1218,searchDisc5,2021.2.3,59.96200723146965,
images/exp2c_trial_76_colour3_distractors9_r.png,r,3,3,9,0,,,,,0,194,194,194,,,,,,,,,,,,,,,,,,,,,,,,,,,,,,,,,,,,,,,,,,,447.13514215598116,None,2,0.23906615399755538,447.13514215598116,None,,,,,,,,,,,,,,,,None,None,None,,None,None,447.41868595196865,None,3,1,0.8700796830235049,447.41868595196865,None,448.285352621472,None,None,None,None,,35,001,2023_Jan_30_1218,searchDisc5,2021.2.3,59.96200723146965,
images/exp2a_trial_38_colour2_distractors4_r.png,r,3,2,4,0,,,,,0,195,195,195,,,,,,,,,,,,,,,,,,,,,,,,,,,,,,,,,,,,,,,,,,,448.30234082299285,None,2,0.3555524699622765,448.30234082299285,None,,,,,,,,,,,,,,,,None,None,None,,None,None,448.7017819629982,None,3,1,0.7368424179730937,448.7017819629982,None,449.4366825004807,None,None,None,None,,35,001,2023_Jan_30_1218,searchDisc5,2021.2.3,59.96200723146965,
images/exp2c_trial_160_colour1_distractors1_r.png,r,3,1,1,0,,,,,0,196,196,196,,,,,,,,,,,,,,,,,,,,,,,,,,,,,,,,,,,,,,,,,,,449.45491610397585,None,2,0.22291474998928607,449.45491610397585,None,,,,,,,,,,,,,,,,None,None,None,,None,None,449.7207926979754,None,3,1,0.5528866310487501,449.7207926979754,None,450.26885196247605,None,None,None,None,,35,001,2023_Jan_30_1218,searchDisc5,2021.2.3,59.96200723146965,
images/exp2c_trial_222_colour0_distractors0_r.png,r,3,0,0,0,,,,,0,197,197,197,,,,,,,,,,,,,,,,,,,,,,,,,,,,,,,,,,,,,,,,,,,450.2851443819818,None,2,0.18777898501139134,450.2851443819818,None,,,,,,,,,,,,,,,,None,None,None,,None,None,450.52094060298987,None,3,1,0.4900236369576305,450.52094060298987,None,451.0030220174929,None,None,None,None,,35,001,2023_Jan_30_1218,searchDisc5,2021.2.3,59.96200723146965,
images/exp2b_trial_154_colour3_distractors4_l.png,l,1,3,4,0,,,,,0,198,198,198,,,,,,,,,,,,,,,,,,,,,,,,,,,,,,,,,,,,,,,,,,,451.0182706560008,None,2,0.16911186301149428,451.0182706560008,None,,,,,,,,,,,,,,,,None,None,None,,None,None,451.2383392250049,None,1,1,0.6396628150250763,451.2383392250049,None,451.86890427548207,None,None,None,None,,35,001,2023_Jan_30_1218,searchDisc5,2021.2.3,59.96200723146965,
images/exp1a_trial_179_colour1_distractors31_l.png,l,1,1,31,0,,,,,0,199,199,199,,,,,,,,,,,,,,,,,,,,,,,,,,,,,,,,,,,,,,,,,,,451.8858613600023,None,2,0.1869236989878118,451.8858613600023,None,,,,,,,,,,,,,,,,None,None,None,,None,None,452.1217442100169,None,1,1,1.0678567810100503,452.1217442100169,None,453.1854610105045,None,None,None,None,,35,001,2023_Jan_30_1218,searchDisc5,2021.2.3,59.96200723146965,
images/exp2a_trial_292_colour1_distractors31_r.png,r,3,1,31,0,,,,,0,200,200,200,,,,,,,,,,,,,,,,,,,,,,,,,,,,,,,,,,,,,,,,,,,453.20268833701266,None,2,0.2064526550238952,453.20268833701266,None,,,,,,,,,,,,,,,,None,None,None,,None,None,453.45471497200197,None,3,1,0.6840278349700384,453.45471497200197,None,454.13552659250564,None,None,None,None,,35,001,2023_Jan_30_1218,searchDisc5,2021.2.3,59.96200723146965,
images/exp2a_trial_4_colour1_distractors31_r.png,r,3,1,31,0,,,,,0,201,201,201,,,,,,,,,,,,,,,,,,,,,,,,,,,,,,,,,,,,,,,,,,,454.1527232090011,None,2,0.28808407695032656,454.1527232090011,None,,,,,,,,,,,,,,,,None,None,None,,None,None,454.4855463770218,None,3,1,0.5347089929855429,454.4855463770218,None,455.0187842435087,None,None,None,None,,35,001,2023_Jan_30_1218,searchDisc5,2021.2.3,59.96200723146965,
images/exp2c_trial_26_colour3_distractors4_l.png,l,1,3,4,0,,,,,0,202,202,202,,,,,,,,,,,,,,,,,,,,,,,,,,,,,,,,,,,,,,,,,,,455.03736806300003,None,2,0.22220609098440036,455.03736806300003,None,,,,,,,,,,,,,,,,None,None,None,,None,None,455.30414721998386,None,1,1,0.8554308720049448,455.30414721998386,None,456.152158502501,None,None,None,None,,35,001,2023_Jan_30_1218,searchDisc5,2021.2.3,59.96200723146965,
images/exp2c_trial_212_colour2_distractors1_l.png,l,1,2,1,0,,,,,0,203,203,203,,,,,,,,,,,,,,,,,,,,,,,,,,,,,,,,,,,,,,,,,,,456.1705336709856,None,2,0.2871275899815373,456.1705336709856,None,,,,,,,,,,,,,,,,None,None,None,,None,None,456.5032480430091,None,1,1,0.5390796259744093,456.5032480430091,None,457.0351811344852,None,None,None,None,,35,001,2023_Jan_30_1218,searchDisc5,2021.2.3,59.96200723146965,
images/exp2b_trial_194_colour1_distractors9_r.png,r,3,1,9,0,,,,,0,204,204,204,,,,,,,,,,,,,,,,,,,,,,,,,,,,,,,,,,,,,,,,,,,457.0547538069659,None,2,0.19069006002973765,457.0547538069659,None,,,,,,,,,,,,,,,,None,None,None,,None,None,457.2859167419956,None,3,1,0.8511352729983628,457.2859167419956,None,458.13512119646185,None,None,None,None,,35,001,2023_Jan_30_1218,searchDisc5,2021.2.3,59.96200723146965,
images/exp1a_trial_137_colour2_distractors31_r.png,r,3,2,31,0,,,,,0,205,205,205,,,,,,,,,,,,,,,,,,,,,,,,,,,,,,,,,,,,,,,,,,,458.1523278399836,None,2,0.25574014900485054,458.1523278399836,None,,,,,,,,,,,,,,,,None,None,None,,None,None,458.4532835339778,None,3,1,0.7002825919771567,458.4532835339778,None,459.1534385834937,None,None,None,None,,35,001,2023_Jan_30_1218,searchDisc5,2021.2.3,59.96200723146965,
images/exp2b_trial_226_colour1_distractors9_r.png,r,3,1,9,0,,,,,0,206,206,206,,,,,,,,,,,,,,,,,,,,,,,,,,,,,,,,,,,,,,,,,,,459.168720415968,None,2,0.22074192197760567,459.168720415968,None,,,,,,,,,,,,,,,,None,None,None,,None,None,459.4385491749854,None,3,1,0.5706671940279193,459.4385491749854,None,460.0022343724966,None,None,None,None,,35,001,2023_Jan_30_1218,searchDisc5,2021.2.3,59.96200723146965,
images/exp2b_trial_296_colour2_distractors19_r.png,r,3,2,19,0,,,,,0,207,207,207,,,,,,,,,,,,,,,,,,,,,,,,,,,,,,,,,,,,,,,,,,,460.01872738898965,None,2,0.20771091803908348,460.01872738898965,None,,,,,,,,,,,,,,,,None,None,None,,None,None,460.27208471897757,None,3,1,0.5342388970311731,460.27208471897757,None,460.80230857048883,None,None,None,None,,35,001,2023_Jan_30_1218,searchDisc5,2021.2.3,59.96200723146965,
images/exp2a_trial_166_colour2_distractors4_r.png,r,3,2,4,0,,,,,0,208,208,208,,,,,,,,,,,,,,,,,,,,,,,,,,,,,,,,,,,,,,,,,,,460.8207538690185,None,2,0.18859504599822685,460.8207538690185,None,,,,,,,,,,,,,,,,None,None,None,,None,None,461.0552880059695,None,3,1,0.552759165992029,461.0552880059695,None,461.60223454750377,None,None,None,None,,35,001,2023_Jan_30_1218,searchDisc5,2021.2.3,59.96200723146965,
images/exp2a_trial_16_colour1_distractors4_l.png,l,1,1,4,0,,,,,0,209,209,209,,,,,,,,,,,,,,,,,,,,,,,,,,,,,,,,,,,,,,,,,,,461.6187499369844,None,2,0.18801307101966813,461.6187499369844,None,,,,,,,,,,,,,,,,None,None,None,,None,None,461.85521858901484,None,1,1,0.6385222710086964,461.85521858901484,None,462.485694370477,None,None,None,None,,35,001,2023_Jan_30_1218,searchDisc5,2021.2.3,59.96200723146965,
images/exp2c_trial_103_colour2_distractors9_r.png,r,3,2,9,0,,,,,0,210,210,210,,,,,,,,,,,,,,,,,,,,,,,,,,,,,,,,,,,,,,,,,,,462.5031655509956,None,2,0.13849067501723766,462.5031655509956,None,,,,,,,,,,,,,,,,None,None,None,,None,None,462.6862204360077,None,3,1,1.0704856420052238,462.6862204360077,None,463.7523466434912,None,None,None,None,,35,001,2023_Jan_30_1218,searchDisc5,2021.2.3,59.96200723146965,
images/exp2a_trial_63_colour0_distractors0_l.png,l,1,0,0,0,,,,,0,211,211,211,,,,,,,,,,,,,,,,,,,,,,,,,,,,,,,,,,,,,,,,,,,463.769498093985,None,2,0.20441993395797908,463.769498093985,None,,,,,,,,,,,,,,,,None,None,None,,None,None,464.01967641396914,None,1,1,0.5729815440136008,464.01967641396914,None,464.5857389734709,None,None,None,None,,35,001,2023_Jan_30_1218,searchDisc5,2021.2.3,59.96200723146965,
images/exp2a_trial_259_colour1_distractors19_r.png,r,3,1,19,0,,,,,0,212,212,212,,,,,,,,,,,,,,,,,,,,,,,,,,,,,,,,,,,,,,,,,,,464.60285331099294,None,2,0.15431661094771698,464.60285331099294,None,,,,,,,,,,,,,,,,None,None,None,,None,None,464.80253493698547,None,3,1,0.7872580820112489,464.80253493698547,None,465.5859271534835,None,None,None,None,,35,001,2023_Jan_30_1218,searchDisc5,2021.2.3,59.96200723146965,
images/exp2c_trial_259_colour1_distractors19_r.png,r,3,1,19,0,,,,,0,213,213,213,,,,,,,,,,,,,,,,,,,,,,,,,,,,,,,,,,,,,,,,,,,465.6029226810206,None,2,0.20656741998391226,465.6029226810206,None,,,,,,,,,,,,,,,,None,None,None,,None,None,465.85236654098844,None,3,1,0.5513231390505098,465.85236654098844,None,466.4023556884611,None,None,None,None,,35,001,2023_Jan_30_1218,searchDisc5,2021.2.3,59.96200723146965,
images/exp2b_trial_84_colour2_distractors1_l.png,l,1,2,1,0,,,,,0,214,214,214,,,,,,,,,,,,,,,,,,,,,,,,,,,,,,,,,,,,,,,,,,,466.4188814939698,None,2,0.2062710410100408,466.4188814939698,None,,,,,,,,,,,,,,,,None,None,None,,None,None,466.6719178399653,None,1,1,0.5542998269665986,466.6719178399653,None,467.21917840746465,None,None,None,None,,35,001,2023_Jan_30_1218,searchDisc5,2021.2.3,59.96200723146965,
images/exp2b_trial_223_colour0_distractors0_l.png,l,1,0,0,0,,,,,0,215,215,215,,,,,,,,,,,,,,,,,,,,,,,,,,,,,,,,,,,,,,,,,,,467.2350052410038,None,2,0.187747540010605,467.2350052410038,None,,,,,,,,,,,,,,,,None,None,None,,None,None,467.4712238020147,None,1,1,0.6064918200136162,467.4712238020147,None,468.0692418714869,None,None,None,None,,35,001,2023_Jan_30_1218,searchDisc5,2021.2.3,59.96200723146965,
images/exp1a_trial_164_colour1_distractors31_r.png,r,3,1,31,0,,,,,0,216,216,216,,,,,,,,,,,,,,,,,,,,,,,,,,,,,,,,,,,,,,,,,,,468.08481046697125,None,2,0.17091593600343913,468.08481046697125,None,,,,,,,,,,,,,,,,None,None,None,,None,None,468.3052510069683,None,3,1,1.3501816309872083,468.3052510069683,None,469.65260046151235,None,None,None,None,,35,001,2023_Jan_30_1218,searchDisc5,2021.2.3,59.96200723146965,
images/exp2c_trial_319_colour0_distractors0_l.png,l,1,0,0,0,,,,,0,217,217,217,,,,,,,,,,,,,,,,,,,,,,,,,,,,,,,,,,,,,,,,,,,469.6719973119907,None,2,0.17535942699760199,469.6719973119907,None,,,,,,,,,,,,,,,,None,None,None,,None,None,469.8880336059956,None,1,1,0.8352283780113794,469.8880336059956,None,470.71924000746804,None,None,None,None,,35,001,2023_Jan_30_1218,searchDisc5,2021.2.3,59.96200723146965,
images/exp2a_trial_218_colour3_distractors4_l.png,l,1,3,4,0,,,,,0,218,218,218,,,,,,,,,,,,,,,,,,,,,,,,,,,,,,,,,,,,,,,,,,,470.73568466102006,None,2,0.13857912202365696,470.73568466102006,None,,,,,,,,,,,,,,,,None,None,None,,None,None,470.9218668200192,None,1,1,0.6060434219543822,470.9218668200192,None,471.5192507234868,None,None,None,None,,35,001,2023_Jan_30_1218,searchDisc5,2021.2.3,59.96200723146965,
images/exp1a_trial_251_colour3_distractors9_l.png,l,1,3,9,0,,,,,0,219,219,219,,,,,,,,,,,,,,,,,,,,,,,,,,,,,,,,,,,,,,,,,,,471.53546330699464,None,2,0.1378112750244327,471.53546330699464,None,,,,,,,,,,,,,,,,None,None,None,,None,None,471.7197578569758,None,1,1,0.6539597079972737,471.7197578569758,None,472.3692832894856,None,None,None,None,,35,001,2023_Jan_30_1218,searchDisc5,2021.2.3,59.96200723146965,
images/exp2b_trial_213_colour2_distractors4_l.png,l,1,2,4,0,,,,,0,220,220,220,,,,,,,,,,,,,,,,,,,,,,,,,,,,,,,,,,,,,,,,,,,472.3849396620062,None,2,0.13780754897743464,472.3849396620062,None,,,,,,,,,,,,,,,,None,None,None,,None,None,472.5692666720133,None,1,1,0.655903220991604,472.5692666720133,None,473.219235782465,None,None,None,None,,35,001,2023_Jan_30_1218,searchDisc5,2021.2.3,59.96200723146965,
images/exp2b_trial_210_colour1_distractors19_l.png,l,1,1,19,0,,,,,0,221,221,221,,,,,,,,,,,,,,,,,,,,,,,,,,,,,,,,,,,,,,,,,,,473.2350138669717,None,2,0.12100376596208662,473.2350138669717,None,,,,,,,,,,,,,,,,None,None,None,,None,None,473.40268225298496,None,1,1,0.8209496900090016,473.40268225298496,None,474.21929553449155,None,None,None,None,,35,001,2023_Jan_30_1218,searchDisc5,2021.2.3,59.96200723146965,
images/exp2a_trial_227_colour1_distractors19_r.png,r,3,1,19,0,,,,,0,222,222,222,,,,,,,,,,,,,,,,,,,,,,,,,,,,,,,,,,,,,,,,,,,474.2365731279715,None,2,0.13767890201415867,474.2365731279715,None,,,,,,,,,,,,,,,,None,None,None,,None,None,474.4193831469747,None,3,1,0.6711774800205603,474.4193831469747,None,475.0872134805075,None,None,None,None,,35,001,2023_Jan_30_1218,searchDisc5,2021.2.3,59.96200723146965,
images/exp2a_trial_239_colour1_distractors1_l.png,l,1,1,1,0,,,,,0,223,223,223,,,,,,,,,,,,,,,,,,,,,,,,,,,,,,,,,,,,,,,,,,,475.10329992498737,None,2,0.1886424080003053,475.10329992498737,None,,,,,,,,,,,,,,,,None,None,None,,None,None,475.3381065399735,None,3,0,0.5380312239867635,475.3381065399735,None,475.869322762487,None,None,None,None,,35,001,2023_Jan_30_1218,searchDisc5,2021.2.3,59.96200723146965,
images/exp2a_trial_258_colour1_distractors9_r.png,r,3,1,9,0,,,,,0,224,224,224,,,,,,,,,,,,,,,,,,,,,,,,,,,,,,,,,,,,,,,,,,,475.88659742701566,None,2,0.9881031139520928,475.88659742701566,None,,,,,,,,,,,,,,,,None,None,None,,None,None,476.9202224200126,None,3,1,0.6710602109669708,476.9202224200126,None,477.5860602234723,None,None,None,None,,35,001,2023_Jan_30_1218,searchDisc5,2021.2.3,59.96200723146965,
