ImageFile,targ_side,correctAnswer,colour,distNo,targetType,trials_2.thisRepN,trials_2.thisTrialN,trials_2.thisN,trials_2.thisIndex,trials.thisRepN,trials.thisTrialN,trials.thisN,trials.thisIndex,text_6.started,text_6.stopped,buttonBox.keys,buttonBox.rt,buttonBox.started,buttonBox.stopped,text_7.started,text_7.stopped,buttonBox_3.keys,buttonBox_3.rt,buttonBox_3.started,buttonBox_3.stopped,text_8.started,text_8.stopped,buttonBox_4.keys,buttonBox_4.rt,buttonBox_4.started,buttonBox_4.stopped,text_9.started,text_9.stopped,buttonBox_5.keys,buttonBox_5.rt,buttonBox_5.started,buttonBox_5.stopped,text_2.started,text_2.stopped,buttonBox_6.keys,buttonBox_6.rt,buttonBox_6.started,buttonBox_6.stopped,text_5.started,text_5.stopped,buttonBox_7.keys,buttonBox_7.rt,image_2.started,image_2.stopped,image_3.started,image_3.stopped,buttonBox_8.keys,buttonBox_8.rt,buttonBox_8.started,buttonBox_8.stopped,polygon.started,polygon.stopped,buttonBox_9.keys,buttonBox_9.rt,buttonBox_9.started,buttonBox_9.stopped,image.started,image.stopped,buttonBox_10.keys,buttonBox_10.corr,buttonBox_10.rt,buttonBox_10.started,buttonBox_10.stopped,text_4.started,text_4.stopped,text.started,text.stopped,buttonBox_11.keys,buttonBox_11.rt,buttonBox_11.started,buttonBox_11.stopped,targetTypeInstruction.started,targetTypeInstruction.stopped,buttonBox_2.keys,buttonBox_2.rt,buttonBox_2.started,buttonBox_2.stopped,dispStimuli.started,dispStimuli.stopped,buttonBox_12.keys,buttonBox_12.corr,buttonBox_12.rt,buttonBox_12.started,buttonBox_12.stopped,breakMessage.started,breakMessage.stopped,buttonBox_13.keys,buttonBox_13.started,buttonBox_13.stopped,buttonBox_13.rt,participant,session,date,expName,psychopyVersion,frameRate,
,,,,,,,,,,,,,,11.685212659009267,None,2,48.11103883897886,11.685212659009267,None,,,,,,,,,,,,,,,,,,,,,,,,,,,,,,,,,,,,,,,,,,,,,,,,,,,,,,,,,,,,,,,,,,,,,,,,,,,,,36,001,2023_Jan_30_1325,searchDisc5,2021.2.3,59.640377360177204,
,,,,,,,,,,,,,,,,,,,,59.78391811804613,None,2,51.90109699702589,59.78391811804613,None,,,,,,,,,,,,,,,,,,,,,,,,,,,,,,,,,,,,,,,,,,,,,,,,,,,,,,,,,,,,,,,,,,,,,,,36,001,2023_Jan_30_1325,searchDisc5,2021.2.3,59.640377360177204,
,,,,,,,,,,,,,,,,,,,,,,,,,,111.68744508904638,None,2,29.529756145027932,111.68744508904638,None,,,,,,,,,,,,,,,,,,,,,,,,,,,,,,,,,,,,,,,,,,,,,,,,,,,,,,,,,,,,,,,,,36,001,2023_Jan_30_1325,searchDisc5,2021.2.3,59.640377360177204,
,,,,,,,,,,,,,,,,,,,,,,,,,,,,,,,,141.21937050903216,None,2,14.364947137015406,141.21937050903216,None,,,,,,,,,,,,,,,,,,,,,,,,,,,,,,,,,,,,,,,,,,,,,,,,,,,,,,,,,,,36,001,2023_Jan_30_1325,searchDisc5,2021.2.3,59.640377360177204,
,,,,,,,,,,,,,,,,,,,,,,,,,,,,,,,,,,,,,,155.58653202001005,None,2,16.267268532013986,156.5718036610051,None,,,,,,,,,,,,,,,,,,,,,,,,,,,,,,,,,,,,,,,,,,,,,,,,,,,,,36,001,2023_Jan_30_1325,searchDisc5,2021.2.3,59.640377360177204,
,,,,,,,,,,,,,,,,,,,,,,,,,,,,,,,,,,,,,,,,,,,,172.8369885990396,None,2,15.881706141051836,,,,,,,,,,,,,,,,,,,,,,,,,,,,,,,,,,,,,,,,,,,,,,,,,36,001,2023_Jan_30_1325,searchDisc5,2021.2.3,59.640377360177204,
,,,,,,,,,,,,,,,,,,,,,,,,,,,,,,,,,,,,,,,,,,,,,,,,191.72272566804895,None,191.72272566804895,None,2,19.333773566002492,191.72272566804895,None,,,,,,,,,,,,,,,,,,,,,,,,,,,,,,,,,,,,,,,,,36,001,2023_Jan_30_1325,searchDisc5,2021.2.3,59.640377360177204,
Practice arrays/exp1a_trial_25_colour3_distractors1_l.png,l,1,,,,0,0,0,11,,,,,,,,,,,,,,,,,,,,,,,,,,,,,,,,,,,,,,,,,,,,,,,211.08981887600385,None,2,329.4604989690124,211.08981887600385,None,540.5993535530288,545.6149547850364,1,1,5.459303336974699,540.5993535530288,None,546.0492153550149,None,,,,,,,,,,,,,,,,,,,,,,,,,,36,001,2023_Jan_30_1325,searchDisc5,2021.2.3,59.640377360177204,
Practice arrays/exp1a_trial_16_colour1_distractors4_l.png,l,1,,,,0,1,1,13,,,,,,,,,,,,,,,,,,,,,,,,,,,,,,,,,,,,,,,,,,,,,,,548.0494806080242,None,2,3.6480459670419805,548.0494806080242,None,551.7480910070008,None,1,1,2.2556949079735205,551.7480910070008,None,553.9982680930407,None,,,,,,,,,,,,,,,,,,,,,,,,,,36,001,2023_Jan_30_1325,searchDisc5,2021.2.3,59.640377360177204,
Practice arrays/exp1a_trial_31_colour0_distractors0_l.png,l,1,,,,0,2,2,15,,,,,,,,,,,,,,,,,,,,,,,,,,,,,,,,,,,,,,,,,,,,,,,555.9997633729945,None,2,1.063878423999995,555.9997633729945,None,557.1144978420343,None,1,1,1.6731923350016586,557.1144978420343,None,558.7818934750394,None,,,,,,,,,,,,,,,,,,,,,,,,,,36,001,2023_Jan_30_1325,searchDisc5,2021.2.3,59.640377360177204,
Practice arrays/exp1a_trial_18_colour1_distractors19_l.png,l,1,,,,0,3,3,8,,,,,,,,,,,,,,,,,,,,,,,,,,,,,,,,,,,,,,,,,,,,,,,560.7829737600405,None,2,1.647007036022842,560.7829737600405,None,562.4814401890035,None,1,1,2.91532869101502,562.4814401890035,None,565.3988836200442,None,,,,,,,,,,,,,,,,,,,,,,,,,,36,001,2023_Jan_30_1325,searchDisc5,2021.2.3,59.640377360177204,
Practice arrays/exp1a_trial_0_colour1_distractors1_r.png,r,3,,,,0,4,4,0,,,,,,,,,,,,,,,,,,,,,,,,,,,,,,,,,,,,,,,,,,,,,,,567.3999319190043,None,2,0.5636561210267246,567.3999319190043,None,568.0153076440329,None,3,1,1.9753454050514847,568.0153076440329,None,569.9842987339944,None,,,,,,,,,,,,,,,,,,,,,,,,,,36,001,2023_Jan_30_1325,searchDisc5,2021.2.3,59.640377360177204,
Practice arrays/exp1a_trial_30_colour0_distractors0_r.png,r,3,,,,0,5,5,14,,,,,,,,,,,,,,,,,,,,,,,,,,,,,,,,,,,,,,,,,,,,,,,571.9834995500278,None,2,1.0971994810388424,571.9834995500278,None,573.1326012480422,None,3,1,1.4571584250079468,573.1326012480422,None,574.5824086990324,None,,,,,,,,,,,,,,,,,,,,,,,,,,36,001,2023_Jan_30_1325,searchDisc5,2021.2.3,59.640377360177204,
Practice arrays/exp1a_trial_21_colour2_distractors4_l.png,l,1,,,,0,6,6,9,,,,,,,,,,,,,,,,,,,,,,,,,,,,,,,,,,,,,,,,,,,,,,,576.5834965770482,None,2,2.23248315701494,576.5834965770482,None,578.8661199140479,None,1,1,2.285316359018907,578.8661199140479,None,581.1492667770362,None,,,,,,,,,,,,,,,,,,,,,,,,,,36,001,2023_Jan_30_1325,searchDisc5,2021.2.3,59.640377360177204,
Practice arrays/exp1a_trial_17_colour1_distractors9_l.png,l,1,,,,0,7,7,7,,,,,,,,,,,,,,,,,,,,,,,,,,,,,,,,,,,,,,,,,,,,,,,583.1504615530139,None,2,0.8489902120199986,583.1504615530139,None,584.0490832250216,None,1,1,1.820530757016968,584.0490832250216,None,585.8650350100361,None,,,,,,,,,,,,,,,,,,,,,,,,,,36,001,2023_Jan_30_1325,searchDisc5,2021.2.3,59.640377360177204,
Practice arrays/exp1a_trial_12_colour3_distractors9_r.png,r,3,,,,0,8,8,5,,,,,,,,,,,,,,,,,,,,,,,,,,,,,,,,,,,,,,,,,,,,,,,587.8672102630371,None,2,0.914654325984884,587.8672102630371,None,588.8316547160503,None,3,1,1.5696599889779463,588.8316547160503,None,590.3986967130331,None,,,,,,,,,,,,,,,,,,,,,,,,,,36,001,2023_Jan_30_1325,searchDisc5,2021.2.3,59.640377360177204,
Practice arrays/exp1a_trial_7_colour2_distractors9_r.png,r,3,,,,0,9,9,2,,,,,,,,,,,,,,,,,,,,,,,,,,,,,,,,,,,,,,,,,,,,,,,592.4006814060267,None,2,0.9482130680116825,592.4006814060267,None,593.3992937640287,None,3,1,1.2705580199835822,593.3992937640287,None,594.6664009750239,None,,,,,,,,,,,,,,,,,,,,,,,,,,36,001,2023_Jan_30_1325,searchDisc5,2021.2.3,59.640377360177204,
Practice arrays/exp1a_trial_14_colour3_distractors31_r.png,r,3,,,,0,10,10,6,,,,,,,,,,,,,,,,,,,,,,,,,,,,,,,,,,,,,,,,,,,,,,,596.6674630540074,None,2,0.9468133730115369,596.6674630540074,None,597.6660071810475,None,3,1,2.2694496649783105,597.6660071810475,None,599.9331900590332,None,,,,,,,,,,,,,,,,,,,,,,,,,,36,001,2023_Jan_30_1325,searchDisc5,2021.2.3,59.640377360177204,
Practice arrays/exp1a_trial_10_colour3_distractors1_r.png,r,3,,,,0,11,11,4,,,,,,,,,,,,,,,,,,,,,,,,,,,,,,,,,,,,,,,,,,,,,,,601.9342913650325,None,2,1.0137163040344603,601.9342913650325,None,603.0006854819949,None,3,1,1.9725032479618676,603.0006854819949,None,604.9664288240019,None,,,,,,,,,,,,,,,,,,,,,,,,,,36,001,2023_Jan_30_1325,searchDisc5,2021.2.3,59.640377360177204,
Practice arrays/exp1a_trial_27_colour3_distractors9_l.png,l,1,,,,0,12,12,12,,,,,,,,,,,,,,,,,,,,,,,,,,,,,,,,,,,,,,,,,,,,,,,606.9678004080197,None,2,1.063952652970329,606.9678004080197,None,608.08356637205,None,1,1,1.7218038559658453,608.08356637205,None,609.7992492940393,None,,,,,,,,,,,,,,,,,,,,,,,,,,36,001,2023_Jan_30_1325,searchDisc5,2021.2.3,59.640377360177204,
Practice arrays/exp1a_trial_23_colour2_distractors19_l.png,l,1,,,,0,13,13,10,,,,,,,,,,,,,,,,,,,,,,,,,,,,,,,,,,,,,,,,,,,,,,,611.8012112340075,None,2,0.9316227259696461,611.8012112340075,None,612.7826610280317,None,1,1,1.7683570639928803,612.7826610280317,None,614.5502617480233,None,,,,,,,,,,,,,,,,,,,,,,,,,,36,001,2023_Jan_30_1325,searchDisc5,2021.2.3,59.640377360177204,
Practice arrays/exp1a_trial_1_colour1_distractors4_r.png,r,3,,,,0,14,14,1,,,,,,,,,,,,,,,,,,,,,,,,,,,,,,,,,,,,,,,,,,,,,,,616.5512657820364,None,2,0.962860848987475,616.5512657820364,None,617.5668527130038,None,3,1,1.72205847495934,617.5668527130038,None,619.2830220060423,None,,,,,,,,,,,,,,,,,,,,,,,,,,36,001,2023_Jan_30_1325,searchDisc5,2021.2.3,59.640377360177204,
Practice arrays/exp1a_trial_8_colour2_distractors19_r.png,r,3,,,,0,15,15,3,,,,,,,,,,,,,,,,,,,,,,,,,,,,,,,,,,,,,,,,,,,,,,,621.2849103650078,None,2,1.0347163239493966,621.2849103650078,None,622.3690276319976,None,3,1,1.6996403739904054,622.3690276319976,None,624.0661575400154,None,,,,,,,,,,,,,,,,,,,,,,,,,,36,001,2023_Jan_30_1325,searchDisc5,2021.2.3,59.640377360177204,
,,,,,,,,,,,,,,,,,,,,,,,,,,,,,,,,,,,,,,,,,,,,,,,,,,,,,,,,,,,,,,,,,,,,,,,626.1525715600001,None,2,17.7980911390041,627.1352485490497,None,,,,,,,,,,,,,,,,,,,,36,001,2023_Jan_30_1325,searchDisc5,2021.2.3,59.640377360177204,
images/exp2c_trial_52_colour2_distractors1_l.png,l,1,2,1,0,,,,,0,0,0,0,,,,,,,,,,,,,,,,,,,,,,,,,,,,,,,,,,,,,,,,,,,657.8503187070019,None,2,3.194928842014633,657.8503187070019,None,,,,,,,,,,,,,,,,645.5358075000113,None,2,10.332025261013769,647.5185484190006,None,661.1050711120479,None,1,1,2.9202726029907353,661.1050711120479,None,664.0342303578159,None,None,None,None,,36,001,2023_Jan_30_1325,searchDisc5,2021.2.3,59.640377360177204,
images/exp1a_trial_31_colour0_distractors0_l.png,l,1,0,0,0,,,,,0,1,1,1,,,,,,,,,,,,,,,,,,,,,,,,,,,,,,,,,,,,,,,,,,,664.0515854430269,None,2,1.8005240820348263,664.0515854430269,None,,,,,,,,,,,,,,,,None,None,None,,None,None,665.9015564740403,None,1,1,1.6074317019665614,665.9015564740403,None,667.5007540919003,None,None,None,None,,36,001,2023_Jan_30_1325,searchDisc5,2021.2.3,59.640377360177204,
images/exp1a_trial_280_colour2_distractors31_l.png,l,1,2,31,0,,,,,0,2,2,2,,,,,,,,,,,,,,,,,,,,,,,,,,,,,,,,,,,,,,,,,,,667.5179646880133,None,2,1.522151407029014,667.5179646880133,None,,,,,,,,,,,,,,,,None,None,None,,None,None,669.0868387510418,None,1,1,1.7662953279796056,669.0868387510418,None,670.8508723619277,None,None,None,None,,36,001,2023_Jan_30_1325,searchDisc5,2021.2.3,59.640377360177204,
images/exp2b_trial_91_colour3_distractors9_l.png,l,1,3,9,0,,,,,0,3,3,3,,,,,,,,,,,,,,,,,,,,,,,,,,,,,,,,,,,,,,,,,,,670.8699742600438,None,2,1.4537460620049387,670.8699742600438,None,,,,,,,,,,,,,,,,None,None,None,,None,None,672.3685672029969,None,1,1,1.6530967699945904,672.3685672029969,None,674.0195402559009,None,None,None,None,,36,001,2023_Jan_30_1325,searchDisc5,2021.2.3,59.640377360177204,
images/exp2c_trial_251_colour3_distractors9_l.png,l,1,3,9,0,,,,,0,4,4,4,,,,,,,,,,,,,,,,,,,,,,,,,,,,,,,,,,,,,,,,,,,674.0367227940005,None,2,1.4229725089971907,674.0367227940005,None,,,,,,,,,,,,,,,,None,None,None,,None,None,675.5033942000009,None,1,1,1.4141917019733228,675.5033942000009,None,676.9176589078968,None,None,None,None,,36,001,2023_Jan_30_1325,searchDisc5,2021.2.3,59.640377360177204,
images/exp2c_trial_293_colour2_distractors1_r.png,r,3,2,1,0,,,,,0,5,5,5,,,,,,,,,,,,,,,,,,,,,,,,,,,,,,,,,,,,,,,,,,,676.9341839240515,None,2,1.5346690980368294,676.9341839240515,None,,,,,,,,,,,,,,,,None,None,None,,None,None,678.5199448310304,None,3,1,1.2743153010378592,678.5199448310304,None,679.7855756319011,None,None,None,None,,36,001,2023_Jan_30_1325,searchDisc5,2021.2.3,59.640377360177204,
images/exp2c_trial_51_colour1_distractors31_l.png,l,1,1,31,0,,,,,0,6,6,6,,,,,,,,,,,,,,,,,,,,,,,,,,,,,,,,,,,,,,,,,,,679.8015113910078,None,2,1.139827030012384,679.8015113910078,None,,,,,,,,,,,,,,,,None,None,None,,None,None,680.9856244330294,None,1,1,1.2337048090412281,680.9856244330294,None,682.2181199729209,None,None,None,None,,36,001,2023_Jan_30_1325,searchDisc5,2021.2.3,59.640377360177204,
images/exp1a_trial_227_colour1_distractors19_r.png,r,3,1,19,0,,,,,0,7,7,7,,,,,,,,,,,,,,,,,,,,,,,,,,,,,,,,,,,,,,,,,,,682.2353687910363,None,2,1.204416764958296,682.2353687910363,None,,,,,,,,,,,,,,,,None,None,None,,None,None,683.4866777100251,None,3,1,1.7703812569961883,683.4866777100251,None,685.252374791901,None,None,None,None,,36,001,2023_Jan_30_1325,searchDisc5,2021.2.3,59.640377360177204,
images/exp2a_trial_159_colour0_distractors0_l.png,l,1,0,0,0,,,,,0,8,8,8,,,,,,,,,,,,,,,,,,,,,,,,,,,,,,,,,,,,,,,,,,,685.2677065400057,None,2,1.2693493280094117,685.2677065400057,None,,,,,,,,,,,,,,,,None,None,None,,None,None,686.5876790650073,None,1,1,1.2398398960358463,686.5876790650073,None,687.8181569669512,None,None,None,None,,36,001,2023_Jan_30_1325,searchDisc5,2021.2.3,59.640377360177204,
images/exp1a_trial_158_colour0_distractors0_r.png,r,3,0,0,0,,,,,0,9,9,9,,,,,,,,,,,,,,,,,,,,,,,,,,,,,,,,,,,,,,,,,,,687.8353752770345,None,2,1.3221140460227616,687.8353752770345,None,,,,,,,,,,,,,,,,None,None,None,,None,None,689.2024537740508,None,3,1,1.255763755994849,689.2024537740508,None,690.451618883945,None,None,None,None,,36,001,2023_Jan_30_1325,searchDisc5,2021.2.3,59.640377360177204,
images/exp2b_trial_23_colour2_distractors19_l.png,l,1,2,19,0,,,,,0,10,10,10,,,,,,,,,,,,,,,,,,,,,,,,,,,,,,,,,,,,,,,,,,,690.4676199550158,None,2,1.6370155060430989,690.4676199550158,None,,,,,,,,,,,,,,,,None,None,None,,None,None,692.152438426041,None,1,1,1.0511339440126903,692.152438426041,None,693.2013505658949,None,None,None,None,,36,001,2023_Jan_30_1325,searchDisc5,2021.2.3,59.640377360177204,
images/exp1a_trial_178_colour1_distractors19_l.png,l,1,1,19,0,,,,,0,11,11,11,,,,,,,,,,,,,,,,,,,,,,,,,,,,,,,,,,,,,,,,,,,693.2179947120021,None,2,1.088006045029033,693.2179947120021,None,,,,,,,,,,,,,,,,None,None,None,,None,None,694.3521163700498,None,1,1,1.1709963980247267,694.3521163700498,None,695.5193786998977,None,None,None,None,,36,001,2023_Jan_30_1325,searchDisc5,2021.2.3,59.640377360177204,
images/exp2a_trial_85_colour2_distractors4_l.png,l,1,2,4,0,,,,,0,12,12,12,,,,,,,,,,,,,,,,,,,,,,,,,,,,,,,,,,,,,,,,,,,695.5347750880173,None,2,1.1861912950407714,695.5347750880173,None,,,,,,,,,,,,,,,,None,None,None,,None,None,696.7690810660133,None,1,1,1.886706588033121,696.7690810660133,None,698.6517203709343,None,None,None,None,,36,001,2023_Jan_30_1325,searchDisc5,2021.2.3,59.640377360177204,
images/exp2c_trial_205_colour3_distractors19_r.png,r,3,3,19,0,,,,,0,13,13,13,,,,,,,,,,,,,,,,,,,,,,,,,,,,,,,,,,,,,,,,,,,698.6689559960505,None,2,1.1544691490125842,698.6689559960505,None,,,,,,,,,,,,,,,,None,None,None,,None,None,699.8689034960116,None,3,1,2.1869890129892156,699.8689034960116,None,702.0517255549319,None,None,None,None,,36,001,2023_Jan_30_1325,searchDisc5,2021.2.3,59.640377360177204,
images/exp1a_trial_286_colour0_distractors0_r.png,r,3,0,0,0,,,,,0,14,14,14,,,,,,,,,,,,,,,,,,,,,,,,,,,,,,,,,,,,,,,,,,,702.0688951440388,None,2,1.004800372000318,702.0688951440388,None,,,,,,,,,,,,,,,,None,None,None,,None,None,703.1186974160373,None,3,1,1.1857144859968685,703.1186974160373,None,704.3012782399426,None,None,None,None,,36,001,2023_Jan_30_1325,searchDisc5,2021.2.3,59.640377360177204,
images/exp2b_trial_210_colour1_distractors19_l.png,l,1,1,19,0,,,,,0,15,15,15,,,,,,,,,,,,,,,,,,,,,,,,,,,,,,,,,,,,,,,,,,,704.3193826250499,None,2,0.9247632439946756,704.3193826250499,None,,,,,,,,,,,,,,,,None,None,None,,None,None,705.2880429100478,None,1,1,1.401579963043332,705.2880429100478,None,706.6853977039107,None,None,None,None,,36,001,2023_Jan_30_1325,searchDisc5,2021.2.3,59.640377360177204,
images/exp1a_trial_134_colour2_distractors4_r.png,r,3,2,4,0,,,,,0,16,16,16,,,,,,,,,,,,,,,,,,,,,,,,,,,,,,,,,,,,,,,,,,,706.7027098360122,None,2,1.0374844379839487,706.7027098360122,None,,,,,,,,,,,,,,,,None,None,None,,None,None,707.7881539670052,None,3,1,1.121114548004698,707.7881539670052,None,708.9020165799418,None,None,None,None,,36,001,2023_Jan_30_1325,searchDisc5,2021.2.3,59.640377360177204,
images/exp2c_trial_70_colour2_distractors4_r.png,r,3,2,4,0,,,,,0,17,17,17,,,,,,,,,,,,,,,,,,,,,,,,,,,,,,,,,,,,,,,,,,,708.9193229780067,None,2,1.188631636032369,708.9193229780067,None,,,,,,,,,,,,,,,,None,None,None,,None,None,710.1520527990069,None,3,1,1.2045355159789324,710.1520527990069,None,711.3520551069057,None,None,None,None,,36,001,2023_Jan_30_1325,searchDisc5,2021.2.3,59.640377360177204,
images/exp2c_trial_204_colour3_distractors9_r.png,r,3,3,9,0,,,,,0,18,18,18,,,,,,,,,,,,,,,,,,,,,,,,,,,,,,,,,,,,,,,,,,,711.3685711820144,None,2,0.9430063350009732,711.3685711820144,None,,,,,,,,,,,,,,,,None,None,None,,None,None,712.3549148540478,None,3,1,1.1817291720071808,712.3549148540478,None,713.5353989599505,None,None,None,None,,36,001,2023_Jan_30_1325,searchDisc5,2021.2.3,59.640377360177204,
images/exp1a_trial_187_colour3_distractors9_l.png,l,1,3,9,0,,,,,0,19,19,19,,,,,,,,,,,,,,,,,,,,,,,,,,,,,,,,,,,,,,,,,,,713.5530429610517,None,2,0.9707072179880925,713.5530429610517,None,,,,,,,,,,,,,,,,None,None,None,,None,None,714.5696912940475,None,1,1,0.9358084090054035,714.5696912940475,None,715.5022572709247,None,None,None,None,,36,001,2023_Jan_30_1325,searchDisc5,2021.2.3,59.640377360177204,
images/exp2a_trial_249_colour3_distractors1_l.png,l,1,3,1,0,,,,,0,20,20,20,,,,,,,,,,,,,,,,,,,,,,,,,,,,,,,,,,,,,,,,,,,715.5186961750151,None,2,0.903857967001386,715.5186961750151,None,,,,,,,,,,,,,,,,None,None,None,,None,None,716.4688941150089,None,1,1,0.9392087470041588,716.4688941150089,None,717.4023392659262,None,None,None,None,,36,001,2023_Jan_30_1325,searchDisc5,2021.2.3,59.640377360177204,
images/exp2b_trial_116_colour2_distractors1_l.png,l,1,2,1,0,,,,,0,21,21,21,,,,,,,,,,,,,,,,,,,,,,,,,,,,,,,,,,,,,,,,,,,717.4187225080095,None,2,0.9411971959634684,717.4187225080095,None,,,,,,,,,,,,,,,,None,None,None,,None,None,718.4046870020102,None,1,1,1.053931956004817,718.4046870020102,None,719.4534534479142,None,None,None,None,,36,001,2023_Jan_30_1325,searchDisc5,2021.2.3,59.640377360177204,
images/exp2a_trial_105_colour2_distractors31_r.png,r,3,2,31,0,,,,,0,22,22,22,,,,,,,,,,,,,,,,,,,,,,,,,,,,,,,,,,,,,,,,,,,719.4696387849981,None,2,0.8532128660008311,719.4696387849981,None,,,,,,,,,,,,,,,,None,None,None,,None,None,720.3731414140202,None,3,1,1.19579872302711,720.3731414140202,None,721.5690438269055,None,None,None,None,,36,001,2023_Jan_30_1325,searchDisc5,2021.2.3,59.640377360177204,
images/exp2b_trial_265_colour2_distractors31_r.png,r,3,2,31,0,,,,,0,23,23,23,,,,,,,,,,,,,,,,,,,,,,,,,,,,,,,,,,,,,,,,,,,721.5864422250306,None,2,0.7718962040380575,721.5864422250306,None,,,,,,,,,,,,,,,,None,None,None,,None,None,722.4043957749964,None,3,1,1.0187406209879555,722.4043957749964,None,723.4191771789453,None,None,None,None,,36,001,2023_Jan_30_1325,searchDisc5,2021.2.3,59.640377360177204,
images/exp2c_trial_184_colour2_distractors31_l.png,l,1,2,31,0,,,,,0,24,24,24,,,,,,,,,,,,,,,,,,,,,,,,,,,,,,,,,,,,,,,,,,,723.4357808119967,None,2,1.02250212803483,723.4357808119967,None,,,,,,,,,,,,,,,,None,None,None,,None,None,724.503559336008,None,1,1,0.9843758069910109,724.503559336008,None,725.4857436888967,None,None,None,None,,36,001,2023_Jan_30_1325,searchDisc5,2021.2.3,59.640377360177204,
images/exp2b_trial_164_colour1_distractors31_r.png,r,3,1,31,0,,,,,0,25,25,25,,,,,,,,,,,,,,,,,,,,,,,,,,,,,,,,,,,,,,,,,,,725.5049995150184,None,2,0.8902226510108449,725.5049995150184,None,,,,,,,,,,,,,,,,None,None,None,,None,None,726.4378803170403,None,3,1,1.1339607689878903,726.4378803170403,None,727.5692390739102,None,None,None,None,,36,001,2023_Jan_30_1325,searchDisc5,2021.2.3,59.640377360177204,
images/exp1a_trial_243_colour1_distractors31_l.png,l,1,1,31,0,,,,,0,26,26,26,,,,,,,,,,,,,,,,,,,,,,,,,,,,,,,,,,,,,,,,,,,727.5862515410408,None,2,0.7880378009867854,727.5862515410408,None,,,,,,,,,,,,,,,,None,None,None,,None,None,728.418971105013,None,1,1,0.9834374050260521,728.418971105013,None,729.4025999909034,None,None,None,None,,36,001,2023_Jan_30_1325,searchDisc5,2021.2.3,59.640377360177204,
images/exp2b_trial_147_colour1_distractors31_l.png,l,1,1,31,0,,,,,0,27,27,27,,,,,,,,,,,,,,,,,,,,,,,,,,,,,,,,,,,,,,,,,,,729.4189779980225,None,2,0.8705214479705319,729.4189779980225,None,,,,,,,,,,,,,,,,None,None,None,,None,None,730.3383792990353,None,1,1,1.1205025259987451,730.3383792990353,None,731.4525992349488,None,None,None,None,,36,001,2023_Jan_30_1325,searchDisc5,2021.2.3,59.640377360177204,
images/exp2b_trial_287_colour0_distractors0_l.png,l,1,0,0,0,,,,,0,28,28,28,,,,,,,,,,,,,,,,,,,,,,,,,,,,,,,,,,,,,,,,,,,731.4695582510321,None,2,0.8379503500182182,731.4695582510321,None,,,,,,,,,,,,,,,,None,None,None,,None,None,732.354724290024,None,1,1,0.8898432879941538,732.354724290024,None,733.2360286348965,None,None,None,None,,36,001,2023_Jan_30_1325,searchDisc5,2021.2.3,59.640377360177204,
images/exp2a_trial_166_colour2_distractors4_r.png,r,3,2,4,0,,,,,0,29,29,29,,,,,,,,,,,,,,,,,,,,,,,,,,,,,,,,,,,,,,,,,,,733.2532173640211,None,2,0.9231516410363838,733.2532173640211,None,,,,,,,,,,,,,,,,None,None,None,,None,None,734.2220280540059,None,3,1,1.1026057080016471,734.2220280540059,None,735.3205441169091,None,None,None,None,,36,001,2023_Jan_30_1325,searchDisc5,2021.2.3,59.640377360177204,
images/exp2b_trial_257_colour1_distractors4_r.png,r,3,1,4,0,,,,,0,30,30,30,,,,,,,,,,,,,,,,,,,,,,,,,,,,,,,,,,,,,,,,,,,735.3360199370072,None,2,0.7036144270095974,735.3360199370072,None,,,,,,,,,,,,,,,,None,None,None,,None,None,736.0859487029957,None,3,1,0.972033875004854,736.0859487029957,None,737.0525003599003,None,None,None,None,,36,001,2023_Jan_30_1325,searchDisc5,2021.2.3,59.640377360177204,
images/exp2b_trial_183_colour2_distractors19_l.png,l,1,2,19,0,,,,,0,31,31,31,,,,,,,,,,,,,,,,,,,,,,,,,,,,,,,,,,,,,,,,,,,737.0694907699944,None,2,0.8550479600089602,737.0694907699944,None,,,,,,,,,,,,,,,,None,None,None,,None,None,737.9701549280435,None,1,1,1.0048235629801638,737.9701549280435,None,738.9706340999226,None,None,None,None,,36,001,2023_Jan_30_1325,searchDisc5,2021.2.3,59.640377360177204,
images/exp1a_trial_101_colour2_distractors1_r.png,r,3,2,1,0,,,,,0,32,32,32,,,,,,,,,,,,,,,,,,,,,,,,,,,,,,,,,,,,,,,,,,,738.9862056990387,None,2,0.8040505870012566,738.9862056990387,None,,,,,,,,,,,,,,,,None,None,None,,None,None,739.8383460380137,None,3,1,1.1049285299959593,739.8383460380137,None,740.9364234439097,None,None,None,None,,36,001,2023_Jan_30_1325,searchDisc5,2021.2.3,59.640377360177204,
images/exp2a_trial_83_colour1_distractors31_l.png,l,1,1,31,0,,,,,0,33,33,33,,,,,,,,,,,,,,,,,,,,,,,,,,,,,,,,,,,,,,,,,,,740.9526866450324,None,2,0.837813915044535,740.9526866450324,None,,,,,,,,,,,,,,,,None,None,None,,None,None,741.8359552239999,None,1,1,1.2714713590103202,741.8359552239999,None,743.1026524138986,None,None,None,None,,36,001,2023_Jan_30_1325,searchDisc5,2021.2.3,59.640377360177204,
images/exp1a_trial_167_colour2_distractors9_r.png,r,3,2,9,0,,,,,0,34,34,34,,,,,,,,,,,,,,,,,,,,,,,,,,,,,,,,,,,,,,,,,,,743.1214525920223,None,2,0.82032442901982,743.1214525920223,None,,,,,,,,,,,,,,,,None,None,None,,None,None,743.9883268650156,None,3,1,1.15478585800156,743.9883268650156,None,745.1384503109264,None,None,None,None,,36,001,2023_Jan_30_1325,searchDisc5,2021.2.3,59.640377360177204,
images/exp1a_trial_276_colour2_distractors1_l.png,l,1,2,1,0,,,,,0,35,35,35,,,,,,,,,,,,,,,,,,,,,,,,,,,,,,,,,,,,,,,,,,,745.1556412430364,None,2,0.8188908610027283,745.1556412430364,None,,,,,,,,,,,,,,,,None,None,None,,None,None,746.0197263919981,None,1,1,0.8388745219563134,746.0197263919981,None,746.853027577931,None,None,None,None,,36,001,2023_Jan_30_1325,searchDisc5,2021.2.3,59.640377360177204,
images/exp2c_trial_96_colour1_distractors1_r.png,r,3,1,1,0,,,,,0,36,36,36,,,,,,,,,,,,,,,,,,,,,,,,,,,,,,,,,,,,,,,,,,,746.8702032419969,None,2,0.8390098880045116,746.8702032419969,None,,,,,,,,,,,,,,,,None,None,None,,None,None,747.7554213610128,None,3,1,1.0392146059894003,747.7554213610128,None,748.7875735989189,None,None,None,None,,36,001,2023_Jan_30_1325,searchDisc5,2021.2.3,59.640377360177204,
images/exp1a_trial_100_colour1_distractors31_r.png,r,3,1,31,0,,,,,0,37,37,37,,,,,,,,,,,,,,,,,,,,,,,,,,,,,,,,,,,,,,,,,,,748.8028865480446,None,2,0.6701666470034979,748.8028865480446,None,,,,,,,,,,,,,,,,None,None,None,,None,None,749.5208540710155,None,3,1,1.7177996989921667,749.5208540710155,None,751.2376158249215,None,None,None,None,,36,001,2023_Jan_30_1325,searchDisc5,2021.2.3,59.640377360177204,
images/exp2c_trial_76_colour3_distractors9_r.png,r,3,3,9,0,,,,,0,38,38,38,,,,,,,,,,,,,,,,,,,,,,,,,,,,,,,,,,,,,,,,,,,751.2530482250149,None,2,0.7731533109908924,751.2530482250149,None,,,,,,,,,,,,,,,,None,None,None,,None,None,752.0719619400334,None,3,1,1.1692447499954142,752.0719619400334,None,753.2365440699039,None,None,None,None,,36,001,2023_Jan_30_1325,searchDisc5,2021.2.3,59.640377360177204,
images/exp1a_trial_98_colour1_distractors9_r.png,r,3,1,9,0,,,,,0,39,39,39,,,,,,,,,,,,,,,,,,,,,,,,,,,,,,,,,,,,,,,,,,,753.2531357050175,None,2,0.7695973190129735,753.2531357050175,None,,,,,,,,,,,,,,,,None,None,None,,None,None,754.0708156820037,None,3,1,1.2036269579548389,754.0708156820037,None,755.2693425458972,None,None,None,None,,36,001,2023_Jan_30_1325,searchDisc5,2021.2.3,59.640377360177204,
images/exp2c_trial_226_colour1_distractors9_r.png,r,3,1,9,0,,,,,0,40,40,40,,,,,,,,,,,,,,,,,,,,,,,,,,,,,,,,,,,,,,,,,,,755.2863289460074,None,2,0.6718688270193525,755.2863289460074,None,,,,,,,,,,,,,,,,None,None,None,,None,None,756.0027996440185,None,3,1,1.0204331579734571,756.0027996440185,None,757.0195247209165,None,None,None,None,,36,001,2023_Jan_30_1325,searchDisc5,2021.2.3,59.640377360177204,
images/exp1a_trial_206_colour3_distractors31_r.png,r,3,3,31,0,,,,,0,41,41,41,,,,,,,,,,,,,,,,,,,,,,,,,,,,,,,,,,,,,,,,,,,757.0366929850425,None,2,0.7559172259643674,757.0366929850425,None,,,,,,,,,,,,,,,,None,None,None,,None,None,757.8394578520092,None,3,1,0.9681055580149405,757.8394578520092,None,758.8034760299022,None,None,None,None,,36,001,2023_Jan_30_1325,searchDisc5,2021.2.3,59.640377360177204,
images/exp1a_trial_299_colour3_distractors4_r.png,r,3,3,4,0,,,,,0,42,42,42,,,,,,,,,,,,,,,,,,,,,,,,,,,,,,,,,,,,,,,,,,,758.8198711920413,None,2,0.6528823400149122,758.8198711920413,None,,,,,,,,,,,,,,,,None,None,None,,None,None,759.5204883770202,None,3,1,0.9542929760063998,759.5204883770202,None,760.4701183339464,None,None,None,None,,36,001,2023_Jan_30_1325,searchDisc5,2021.2.3,59.640377360177204,
images/exp2c_trial_95_colour0_distractors0_l.png,l,1,0,0,0,,,,,0,43,43,43,,,,,,,,,,,,,,,,,,,,,,,,,,,,,,,,,,,,,,,,,,,760.4874061320443,None,2,0.6377276700222865,760.4874061320443,None,,,,,,,,,,,,,,,,None,None,None,,None,None,761.1702367050457,None,1,1,0.9726922739646398,761.1702367050457,None,762.1366218238952,None,None,None,None,,36,001,2023_Jan_30_1325,searchDisc5,2021.2.3,59.640377360177204,
images/exp2b_trial_99_colour1_distractors19_r.png,r,3,1,19,0,,,,,0,44,44,44,,,,,,,,,,,,,,,,,,,,,,,,,,,,,,,,,,,,,,,,,,,762.15351164405,None,2,0.5723094560089521,762.15351164405,None,,,,,,,,,,,,,,,,None,None,None,,None,None,762.7719416970504,None,3,1,1.2696377580286935,762.7719416970504,None,764.0370338409091,None,None,None,None,,36,001,2023_Jan_30_1325,searchDisc5,2021.2.3,59.640377360177204,
images/exp1a_trial_217_colour3_distractors1_l.png,l,1,3,1,0,,,,,0,45,45,45,,,,,,,,,,,,,,,,,,,,,,,,,,,,,,,,,,,,,,,,,,,764.054291367007,None,2,0.7717219149926677,764.054291367007,None,,,,,,,,,,,,,,,,None,None,None,,None,None,764.872052515042,None,1,1,0.854775087966118,764.872052515042,None,765.720256579935,None,None,None,None,,36,001,2023_Jan_30_1325,searchDisc5,2021.2.3,59.640377360177204,
images/exp2a_trial_156_colour3_distractors19_l.png,l,1,3,19,0,,,,,0,46,46,46,,,,,,,,,,,,,,,,,,,,,,,,,,,,,,,,,,,,,,,,,,,765.7369257310056,None,2,0.5714583090157248,765.7369257310056,None,,,,,,,,,,,,,,,,None,None,None,,None,None,766.3564427920501,None,1,1,1.0024283989914693,766.3564427920501,None,767.3536581959459,None,None,None,None,,36,001,2023_Jan_30_1325,searchDisc5,2021.2.3,59.640377360177204,
images/exp1a_trial_64_colour1_distractors1_r.png,r,3,1,1,0,,,,,0,47,47,47,,,,,,,,,,,,,,,,,,,,,,,,,,,,,,,,,,,,,,,,,,,767.3694439760293,None,2,0.6061705520260148,767.3694439760293,None,,,,,,,,,,,,,,,,None,None,None,,None,None,768.023070513038,None,3,1,0.8702320780139416,768.023070513038,None,768.8881414909381,None,None,None,None,,36,001,2023_Jan_30_1325,searchDisc5,2021.2.3,59.640377360177204,
images/exp2c_trial_190_colour0_distractors0_r.png,r,3,0,0,0,,,,,0,48,48,48,,,,,,,,,,,,,,,,,,,,,,,,,,,,,,,,,,,,,,,,,,,768.9034106160398,None,2,0.6210332220070995,768.9034106160398,None,,,,,,,,,,,,,,,,None,None,None,,None,None,769.5711500360048,None,3,1,1.0552303249714896,769.5711500360048,None,770.6203908278956,None,None,None,None,,36,001,2023_Jan_30_1325,searchDisc5,2021.2.3,59.640377360177204,
images/exp2c_trial_146_colour1_distractors19_l.png,l,1,1,19,0,,,,,0,49,49,49,,,,,,,,,,,,,,,,,,,,,,,,,,,,,,,,,,,,,,,,,,,770.6376720180269,None,2,0.7207861419883557,770.6376720180269,None,,,,,,,,,,,,,,,,None,None,None,,None,None,771.4069801010191,None,1,1,1.0727743210154586,771.4069801010191,None,772.470406237943,None,None,None,None,,36,001,2023_Jan_30_1325,searchDisc5,2021.2.3,59.640377360177204,
images/exp2b_trial_125_colour3_distractors31_l.png,l,1,3,31,0,,,,,0,50,50,50,,,,,,,,,,,,,,,,,,,,,,,,,,,,,,,,,,,,,,,,,,,772.4869161900133,None,2,0.6697029070346616,772.4869161900133,None,,,,,,,,,,,,,,,,None,None,None,,None,None,773.2038368810317,None,1,1,1.120834810019005,773.2038368810317,None,774.3216491799219,None,None,None,None,,36,001,2023_Jan_30_1325,searchDisc5,2021.2.3,59.640377360177204,
images/exp2c_trial_162_colour1_distractors9_r.png,r,3,1,9,0,,,,,0,51,51,51,,,,,,,,,,,,,,,,,,,,,,,,,,,,,,,,,,,,,,,,,,,774.3368389130337,None,2,0.6700927700148895,774.3368389130337,None,,,,,,,,,,,,,,,,None,None,None,,None,None,775.0545345020364,None,3,1,0.9222468850202858,775.0545345020364,None,775.9716361289145,None,None,None,None,,36,001,2023_Jan_30_1325,searchDisc5,2021.2.3,59.640377360177204,
images/exp2a_trial_47_colour1_distractors1_l.png,l,1,1,1,0,,,,,0,52,52,52,,,,,,,,,,,,,,,,,,,,,,,,,,,,,,,,,,,,,,,,,,,775.9860764070181,None,2,0.6197781219962053,775.9860764070181,None,,,,,,,,,,,,,,,,None,None,None,,None,None,776.6548569780425,None,1,1,0.9895865370053798,776.6548569780425,None,777.6372344439267,None,None,None,None,,36,001,2023_Jan_30_1325,searchDisc5,2021.2.3,59.640377360177204,
images/exp1a_trial_253_colour3_distractors31_l.png,l,1,3,31,0,,,,,0,53,53,53,,,,,,,,,,,,,,,,,,,,,,,,,,,,,,,,,,,,,,,,,,,777.6559582910268,None,2,0.5548798300442286,777.6559582910268,None,,,,,,,,,,,,,,,,None,None,None,,None,None,778.2559429490357,None,1,1,0.9173172019654885,778.2559429490357,None,779.1714803489274,None,None,None,None,,36,001,2023_Jan_30_1325,searchDisc5,2021.2.3,59.640377360177204,
images/exp1a_trial_8_colour2_distractors19_r.png,r,3,2,19,0,,,,,0,54,54,54,,,,,,,,,,,,,,,,,,,,,,,,,,,,,,,,,,,,,,,,,,,779.1869026930071,None,2,0.5213302900083363,779.1869026930071,None,,,,,,,,,,,,,,,,None,None,None,,None,None,779.7560714640422,None,3,1,1.0675909359706566,779.7560714640422,None,780.8207356499158,None,None,None,None,,36,001,2023_Jan_30_1325,searchDisc5,2021.2.3,59.640377360177204,
images/exp2a_trial_278_colour2_distractors9_l.png,l,1,2,9,0,,,,,0,55,55,55,,,,,,,,,,,,,,,,,,,,,,,,,,,,,,,,,,,,,,,,,,,780.8366520380368,None,2,0.557491067040246,780.8366520380368,None,,,,,,,,,,,,,,,,None,None,None,,None,None,781.4399237020407,None,1,1,0.9337511470075697,781.4399237020407,None,782.3707056059036,None,None,None,None,,36,001,2023_Jan_30_1325,searchDisc5,2021.2.3,59.640377360177204,
images/exp2a_trial_220_colour3_distractors19_l.png,l,1,3,19,0,,,,,0,56,56,56,,,,,,,,,,,,,,,,,,,,,,,,,,,,,,,,,,,,,,,,,,,782.389890387014,None,2,0.5855700360261835,782.389890387014,None,,,,,,,,,,,,,,,,None,None,None,,None,None,783.0210157760303,None,1,1,1.0538236949942075,783.0210157760303,None,784.0707012399332,None,None,None,None,,36,001,2023_Jan_30_1325,searchDisc5,2021.2.3,59.640377360177204,
images/exp2a_trial_179_colour1_distractors31_l.png,l,1,1,31,0,,,,,0,57,57,57,,,,,,,,,,,,,,,,,,,,,,,,,,,,,,,,,,,,,,,,,,,784.0876799580292,None,2,0.4880067090271041,784.0876799580292,None,,,,,,,,,,,,,,,,None,None,None,,None,None,784.6218781080097,None,1,1,0.9531284190015867,784.6218781080097,None,785.5708489939104,None,None,None,None,,36,001,2023_Jan_30_1325,searchDisc5,2021.2.3,59.640377360177204,
images/exp2b_trial_13_colour3_distractors19_r.png,r,3,3,19,0,,,,,0,58,58,58,,,,,,,,,,,,,,,,,,,,,,,,,,,,,,,,,,,,,,,,,,,785.5883062790381,None,2,0.5064901419682428,785.5883062790381,None,,,,,,,,,,,,,,,,None,None,None,,None,None,786.1387037740205,None,3,1,1.1520701890112832,786.1387037740205,None,787.2884716739179,None,None,None,None,,36,001,2023_Jan_30_1325,searchDisc5,2021.2.3,59.640377360177204,
images/exp2c_trial_134_colour2_distractors4_r.png,r,3,2,4,0,,,,,0,59,59,59,,,,,,,,,,,,,,,,,,,,,,,,,,,,,,,,,,,,,,,,,,,787.303957607015,None,2,0.5699803089955822,787.303957607015,None,,,,,,,,,,,,,,,,None,None,None,,None,None,787.923037954024,None,3,1,0.9054394029662944,787.923037954024,None,788.820814844931,None,None,None,None,,36,001,2023_Jan_30_1325,searchDisc5,2021.2.3,59.640377360177204,
images/exp2a_trial_104_colour2_distractors19_r.png,r,3,2,19,0,,,,,0,60,60,60,,,,,,,,,,,,,,,,,,,,,,,,,,,,,,,,,,,,,,,,,,,788.8379468230414,None,2,0.6061145429848693,788.8379468230414,None,,,,,,,,,,,,,,,,None,None,None,,None,None,789.4871730220038,None,3,1,1.1800343099748716,789.4871730220038,None,790.6709415099001,None,None,None,None,,36,001,2023_Jan_30_1325,searchDisc5,2021.2.3,59.640377360177204,
images/exp2c_trial_78_colour3_distractors31_r.png,r,3,3,31,0,,,,,0,61,61,61,,,,,,,,,,,,,,,,,,,,,,,,,,,,,,,,,,,,,,,,,,,790.6881813490181,None,2,0.4879041850217618,790.6881813490181,None,,,,,,,,,,,,,,,,None,None,None,,None,None,791.2231143480167,None,3,1,1.1027855619904585,791.2231143480167,None,792.3207878289511,None,None,None,None,,36,001,2023_Jan_30_1325,searchDisc5,2021.2.3,59.640377360177204,
images/exp1a_trial_207_colour1_distractors1_l.png,l,1,1,1,0,,,,,0,62,62,62,,,,,,,,,,,,,,,,,,,,,,,,,,,,,,,,,,,,,,,,,,,792.3380271820351,None,2,0.42527265899116173,792.3380271820351,None,,,,,,,,,,,,,,,,None,None,None,,None,None,792.8056875350303,None,1,1,1.333370380976703,792.8056875350303,None,794.1385575829306,None,None,None,None,,36,001,2023_Jan_30_1325,searchDisc5,2021.2.3,59.640377360177204,
images/exp2a_trial_38_colour2_distractors4_r.png,r,3,2,4,0,,,,,0,63,63,63,,,,,,,,,,,,,,,,,,,,,,,,,,,,,,,,,,,,,,,,,,,794.1540558720008,None,2,0.43707728502340615,794.1540558720008,None,,,,,,,,,,,,,,,,None,None,None,,None,None,794.6398218430113,None,3,1,0.953661578008905,794.6398218430113,None,795.5876700069173,None,None,None,None,,36,001,2023_Jan_30_1325,searchDisc5,2021.2.3,59.640377360177204,
images/exp2b_trial_69_colour2_distractors1_r.png,r,3,2,1,0,,,,,0,64,64,64,,,,,,,,,,,,,,,,,,,,,,,,,,,,,,,,,,,,,,,,,,,795.6042055489961,None,2,0.42241125501459464,795.6042055489961,None,,,,,,,,,,,,,,,,None,None,None,,None,None,796.0735439330456,None,3,1,0.9544842430041172,796.0735439330456,None,797.0207218519179,None,None,None,None,,36,001,2023_Jan_30_1325,searchDisc5,2021.2.3,59.640377360177204,
images/exp2b_trial_128_colour1_distractors1_r.png,r,3,1,1,0,,,,,0,65,65,65,,,,,,,,,,,,,,,,,,,,,,,,,,,,,,,,,,,,,,,,,,,797.0379836060456,None,2,0.5047555830096826,797.0379836060456,None,,,,,,,,,,,,,,,,None,None,None,,None,None,797.5900076420512,None,3,1,0.8227295310352929,797.5900076420512,None,798.4044881879352,None,None,None,None,,36,001,2023_Jan_30_1325,searchDisc5,2021.2.3,59.640377360177204,
images/exp2c_trial_234_colour3_distractors1_r.png,r,3,3,1,0,,,,,0,66,66,66,,,,,,,,,,,,,,,,,,,,,,,,,,,,,,,,,,,,,,,,,,,798.4210299220285,None,2,0.5056493239826523,798.4210299220285,None,,,,,,,,,,,,,,,,None,None,None,,None,None,798.9713525400148,None,3,1,0.7051581570412964,798.9713525400148,None,799.6712641149177,None,None,None,None,,36,001,2023_Jan_30_1325,searchDisc5,2021.2.3,59.640377360177204,
images/exp2a_trial_130_colour1_distractors9_r.png,r,3,1,9,0,,,,,0,67,67,67,,,,,,,,,,,,,,,,,,,,,,,,,,,,,,,,,,,,,,,,,,,799.688265461009,None,2,0.6563758690026589,799.688265461009,None,,,,,,,,,,,,,,,,None,None,None,,None,None,800.3882295630174,None,3,1,0.8527026219526306,800.3882295630174,None,801.2378847349435,None,None,None,None,,36,001,2023_Jan_30_1325,searchDisc5,2021.2.3,59.640377360177204,
images/exp2a_trial_242_colour1_distractors19_l.png,l,1,1,19,0,,,,,0,68,68,68,,,,,,,,,,,,,,,,,,,,,,,,,,,,,,,,,,,,,,,,,,,801.2551863340195,None,2,0.48866992100374773,801.2551863340195,None,,,,,,,,,,,,,,,,None,None,None,,None,None,801.7907599800383,None,1,1,0.9022916529793292,801.7907599800383,None,802.6878939179121,None,None,None,None,,36,001,2023_Jan_30_1325,searchDisc5,2021.2.3,59.640377360177204,
images/exp2c_trial_155_colour3_distractors9_l.png,l,1,3,9,0,,,,,0,69,69,69,,,,,,,,,,,,,,,,,,,,,,,,,,,,,,,,,,,,,,,,,,,802.7044066710514,None,2,0.48797588201705366,802.7044066710514,None,,,,,,,,,,,,,,,,None,None,None,,None,None,803.2401259799954,None,1,1,1.3047549800248817,803.2401259799954,None,804.5378040929324,None,None,None,None,,36,001,2023_Jan_30_1325,searchDisc5,2021.2.3,59.640377360177204,
images/exp1a_trial_230_colour2_distractors4_r.png,r,3,2,4,0,,,,,0,70,70,70,,,,,,,,,,,,,,,,,,,,,,,,,,,,,,,,,,,,,,,,,,,804.5544769550324,None,2,0.4554679549764842,804.5544769550324,None,,,,,,,,,,,,,,,,None,None,None,,None,None,805.0557352610049,None,3,1,1.0043143829680048,805.0557352610049,None,806.0548214279231,None,None,None,None,,36,001,2023_Jan_30_1325,searchDisc5,2021.2.3,59.640377360177204,
images/exp2a_trial_127_colour0_distractors0_l.png,l,1,0,0,0,,,,,0,71,71,71,,,,,,,,,,,,,,,,,,,,,,,,,,,,,,,,,,,,,,,,,,,806.0704543940374,None,2,0.43797171500045806,806.0704543940374,None,,,,,,,,,,,,,,,,None,None,None,,None,None,806.5558843690087,None,1,1,0.8227184769930318,806.5558843690087,None,807.3714005279005,None,None,None,None,,36,001,2023_Jan_30_1325,searchDisc5,2021.2.3,59.640377360177204,
images/exp1a_trial_213_colour2_distractors4_l.png,l,1,2,4,0,,,,,0,72,72,72,,,,,,,,,,,,,,,,,,,,,,,,,,,,,,,,,,,,,,,,,,,807.3885675540078,None,2,0.6209596970002167,807.3885675540078,None,,,,,,,,,,,,,,,,None,None,None,,None,None,808.0553867710405,None,1,1,0.9054790980299003,808.0553867710405,None,808.9547140049515,None,None,None,None,,36,001,2023_Jan_30_1325,searchDisc5,2021.2.3,59.640377360177204,
images/exp2c_trial_141_colour3_distractors19_r.png,r,3,3,19,0,,,,,0,73,73,73,,,,,,,,,,,,,,,,,,,,,,,,,,,,,,,,,,,,,,,,,,,808.9712624000385,None,2,0.4879533870262094,808.9712624000385,None,,,,,,,,,,,,,,,,None,None,None,,None,None,809.5059026270173,None,3,1,1.0374016030109487,809.5059026270173,None,810.5382040868978,None,None,None,None,,36,001,2023_Jan_30_1325,searchDisc5,2021.2.3,59.640377360177204,
images/exp1a_trial_185_colour3_distractors1_l.png,l,1,3,1,0,,,,,0,74,74,74,,,,,,,,,,,,,,,,,,,,,,,,,,,,,,,,,,,,,,,,,,,810.554853129026,None,2,0.5221711120102555,810.554853129026,None,,,,,,,,,,,,,,,,None,None,None,,None,None,811.1243318970082,None,1,1,0.8552702469751239,811.1243318970082,None,811.9715728209237,None,None,None,None,,36,001,2023_Jan_30_1325,searchDisc5,2021.2.3,59.640377360177204,
images/exp2c_trial_188_colour3_distractors19_l.png,l,1,3,19,0,,,,,0,75,75,75,,,,,,,,,,,,,,,,,,,,,,,,,,,,,,,,,,,,,,,,,,,811.988064692996,None,2,0.8899731150013395,811.988064692996,None,,,,,,,,,,,,,,,,None,None,None,,None,None,812.9236704810173,None,1,1,1.0852714739739895,812.9236704810173,None,814.0050232249312,None,None,None,None,,36,001,2023_Jan_30_1325,searchDisc5,2021.2.3,59.640377360177204,
images/exp2c_trial_127_colour0_distractors0_l.png,l,1,0,0,0,,,,,0,76,76,76,,,,,,,,,,,,,,,,,,,,,,,,,,,,,,,,,,,,,,,,,,,814.0220507680206,None,2,0.5397514289943501,814.0220507680206,None,,,,,,,,,,,,,,,,None,None,None,,None,None,814.6076701020356,None,1,1,0.8226462000166066,814.6076701020356,None,815.4217089769197,None,None,None,None,,36,001,2023_Jan_30_1325,searchDisc5,2021.2.3,59.640377360177204,
images/exp2c_trial_10_colour3_distractors1_r.png,r,3,3,1,0,,,,,0,77,77,77,,,,,,,,,,,,,,,,,,,,,,,,,,,,,,,,,,,,,,,,,,,815.4384872060036,None,2,0.5699836860294454,815.4384872060036,None,,,,,,,,,,,,,,,,None,None,None,,None,None,816.0551650820416,None,3,1,0.9559590719873086,816.0551650820416,None,817.0049723879317,None,None,None,None,,36,001,2023_Jan_30_1325,searchDisc5,2021.2.3,59.640377360177204,
images/exp2b_trial_195_colour1_distractors19_r.png,r,3,1,19,0,,,,,0,78,78,78,,,,,,,,,,,,,,,,,,,,,,,,,,,,,,,,,,,,,,,,,,,817.021359564038,None,2,0.5222502170363441,817.021359564038,None,,,,,,,,,,,,,,,,None,None,None,,None,None,817.5915438880329,None,3,1,1.2693263769615442,817.5915438880329,None,818.8546099469065,None,None,None,None,,36,001,2023_Jan_30_1325,searchDisc5,2021.2.3,59.640377360177204,
images/exp1a_trial_35_colour1_distractors19_r.png,r,3,1,19,0,,,,,0,79,79,79,,,,,,,,,,,,,,,,,,,,,,,,,,,,,,,,,,,,,,,,,,,818.8742901229998,None,2,0.4880973770050332,818.8742901229998,None,,,,,,,,,,,,,,,,None,None,None,,None,None,819.4082276000408,None,3,1,1.1708427760167979,819.4082276000408,None,820.5739181939396,None,None,None,None,,36,001,2023_Jan_30_1325,searchDisc5,2021.2.3,59.640377360177204,
images/exp2a_trial_68_colour1_distractors31_r.png,r,3,1,31,0,,,,,0,80,80,80,,,,,,,,,,,,,,,,,,,,,,,,,,,,,,,,,,,,,,,,,,,820.588923518022,None,2,0.43570316303521395,820.588923518022,None,,,,,,,,,,,,,,,,None,None,None,,None,None,821.0719046150334,None,3,1,0.8864292549551465,821.0719046150334,None,821.9552432749304,None,None,None,None,,36,001,2023_Jan_30_1325,searchDisc5,2021.2.3,59.640377360177204,
images/exp2a_trial_98_colour1_distractors9_r.png,r,3,1,9,0,,,,,0,81,81,81,,,,,,,,,,,,,,,,,,,,,,,,,,,,,,,,,,,,,,,,,,,821.972578586021,None,2,0.45520129904616624,821.972578586021,None,,,,,,,,,,,,,,,,None,None,None,,None,None,822.4724906890187,None,3,1,0.6879900670028292,822.4724906890187,None,823.1554654449108,None,None,None,None,,36,001,2023_Jan_30_1325,searchDisc5,2021.2.3,59.640377360177204,
images/exp2a_trial_253_colour3_distractors31_l.png,l,1,3,31,0,,,,,0,82,82,82,,,,,,,,,,,,,,,,,,,,,,,,,,,,,,,,,,,,,,,,,,,823.1743658410269,None,2,0.40460040798643604,823.1743658410269,None,,,,,,,,,,,,,,,,None,None,None,,None,None,823.621927868051,None,1,1,0.885972068994306,823.621927868051,None,824.5052055889507,None,None,None,None,,36,001,2023_Jan_30_1325,searchDisc5,2021.2.3,59.640377360177204,
images/exp2a_trial_271_colour1_distractors1_l.png,l,1,1,1,0,,,,,0,83,83,83,,,,,,,,,,,,,,,,,,,,,,,,,,,,,,,,,,,,,,,,,,,824.52240235504,None,2,0.3886916519841179,824.52240235504,None,,,,,,,,,,,,,,,,None,None,None,,None,None,824.9580894530518,None,1,1,1.5553030340233818,824.9580894530518,None,826.5052400669199,None,None,None,None,,36,001,2023_Jan_30_1325,searchDisc5,2021.2.3,59.640377360177204,
images/exp2b_trial_153_colour3_distractors1_l.png,l,1,3,1,0,,,,,0,84,84,84,,,,,,,,,,,,,,,,,,,,,,,,,,,,,,,,,,,,,,,,,,,826.5224189950386,None,2,0.5546261160052381,826.5224189950386,None,,,,,,,,,,,,,,,,None,None,None,,None,None,827.1225279000355,None,1,1,0.8556226020446047,827.1225279000355,None,827.9719430929515,None,None,None,None,,36,001,2023_Jan_30_1325,searchDisc5,2021.2.3,59.640377360177204,
images/exp2b_trial_6_colour2_distractors4_r.png,r,3,2,4,0,,,,,0,85,85,85,,,,,,,,,,,,,,,,,,,,,,,,,,,,,,,,,,,,,,,,,,,827.9904619010049,None,2,0.5235598679864779,827.9904619010049,None,,,,,,,,,,,,,,,,None,None,None,,None,None,828.5555766420439,None,3,1,0.6700185929657891,828.5555766420439,None,829.2220708289067,None,None,None,None,,36,001,2023_Jan_30_1325,searchDisc5,2021.2.3,59.640377360177204,
images/exp2b_trial_317_colour3_distractors31_l.png,l,1,3,31,0,,,,,0,86,86,86,,,,,,,,,,,,,,,,,,,,,,,,,,,,,,,,,,,,,,,,,,,829.239039371023,None,2,0.3901215909863822,829.239039371023,None,,,,,,,,,,,,,,,,None,None,None,,None,None,829.6748001160449,None,1,1,0.9677280450123362,829.6748001160449,None,830.6387526119477,None,None,None,None,,36,001,2023_Jan_30_1325,searchDisc5,2021.2.3,59.640377360177204,
images/exp2a_trial_296_colour2_distractors19_r.png,r,3,2,19,0,,,,,0,87,87,87,,,,,,,,,,,,,,,,,,,,,,,,,,,,,,,,,,,,,,,,,,,830.6548414380522,None,2,0.38761545601300895,830.6548414380522,None,,,,,,,,,,,,,,,,None,None,None,,None,None,831.0907739590039,None,3,1,0.9146888260147534,831.0907739590039,None,832.005601873924,None,None,None,None,,36,001,2023_Jan_30_1325,searchDisc5,2021.2.3,59.640377360177204,
images/exp2b_trial_193_colour1_distractors4_r.png,r,3,1,4,0,,,,,0,88,88,88,,,,,,,,,,,,,,,,,,,,,,,,,,,,,,,,,,,,,,,,,,,832.0225986120058,None,2,0.42213466501561925,832.0225986120058,None,,,,,,,,,,,,,,,,None,None,None,,None,None,832.4897258430137,None,3,1,0.904413968033623,832.4897258430137,None,833.3887672048993,None,None,None,None,,36,001,2023_Jan_30_1325,searchDisc5,2021.2.3,59.640377360177204,
images/exp1a_trial_80_colour1_distractors4_l.png,l,1,1,4,0,,,,,0,89,89,89,,,,,,,,,,,,,,,,,,,,,,,,,,,,,,,,,,,,,,,,,,,833.4057731690118,None,2,0.44092919200193137,833.4057731690118,None,,,,,,,,,,,,,,,,None,None,None,,None,None,833.8890495980158,None,1,1,0.8216154120163992,833.8890495980158,None,834.7066362359444,None,None,None,None,,36,001,2023_Jan_30_1325,searchDisc5,2021.2.3,59.640377360177204,
images/exp1a_trial_260_colour1_distractors31_r.png,r,3,1,31,0,,,,,0,90,90,90,,,,,,,,,,,,,,,,,,,,,,,,,,,,,,,,,,,,,,,,,,,834.7220393730095,None,2,0.5181811050279066,834.7220393730095,None,,,,,,,,,,,,,,,,None,None,None,,None,None,835.2919460500125,None,3,1,1.4501125419628806,835.2919460500125,None,836.7389107029419,None,None,None,None,,36,001,2023_Jan_30_1325,searchDisc5,2021.2.3,59.640377360177204,
images/exp2a_trial_232_colour2_distractors19_r.png,r,3,2,19,0,,,,,0,91,91,91,,,,,,,,,,,,,,,,,,,,,,,,,,,,,,,,,,,,,,,,,,,836.7562634330243,None,2,0.38754413096467033,836.7562634330243,None,,,,,,,,,,,,,,,,None,None,None,,None,None,837.1917579920264,None,3,1,1.4481323749641888,837.1917579920264,None,838.6390009599388,None,None,None,None,,36,001,2023_Jan_30_1325,searchDisc5,2021.2.3,59.640377360177204,
images/exp2b_trial_314_colour3_distractors4_l.png,l,1,3,4,0,,,,,0,92,92,92,,,,,,,,,,,,,,,,,,,,,,,,,,,,,,,,,,,,,,,,,,,838.6554452310083,None,2,0.5048298889887519,838.6554452310083,None,,,,,,,,,,,,,,,,None,None,None,,None,None,839.2066661250428,None,1,1,0.9395245769992471,839.2066661250428,None,840.1391082969028,None,None,None,None,,36,001,2023_Jan_30_1325,searchDisc5,2021.2.3,59.640377360177204,
images/exp2c_trial_149_colour2_distractors4_l.png,l,1,2,4,0,,,,,0,93,93,93,,,,,,,,,,,,,,,,,,,,,,,,,,,,,,,,,,,,,,,,,,,840.1554332730011,None,2,0.4553275490179658,840.1554332730011,None,,,,,,,,,,,,,,,,None,None,None,,None,None,840.6561242510215,None,1,1,1.1881957220030017,840.6561242510215,None,841.8391129969502,None,None,None,None,,36,001,2023_Jan_30_1325,searchDisc5,2021.2.3,59.640377360177204,
images/exp1a_trial_81_colour1_distractors9_l.png,l,1,1,9,0,,,,,0,94,94,94,,,,,,,,,,,,,,,,,,,,,,,,,,,,,,,,,,,,,,,,,,,841.8565190450172,None,2,0.40412458102218807,841.8565190450172,None,,,,,,,,,,,,,,,,None,None,None,,None,None,842.3068641160498,None,1,1,0.986935020016972,842.3068641160498,None,843.2884445199277,None,None,None,None,,36,001,2023_Jan_30_1325,searchDisc5,2021.2.3,59.640377360177204,
images/exp2a_trial_307_colour1_distractors31_l.png,l,1,1,31,0,,,,,0,95,95,95,,,,,,,,,,,,,,,,,,,,,,,,,,,,,,,,,,,,,,,,,,,843.3054926120094,None,2,0.35547054797643796,843.3054926120094,None,,,,,,,,,,,,,,,,None,None,None,,None,None,843.7068615940516,None,1,1,0.9024810520350002,843.7068615940516,None,844.6057927349,None,None,None,None,,36,001,2023_Jan_30_1325,searchDisc5,2021.2.3,59.640377360177204,
images/exp2b_trial_38_colour2_distractors4_r.png,r,3,2,4,0,,,,,0,96,96,96,,,,,,,,,,,,,,,,,,,,,,,,,,,,,,,,,,,,,,,,,,,844.623099110031,None,2,0.4572684329468757,844.623099110031,None,,,,,,,,,,,,,,,,None,None,None,,None,None,845.1232268350432,None,3,1,0.818979027972091,845.1232268350432,None,845.9391952349222,None,None,None,None,,36,001,2023_Jan_30_1325,searchDisc5,2021.2.3,59.640377360177204,
images/exp1a_trial_40_colour2_distractors19_r.png,r,3,2,19,0,,,,,0,97,97,97,,,,,,,,,,,,,,,,,,,,,,,,,,,,,,,,,,,,,,,,,,,845.9563933730242,None,2,0.4243720530066639,845.9563933730242,None,,,,,,,,,,,,,,,,None,None,None,,None,None,846.4245376550243,None,3,1,0.8812340979930013,846.4245376550243,None,847.3058795089134,None,None,None,None,,36,001,2023_Jan_30_1325,searchDisc5,2021.2.3,59.640377360177204,
images/exp2c_trial_221_colour3_distractors31_l.png,l,1,3,31,0,,,,,0,98,98,98,,,,,,,,,,,,,,,,,,,,,,,,,,,,,,,,,,,,,,,,,,,847.3228793370072,None,2,0.4378171989810653,847.3228793370072,None,,,,,,,,,,,,,,,,None,None,None,,None,None,847.8069657120504,None,1,1,0.9866030220291577,847.8069657120504,None,848.7894849639385,None,None,None,None,,36,001,2023_Jan_30_1325,searchDisc5,2021.2.3,59.640377360177204,
images/exp2b_trial_288_colour1_distractors1_r.png,r,3,1,1,0,,,,,0,99,99,99,,,,,,,,,,,,,,,,,,,,,,,,,,,,,,,,,,,,,,,,,,,848.806706021016,None,2,0.4540634850272909,848.806706021016,None,,,,,,,,,,,,,,,,None,None,None,,None,None,849.3069877490052,None,3,1,1.2062379810377024,849.3069877490052,None,850.5060214368975,None,None,None,None,,36,001,2023_Jan_30_1325,searchDisc5,2021.2.3,59.640377360177204,
images/exp2c_trial_169_colour2_distractors31_r.png,r,3,2,31,0,,,,,0,100,100,100,,,,,,,,,,,,,,,,,,,,,,,,,,,,,,,,,,,,,,,,,,,850.5250108920154,None,2,0.45394229103112593,850.5250108920154,None,,,,,,,,,,,,,,,,None,None,None,,None,None,851.0255346460035,None,3,1,0.8389893939602189,851.0255346460035,None,851.858025712904,None,None,None,None,,36,001,2023_Jan_30_1325,searchDisc5,2021.2.3,59.640377360177204,
images/exp2c_trial_272_colour1_distractors4_l.png,l,1,1,4,0,,,,,0,101,101,101,,,,,,,,,,,,,,,,,,,,,,,,,,,,,,,,,,,,,,,,,,,851.8732027480146,None,2,0.42177481995895505,851.8732027480146,None,,,,,,,,,,,,,,,,None,None,None,,None,None,852.3389370340155,None,1,1,0.8029772199806757,852.3389370340155,None,853.1394138479488,None,None,None,None,,36,001,2023_Jan_30_1325,searchDisc5,2021.2.3,59.640377360177204,
images/exp1a_trial_308_colour2_distractors1_l.png,l,1,2,1,0,,,,,0,102,102,102,,,,,,,,,,,,,,,,,,,,,,,,,,,,,,,,,,,,,,,,,,,853.1558504810091,None,2,0.40452029602602124,853.1558504810091,None,,,,,,,,,,,,,,,,None,None,None,,None,None,853.609272886999,None,1,1,0.8243730260292068,853.609272886999,None,854.4241815339308,None,None,None,None,,36,001,2023_Jan_30_1325,searchDisc5,2021.2.3,59.640377360177204,
images/exp1a_trial_142_colour3_distractors31_r.png,r,3,3,31,0,,,,,0,103,103,103,,,,,,,,,,,,,,,,,,,,,,,,,,,,,,,,,,,,,,,,,,,854.4414217660087,None,2,0.7693995080189779,854.4414217660087,None,,,,,,,,,,,,,,,,None,None,None,,None,None,855.2570682900259,None,3,1,0.8174876559642144,855.2570682900259,None,856.0734838149044,None,None,None,None,,36,001,2023_Jan_30_1325,searchDisc5,2021.2.3,59.640377360177204,
images/exp2c_trial_36_colour1_distractors31_r.png,r,3,1,31,0,,,,,0,104,104,104,,,,,,,,,,,,,,,,,,,,,,,,,,,,,,,,,,,,,,,,,,,856.0889180160011,None,2,0.49002243898576126,856.0889180160011,None,,,,,,,,,,,,,,,,None,None,None,,None,None,856.6237134520197,None,3,1,0.9329114579595625,856.6237134520197,None,857.5555064819171,None,None,None,None,,36,001,2023_Jan_30_1325,searchDisc5,2021.2.3,59.640377360177204,
images/exp2b_trial_51_colour1_distractors31_l.png,l,1,1,31,0,,,,,0,105,105,105,,,,,,,,,,,,,,,,,,,,,,,,,,,,,,,,,,,,,,,,,,,857.5725569940405,None,2,0.4395198299898766,857.5725569940405,None,,,,,,,,,,,,,,,,None,None,None,,None,None,858.0582077720319,None,1,1,0.8841162319877185,858.0582077720319,None,858.9388199859065,None,None,None,None,,36,001,2023_Jan_30_1325,searchDisc5,2021.2.3,59.640377360177204,
images/exp2c_trial_298_colour3_distractors1_r.png,r,3,3,1,0,,,,,0,106,106,106,,,,,,,,,,,,,,,,,,,,,,,,,,,,,,,,,,,,,,,,,,,858.9559990690323,None,2,0.5046330699697137,858.9559990690323,None,,,,,,,,,,,,,,,,None,None,None,,None,None,859.509042138001,None,3,1,0.8732674029888585,859.509042138001,None,860.3729186109383,None,None,None,None,,36,001,2023_Jan_30_1325,searchDisc5,2021.2.3,59.640377360177204,
images/exp2a_trial_95_colour0_distractors0_l.png,l,1,0,0,0,,,,,0,107,107,107,,,,,,,,,,,,,,,,,,,,,,,,,,,,,,,,,,,,,,,,,,,860.3921399330138,None,2,0.6879091340233572,860.3921399330138,None,,,,,,,,,,,,,,,,None,None,None,,None,None,861.1254792780383,None,1,1,0.7892232779995538,861.1254792780383,None,861.9063269089208,None,None,None,None,,36,001,2023_Jan_30_1325,searchDisc5,2021.2.3,59.640377360177204,
images/exp2c_trial_73_colour2_distractors31_r.png,r,3,2,31,0,,,,,0,108,108,108,,,,,,,,,,,,,,,,,,,,,,,,,,,,,,,,,,,,,,,,,,,861.9233117910335,None,2,0.6544807069585659,861.9233117910335,None,,,,,,,,,,,,,,,,None,None,None,,None,None,862.624010168016,None,3,1,0.5866171810193919,862.624010168016,None,863.2065362619003,None,None,None,None,,36,001,2023_Jan_30_1325,searchDisc5,2021.2.3,59.640377360177204,
images/exp2b_trial_121_colour3_distractors1_l.png,l,1,3,1,0,,,,,0,109,109,109,,,,,,,,,,,,,,,,,,,,,,,,,,,,,,,,,,,,,,,,,,,863.2229976020171,None,2,0.47271459799958393,863.2229976020171,None,,,,,,,,,,,,,,,,None,None,None,,None,None,863.7399209900177,None,1,1,0.7372001949697733,863.7399209900177,None,864.4729433629079,None,None,None,None,,36,001,2023_Jan_30_1325,searchDisc5,2021.2.3,59.640377360177204,
images/exp2b_trial_319_colour0_distractors0_l.png,l,1,0,0,0,,,,,0,110,110,110,,,,,,,,,,,,,,,,,,,,,,,,,,,,,,,,,,,,,,,,,,,864.4902022330207,None,2,0.5060993799706921,864.4902022330207,None,,,,,,,,,,,,,,,,None,None,None,,None,None,865.0400632510427,None,1,1,0.8061916279839352,865.0400632510427,None,865.8397230749367,None,None,None,None,,36,001,2023_Jan_30_1325,searchDisc5,2021.2.3,59.640377360177204,
images/exp2c_trial_292_colour1_distractors31_r.png,r,3,1,31,0,,,,,0,111,111,111,,,,,,,,,,,,,,,,,,,,,,,,,,,,,,,,,,,,,,,,,,,865.8563336710213,None,2,0.46986159903462976,865.8563336710213,None,,,,,,,,,,,,,,,,None,None,None,,None,None,866.3755455680075,None,3,1,0.687174202001188,866.3755455680075,None,867.0574774979148,None,None,None,None,,36,001,2023_Jan_30_1325,searchDisc5,2021.2.3,59.640377360177204,
images/exp2b_trial_32_colour1_distractors1_r.png,r,3,1,1,0,,,,,0,112,112,112,,,,,,,,,,,,,,,,,,,,,,,,,,,,,,,,,,,,,,,,,,,867.0734837230411,None,2,0.42018099600682035,867.0734837230411,None,,,,,,,,,,,,,,,,None,None,None,,None,None,867.5404687480186,None,3,1,0.6233040750375949,867.5404687480186,None,868.1575639988994,None,None,None,None,,36,001,2023_Jan_30_1325,searchDisc5,2021.2.3,59.640377360177204,
images/exp1a_trial_135_colour2_distractors9_r.png,r,3,2,9,0,,,,,0,113,113,113,,,,,,,,,,,,,,,,,,,,,,,,,,,,,,,,,,,,,,,,,,,868.175846394035,None,2,0.6219025499885902,868.175846394035,None,,,,,,,,,,,,,,,,None,None,None,,None,None,868.8402590940241,None,3,1,0.5845403610146604,868.8402590940241,None,869.4227094728965,None,None,None,None,,36,001,2023_Jan_30_1325,searchDisc5,2021.2.3,59.640377360177204,
images/exp2b_trial_136_colour2_distractors19_r.png,r,3,2,19,0,,,,,0,114,114,114,,,,,,,,,,,,,,,,,,,,,,,,,,,,,,,,,,,,,,,,,,,869.4397276670206,None,2,0.4549960430013016,869.4397276670206,None,,,,,,,,,,,,,,,,None,None,None,,None,None,869.9400886960211,None,3,1,0.6206830159644596,869.9400886960211,None,870.5565723929437,None,None,None,None,,36,001,2023_Jan_30_1325,searchDisc5,2021.2.3,59.640377360177204,
images/exp2a_trial_16_colour1_distractors4_l.png,l,1,1,4,0,,,,,0,115,115,115,,,,,,,,,,,,,,,,,,,,,,,,,,,,,,,,,,,,,,,,,,,870.5729741179966,None,2,0.5912186629720964,870.5729741179966,None,,,,,,,,,,,,,,,,None,None,None,,None,None,871.2094806610257,None,1,1,0.9189611480105668,871.2094806610257,None,872.1232640219503,None,None,None,None,,36,001,2023_Jan_30_1325,searchDisc5,2021.2.3,59.640377360177204,
images/exp1a_trial_143_colour1_distractors1_l.png,l,1,1,1,0,,,,,0,116,116,116,,,,,,,,,,,,,,,,,,,,,,,,,,,,,,,,,,,,,,,,,,,872.1404853020213,None,2,0.4210908330278471,872.1404853020213,None,,,,,,,,,,,,,,,,None,None,None,,None,None,872.6086388050462,None,1,1,1.13925421400927,872.6086388050462,None,873.7399658099282,None,None,None,None,,36,001,2023_Jan_30_1325,searchDisc5,2021.2.3,59.640377360177204,
images/exp2b_trial_120_colour2_distractors31_l.png,l,1,2,31,0,,,,,0,117,117,117,,,,,,,,,,,,,,,,,,,,,,,,,,,,,,,,,,,,,,,,,,,873.7564412300126,None,2,0.3877885959809646,873.7564412300126,None,,,,,,,,,,,,,,,,None,None,None,,None,None,874.193215730018,None,1,1,0.9863688980112784,874.193215730018,None,875.1733103599515,None,None,None,None,,36,001,2023_Jan_30_1325,searchDisc5,2021.2.3,59.640377360177204,
images/exp2b_trial_75_colour3_distractors4_r.png,r,3,3,4,0,,,,,0,118,118,118,,,,,,,,,,,,,,,,,,,,,,,,,,,,,,,,,,,,,,,,,,,875.1898231890518,None,2,0.288878446968738,875.1898231890518,None,,,,,,,,,,,,,,,,None,None,None,,None,None,875.5234733840334,None,3,1,0.8029938520048745,875.5234733840334,None,876.3233743028948,None,None,None,None,,36,001,2023_Jan_30_1325,searchDisc5,2021.2.3,59.640377360177204,
images/exp2a_trial_275_colour1_distractors31_l.png,l,1,1,31,0,,,,,0,119,119,119,,,,,,,,,,,,,,,,,,,,,,,,,,,,,,,,,,,,,,,,,,,876.3405299530132,None,2,0.3231103009893559,876.3405299530132,None,,,,,,,,,,,,,,,,None,None,None,,None,None,876.7070671660476,None,1,1,0.8024728309828788,876.7070671660476,None,877.5067044549039,None,None,None,None,,36,001,2023_Jan_30_1325,searchDisc5,2021.2.3,59.640377360177204,
images/exp2a_trial_87_colour2_distractors19_l.png,l,1,2,19,0,,,,,0,120,120,120,,,,,,,,,,,,,,,,,,,,,,,,,,,,,,,,,,,,,,,,,,,877.5230243210099,None,2,0.3186515019624494,877.5230243210099,None,,,,,,,,,,,,,,,,None,None,None,,None,None,877.8905130130006,None,1,1,1.1814797489787452,877.8905130130006,None,879.0734400419285,None,None,None,None,,36,001,2023_Jan_30_1325,searchDisc5,2021.2.3,59.640377360177204,
images/exp1a_trial_51_colour1_distractors31_l.png,l,1,1,31,0,,,,,0,121,121,121,,,,,,,,,,,,,,,,,,,,,,,,,,,,,,,,,,,,,,,,,,,879.0906957540428,None,2,0.2722251759842038,879.0906957540428,None,,,,,,,,,,,,,,,,None,None,None,,None,None,879.4078305590083,None,1,1,1.049991815991234,879.4078305590083,None,880.4567964629503,None,None,None,None,,36,001,2023_Jan_30_1325,searchDisc5,2021.2.3,59.640377360177204,
images/exp2b_trial_87_colour2_distractors19_l.png,l,1,2,19,0,,,,,0,122,122,122,,,,,,,,,,,,,,,,,,,,,,,,,,,,,,,,,,,,,,,,,,,880.4751754080062,None,2,0.2877209329744801,880.4751754080062,None,,,,,,,,,,,,,,,,None,None,None,,None,None,880.8078246410005,None,1,1,0.8540711399982683,880.8078246410005,None,881.657580030919,None,None,None,None,,36,001,2023_Jan_30_1325,searchDisc5,2021.2.3,59.640377360177204,
images/exp2c_trial_280_colour2_distractors31_l.png,l,1,2,31,0,,,,,0,123,123,123,,,,,,,,,,,,,,,,,,,,,,,,,,,,,,,,,,,,,,,,,,,881.6751539930119,None,2,0.3375598529819399,881.6751539930119,None,,,,,,,,,,,,,,,,None,None,None,,None,None,882.058863668004,None,1,1,0.7193231349810958,882.058863668004,None,882.7735698469448,None,None,None,None,,36,001,2023_Jan_30_1325,searchDisc5,2021.2.3,59.640377360177204,
images/exp1a_trial_232_colour2_distractors19_r.png,r,3,2,19,0,,,,,0,124,124,124,,,,,,,,,,,,,,,,,,,,,,,,,,,,,,,,,,,,,,,,,,,882.7906224770122,None,2,0.37328663998050615,882.7906224770122,None,,,,,,,,,,,,,,,,None,None,None,,None,None,883.2078145240084,None,3,1,0.9002361710299738,883.2078145240084,None,884.1069815709022,None,None,None,None,,36,001,2023_Jan_30_1325,searchDisc5,2021.2.3,59.640377360177204,
images/exp1a_trial_139_colour3_distractors4_r.png,r,3,3,4,0,,,,,0,125,125,125,,,,,,,,,,,,,,,,,,,,,,,,,,,,,,,,,,,,,,,,,,,884.1241360980202,None,2,0.3385499260039069,884.1241360980202,None,,,,,,,,,,,,,,,,None,None,None,,None,None,884.509909957007,None,3,1,0.7044474229915068,884.509909957007,None,885.2069466709042,None,None,None,None,,36,001,2023_Jan_30_1325,searchDisc5,2021.2.3,59.640377360177204,
images/exp2b_trial_204_colour3_distractors9_r.png,r,3,3,9,0,,,,,0,126,126,126,,,,,,,,,,,,,,,,,,,,,,,,,,,,,,,,,,,,,,,,,,,885.2260734779993,None,2,0.32181280001532286,885.2260734779993,None,,,,,,,,,,,,,,,,None,None,None,,None,None,885.5931674790336,None,3,1,0.954119506990537,885.5931674790336,None,886.5402685839333,None,None,None,None,,36,001,2023_Jan_30_1325,searchDisc5,2021.2.3,59.640377360177204,
images/exp1a_trial_33_colour1_distractors4_r.png,r,3,1,4,0,,,,,0,127,127,127,,,,,,,,,,,,,,,,,,,,,,,,,,,,,,,,,,,,,,,,,,,886.5567865110352,None,2,0.32206292898627,886.5567865110352,None,,,,,,,,,,,,,,,,None,None,None,,None,None,886.9237288050354,None,3,1,0.9378071749815717,886.9237288050354,None,887.8570311009069,None,None,None,None,,36,001,2023_Jan_30_1325,searchDisc5,2021.2.3,59.640377360177204,
images/exp2a_trial_128_colour1_distractors1_r.png,r,3,1,1,0,,,,,0,128,128,128,,,,,,,,,,,,,,,,,,,,,,,,,,,,,,,,,,,,,,,,,,,887.8738868610235,None,2,0.3212720099836588,887.8738868610235,None,,,,,,,,,,,,,,,,None,None,None,,None,None,888.2406009859988,None,3,1,0.9225004139589146,888.2406009859988,None,889.1571448498987,None,None,None,None,,36,001,2023_Jan_30_1325,searchDisc5,2021.2.3,59.640377360177204,
images/exp1a_trial_195_colour1_distractors19_r.png,r,3,1,19,0,,,,,0,129,129,129,,,,,,,,,,,,,,,,,,,,,,,,,,,,,,,,,,,,,,,,,,,889.1742639360018,None,2,0.337427761987783,889.1742639360018,None,,,,,,,,,,,,,,,,None,None,None,,None,None,889.5576156729949,None,3,1,1.2353674769983627,889.5576156729949,None,890.7906355759012,None,None,None,None,,36,001,2023_Jan_30_1325,searchDisc5,2021.2.3,59.640377360177204,
images/exp2b_trial_207_colour1_distractors1_l.png,l,1,1,1,0,,,,,0,130,130,130,,,,,,,,,,,,,,,,,,,,,,,,,,,,,,,,,,,,,,,,,,,890.8100435580127,None,2,0.3534597490215674,890.8100435580127,None,,,,,,,,,,,,,,,,None,None,None,,None,None,891.2091636420228,None,1,1,0.856859126011841,891.2091636420228,None,892.0571466619265,None,None,None,None,,36,001,2023_Jan_30_1325,searchDisc5,2021.2.3,59.640377360177204,
images/exp2c_trial_284_colour3_distractors19_l.png,l,1,3,19,0,,,,,0,131,131,131,,,,,,,,,,,,,,,,,,,,,,,,,,,,,,,,,,,,,,,,,,,892.0736141950474,None,2,0.28898701403522864,892.0736141950474,None,,,,,,,,,,,,,,,,None,None,None,,None,None,892.4074999410077,None,1,1,0.9202881900127977,892.4074999410077,None,893.3248039089492,None,None,None,None,,36,001,2023_Jan_30_1325,searchDisc5,2021.2.3,59.640377360177204,
images/exp1a_trial_121_colour3_distractors1_l.png,l,1,3,1,0,,,,,0,132,132,132,,,,,,,,,,,,,,,,,,,,,,,,,,,,,,,,,,,,,,,,,,,893.3424487290322,None,2,0.2870637300075032,893.3424487290322,None,,,,,,,,,,,,,,,,None,None,None,,None,None,893.6738454900333,None,1,1,0.8733268090290949,893.6738454900333,None,894.5405901579186,None,None,None,None,,36,001,2023_Jan_30_1325,searchDisc5,2021.2.3,59.640377360177204,
images/exp2a_trial_12_colour3_distractors9_r.png,r,3,3,9,0,,,,,0,133,133,133,,,,,,,,,,,,,,,,,,,,,,,,,,,,,,,,,,,,,,,,,,,894.557564599032,None,2,0.3211583700031042,894.557564599032,None,,,,,,,,,,,,,,,,None,None,None,,None,None,894.9267924200394,None,3,1,0.7879754839814268,894.9267924200394,None,895.7074365089181,None,None,None,None,,36,001,2023_Jan_30_1325,searchDisc5,2021.2.3,59.640377360177204,
images/exp2c_trial_217_colour3_distractors1_l.png,l,1,3,1,0,,,,,0,134,134,134,,,,,,,,,,,,,,,,,,,,,,,,,,,,,,,,,,,,,,,,,,,895.7259497470222,None,2,0.321562148979865,895.7259497470222,None,,,,,,,,,,,,,,,,None,None,None,,None,None,896.0919207310071,None,1,1,0.8719524160260335,896.0919207310071,None,896.9573075739434,None,None,None,None,,36,001,2023_Jan_30_1325,searchDisc5,2021.2.3,59.640377360177204,
images/exp2c_trial_197_colour2_distractors1_r.png,r,3,2,1,0,,,,,0,135,135,135,,,,,,,,,,,,,,,,,,,,,,,,,,,,,,,,,,,,,,,,,,,896.9739774410264,None,2,0.27371339697856456,896.9739774410264,None,,,,,,,,,,,,,,,,None,None,None,,None,None,897.2905947420513,None,3,1,1.2197680639801547,897.2905947420513,None,898.5075012869318,None,None,None,None,,36,001,2023_Jan_30_1325,searchDisc5,2021.2.3,59.640377360177204,
images/exp2c_trial_168_colour2_distractors19_r.png,r,3,2,19,0,,,,,0,136,136,136,,,,,,,,,,,,,,,,,,,,,,,,,,,,,,,,,,,,,,,,,,,898.5246112880413,None,2,0.30444835603702813,898.5246112880413,None,,,,,,,,,,,,,,,,None,None,None,,None,None,898.8744570070412,None,3,1,0.8204582249745727,898.8744570070412,None,899.69076818194,None,None,None,None,,36,001,2023_Jan_30_1325,searchDisc5,2021.2.3,59.640377360177204,
images/exp1a_trial_196_colour1_distractors31_r.png,r,3,1,31,0,,,,,0,137,137,137,,,,,,,,,,,,,,,,,,,,,,,,,,,,,,,,,,,,,,,,,,,899.7071555210277,None,2,0.3211910800309852,899.7071555210277,None,,,,,,,,,,,,,,,,None,None,None,,None,None,900.0749739590101,None,3,1,1.884438153996598,900.0749739590101,None,901.9585069159045,None,None,None,None,,36,001,2023_Jan_30_1325,searchDisc5,2021.2.3,59.640377360177204,
images/exp1a_trial_13_colour3_distractors19_r.png,r,3,3,19,0,,,,,0,138,138,138,,,,,,,,,,,,,,,,,,,,,,,,,,,,,,,,,,,,,,,,,,,901.9745775100309,None,2,0.30337957199662924,901.9745775100309,None,,,,,,,,,,,,,,,,None,None,None,,None,None,902.3251079590409,None,3,1,0.9510044259950519,902.3251079590409,None,903.274065090937,None,None,None,None,,36,001,2023_Jan_30_1325,searchDisc5,2021.2.3,59.640377360177204,
images/exp2c_trial_122_colour3_distractors4_l.png,l,1,3,4,0,,,,,0,139,139,139,,,,,,,,,,,,,,,,,,,,,,,,,,,,,,,,,,,,,,,,,,,903.2905568010174,None,2,0.3058639649534598,903.2905568010174,None,,,,,,,,,,,,,,,,None,None,None,,None,None,903.641651922022,None,1,1,0.9221338670467958,903.641651922022,None,904.5586603059317,None,None,None,None,,36,001,2023_Jan_30_1325,searchDisc5,2021.2.3,59.640377360177204,
images/exp2c_trial_167_colour2_distractors9_r.png,r,3,2,9,0,,,,,0,140,140,140,,,,,,,,,,,,,,,,,,,,,,,,,,,,,,,,,,,,,,,,,,,904.5749391210265,None,2,0.3042110599926673,904.5749391210265,None,,,,,,,,,,,,,,,,None,None,None,,None,None,904.9253825100022,None,3,1,0.8540587900206447,904.9253825100022,None,905.7742736689513,None,None,None,None,,36,001,2023_Jan_30_1325,searchDisc5,2021.2.3,59.640377360177204,
images/exp2a_trial_145_colour1_distractors9_l.png,l,1,1,9,0,,,,,0,141,141,141,,,,,,,,,,,,,,,,,,,,,,,,,,,,,,,,,,,,,,,,,,,905.7906561160344,None,2,0.3222911740303971,905.7906561160344,None,,,,,,,,,,,,,,,,None,None,None,,None,None,906.1595408600406,None,1,1,0.7699507939978503,906.1595408600406,None,906.9238665459095,None,None,None,None,,36,001,2023_Jan_30_1325,searchDisc5,2021.2.3,59.640377360177204,
images/exp2c_trial_91_colour3_distractors9_l.png,l,1,3,9,0,,,,,0,142,142,142,,,,,,,,,,,,,,,,,,,,,,,,,,,,,,,,,,,,,,,,,,,906.9409357980476,None,2,0.28836611699080095,906.9409357980476,None,,,,,,,,,,,,,,,,None,None,None,,None,None,907.2746547770221,None,1,1,0.9545471330056898,907.2746547770221,None,908.2242726789088,None,None,None,None,,36,001,2023_Jan_30_1325,searchDisc5,2021.2.3,59.640377360177204,
images/exp2c_trial_109_colour3_distractors19_r.png,r,3,3,19,0,,,,,0,143,143,143,,,,,,,,,,,,,,,,,,,,,,,,,,,,,,,,,,,,,,,,,,,908.2413121630088,None,2,0.28893305599922314,908.2413121630088,None,,,,,,,,,,,,,,,,None,None,None,,None,None,908.5743999010301,None,3,1,1.670272522023879,908.5743999010301,None,910.2419555419008,None,None,None,None,,36,001,2023_Jan_30_1325,searchDisc5,2021.2.3,59.640377360177204,
images/exp2b_trial_228_colour1_distractors31_r.png,r,3,1,31,0,,,,,0,144,144,144,,,,,,,,,,,,,,,,,,,,,,,,,,,,,,,,,,,,,,,,,,,910.2582130000228,None,2,0.3377466850215569,910.2582130000228,None,,,,,,,,,,,,,,,,None,None,None,,None,None,910.6420258620055,None,3,1,0.9708780900109559,910.6420258620055,None,911.6077565309358,None,None,None,None,,36,001,2023_Jan_30_1325,searchDisc5,2021.2.3,59.640377360177204,
images/exp2b_trial_2_colour1_distractors9_r.png,r,3,1,9,0,,,,,0,145,145,145,,,,,,,,,,,,,,,,,,,,,,,,,,,,,,,,,,,,,,,,,,,911.624685509014,None,2,0.3021734150242992,911.624685509014,None,,,,,,,,,,,,,,,,None,None,None,,None,None,911.9748515540268,None,3,1,0.9545526450383477,911.9748515540268,None,912.9245657029212,None,None,None,None,,36,001,2023_Jan_30_1325,searchDisc5,2021.2.3,59.640377360177204,
images/exp2b_trial_145_colour1_distractors9_l.png,l,1,1,9,0,,,,,0,146,146,146,,,,,,,,,,,,,,,,,,,,,,,,,,,,,,,,,,,,,,,,,,,912.9437887340318,None,2,0.3231123189907521,912.9437887340318,None,,,,,,,,,,,,,,,,None,None,None,,None,None,913.3101682380075,None,1,1,0.9032092840061523,913.3101682380075,None,914.2080241869087,None,None,None,None,,36,001,2023_Jan_30_1325,searchDisc5,2021.2.3,59.640377360177204,
images/exp2c_trial_118_colour2_distractors9_l.png,l,1,2,9,0,,,,,0,147,147,147,,,,,,,,,,,,,,,,,,,,,,,,,,,,,,,,,,,,,,,,,,,914.2241221310105,None,2,0.28974458400625736,914.2241221310105,None,,,,,,,,,,,,,,,,None,None,None,,None,None,914.5584935810184,None,1,1,0.9543776449863799,914.5584935810184,None,915.5089733378961,None,None,None,None,,36,001,2023_Jan_30_1325,searchDisc5,2021.2.3,59.640377360177204,
images/exp2a_trial_184_colour2_distractors31_l.png,l,1,2,31,0,,,,,0,148,148,148,,,,,,,,,,,,,,,,,,,,,,,,,,,,,,,,,,,,,,,,,,,915.5238674459979,None,2,0.31957825500285253,915.5238674459979,None,,,,,,,,,,,,,,,,None,None,None,,None,None,915.8908950830228,None,1,1,1.462320992955938,915.8908950830228,None,917.3580019199405,None,None,None,None,,36,001,2023_Jan_30_1325,searchDisc5,2021.2.3,59.640377360177204,
images/exp1a_trial_146_colour1_distractors19_l.png,l,1,1,19,0,,,,,0,149,149,149,,,,,,,,,,,,,,,,,,,,,,,,,,,,,,,,,,,,,,,,,,,917.3733792400453,None,2,0.272092213970609,917.3733792400453,None,,,,,,,,,,,,,,,,None,None,None,,None,None,917.6911646469962,None,1,1,1.0184419449651614,917.6911646469962,None,918.7081144069205,None,None,None,None,,36,001,2023_Jan_30_1325,searchDisc5,2021.2.3,59.640377360177204,
images/exp2a_trial_125_colour3_distractors31_l.png,l,1,3,31,0,,,,,0,150,150,150,,,,,,,,,,,,,,,,,,,,,,,,,,,,,,,,,,,,,,,,,,,918.7254021530389,None,2,0.319840946001932,918.7254021530389,None,,,,,,,,,,,,,,,,None,None,None,,None,None,919.0916519530001,None,1,1,0.9523964810068719,919.0916519530001,None,920.0406549568986,None,None,None,None,,36,001,2023_Jan_30_1325,searchDisc5,2021.2.3,59.640377360177204,
images/exp2c_trial_175_colour1_distractors1_l.png,l,1,1,1,0,,,,,0,151,151,151,,,,,,,,,,,,,,,,,,,,,,,,,,,,,,,,,,,,,,,,,,,920.0585984589998,None,2,0.39196658501168713,920.0585984589998,None,,,,,,,,,,,,,,,,None,None,None,,None,None,920.4942360880086,None,1,1,0.8355701409745961,920.4942360880086,None,921.3246474999003,None,None,None,None,,36,001,2023_Jan_30_1325,searchDisc5,2021.2.3,59.640377360177204,
images/exp2b_trial_42_colour3_distractors1_r.png,r,3,3,1,0,,,,,0,152,152,152,,,,,,,,,,,,,,,,,,,,,,,,,,,,,,,,,,,,,,,,,,,921.3417774880072,None,2,0.3213135909754783,921.3417774880072,None,,,,,,,,,,,,,,,,None,None,None,,None,None,921.70851923601,None,3,1,0.8731702889781445,921.70851923601,None,922.5747414249461,None,None,None,None,,36,001,2023_Jan_30_1325,searchDisc5,2021.2.3,59.640377360177204,
images/exp2b_trial_194_colour1_distractors9_r.png,r,3,1,9,0,,,,,0,153,153,153,,,,,,,,,,,,,,,,,,,,,,,,,,,,,,,,,,,,,,,,,,,922.5917964020045,None,2,0.30534088698914275,922.5917964020045,None,,,,,,,,,,,,,,,,None,None,None,,None,None,922.9422749070218,None,3,1,0.9699098819983192,922.9422749070218,None,923.908026393922,None,None,None,None,,36,001,2023_Jan_30_1325,searchDisc5,2021.2.3,59.640377360177204,
images/exp2b_trial_16_colour1_distractors4_l.png,l,1,1,4,0,,,,,0,154,154,154,,,,,,,,,,,,,,,,,,,,,,,,,,,,,,,,,,,,,,,,,,,923.9244548550341,None,2,0.3211449350346811,923.9244548550341,None,,,,,,,,,,,,,,,,None,None,None,,None,None,924.2916858630488,None,1,1,0.805963282007724,924.2916858630488,None,925.0915039379149,None,None,None,None,,36,001,2023_Jan_30_1325,searchDisc5,2021.2.3,59.640377360177204,
images/exp2b_trial_299_colour3_distractors4_r.png,r,3,3,4,0,,,,,0,155,155,155,,,,,,,,,,,,,,,,,,,,,,,,,,,,,,,,,,,,,,,,,,,925.1078377130325,None,2,0.38941324199549854,925.1078377130325,None,,,,,,,,,,,,,,,,None,None,None,,None,None,925.5418183620204,None,3,1,0.75304831500398,925.5418183620204,None,926.2913977039395,None,None,None,None,,36,001,2023_Jan_30_1325,searchDisc5,2021.2.3,59.640377360177204,
images/exp1a_trial_248_colour2_distractors31_l.png,l,1,2,31,0,,,,,0,156,156,156,,,,,,,,,,,,,,,,,,,,,,,,,,,,,,,,,,,,,,,,,,,926.3107272990164,None,2,0.3220476799760945,926.3107272990164,None,,,,,,,,,,,,,,,,None,None,None,,None,None,926.6768872280372,None,1,1,0.8005925710313022,926.6768872280372,None,927.4758616619044,None,None,None,None,,36,001,2023_Jan_30_1325,searchDisc5,2021.2.3,59.640377360177204,
images/exp1a_trial_183_colour2_distractors19_l.png,l,1,2,19,0,,,,,0,157,157,157,,,,,,,,,,,,,,,,,,,,,,,,,,,,,,,,,,,,,,,,,,,927.4911081790342,None,2,0.26971497299382463,927.4911081790342,None,,,,,,,,,,,,,,,,None,None,None,,None,None,927.8081825970439,None,1,1,0.9018383710063063,927.8081825970439,None,928.7081444909097,None,None,None,None,,36,001,2023_Jan_30_1325,searchDisc5,2021.2.3,59.640377360177204,
images/exp2b_trial_191_colour0_distractors0_l.png,l,1,0,0,0,,,,,0,158,158,158,,,,,,,,,,,,,,,,,,,,,,,,,,,,,,,,,,,,,,,,,,,928.7273337650113,None,2,0.338195207004901,928.7273337650113,None,,,,,,,,,,,,,,,,None,None,None,,None,None,929.1112183490186,None,1,1,0.8058324800222181,929.1112183490186,None,929.9076755989342,None,None,None,None,,36,001,2023_Jan_30_1325,searchDisc5,2021.2.3,59.640377360177204,
images/exp2a_trial_185_colour3_distractors1_l.png,l,1,3,1,0,,,,,0,159,159,159,,,,,,,,,,,,,,,,,,,,,,,,,,,,,,,,,,,,,,,,,,,929.9246962920297,None,2,0.6224163890001364,929.9246962920297,None,,,,,,,,,,,,,,,,None,None,None,,None,None,930.591718295007,None,1,1,1.1558306860388257,930.591718295007,None,931.7427082529291,None,None,None,None,,36,001,2023_Jan_30_1325,searchDisc5,2021.2.3,59.640377360177204,
images/exp2c_trial_130_colour1_distractors9_r.png,r,3,1,9,0,,,,,0,160,160,160,,,,,,,,,,,,,,,,,,,,,,,,,,,,,,,,,,,,,,,,,,,931.7587900670478,None,2,0.27006509102648124,931.7587900670478,None,,,,,,,,,,,,,,,,None,None,None,,None,None,932.0758115260396,None,3,1,0.7544259530259296,932.0758115260396,None,932.824972331943,None,None,None,None,,36,001,2023_Jan_30_1325,searchDisc5,2021.2.3,59.640377360177204,
images/exp2c_trial_121_colour3_distractors1_l.png,l,1,3,1,0,,,,,0,161,161,161,,,,,,,,,,,,,,,,,,,,,,,,,,,,,,,,,,,,,,,,,,,932.8406973790261,None,2,0.28779941803077236,932.8406973790261,None,,,,,,,,,,,,,,,,None,None,None,,None,None,933.1759720840491,None,1,1,0.8229053250397556,933.1759720840491,None,933.9917327599367,None,None,None,None,,36,001,2023_Jan_30_1325,searchDisc5,2021.2.3,59.640377360177204,
images/exp2a_trial_62_colour0_distractors0_r.png,r,3,0,0,0,,,,,0,162,162,162,,,,,,,,,,,,,,,,,,,,,,,,,,,,,,,,,,,,,,,,,,,934.0109477440128,None,2,0.254447985033039,934.0109477440128,None,,,,,,,,,,,,,,,,None,None,None,,None,None,934.3083643920254,None,3,1,0.7729593160329387,934.3083643920254,None,935.0750773238949,None,None,None,None,,36,001,2023_Jan_30_1325,searchDisc5,2021.2.3,59.640377360177204,
images/exp2c_trial_263_colour2_distractors9_r.png,r,3,2,9,0,,,,,0,163,163,163,,,,,,,,,,,,,,,,,,,,,,,,,,,,,,,,,,,,,,,,,,,935.0923649260076,None,2,0.3218874500016682,935.0923649260076,None,,,,,,,,,,,,,,,,None,None,None,,None,None,935.4591876890045,None,3,1,1.0179528999724425,935.4591876890045,None,936.4750486169476,None,None,None,None,,36,001,2023_Jan_30_1325,searchDisc5,2021.2.3,59.640377360177204,
images/exp2a_trial_263_colour2_distractors9_r.png,r,3,2,9,0,,,,,0,164,164,164,,,,,,,,,,,,,,,,,,,,,,,,,,,,,,,,,,,,,,,,,,,936.4913745369995,None,2,0.2878520169761032,936.4913745369995,None,,,,,,,,,,,,,,,,None,None,None,,None,None,936.825423315051,None,3,1,0.984162998967804,936.825423315051,None,937.8084367599338,None,None,None,None,,36,001,2023_Jan_30_1325,searchDisc5,2021.2.3,59.640377360177204,
images/exp1a_trial_199_colour2_distractors9_r.png,r,3,2,9,0,,,,,0,165,165,165,,,,,,,,,,,,,,,,,,,,,,,,,,,,,,,,,,,,,,,,,,,937.8254301680136,None,2,0.2878014119924046,937.8254301680136,None,,,,,,,,,,,,,,,,None,None,None,,None,None,938.1587079610326,None,3,1,0.6530680599971674,938.1587079610326,None,938.8084833009168,None,None,None,None,,36,001,2023_Jan_30_1325,searchDisc5,2021.2.3,59.640377360177204,
images/exp2b_trial_133_colour2_distractors1_r.png,r,3,2,1,0,,,,,0,166,166,166,,,,,,,,,,,,,,,,,,,,,,,,,,,,,,,,,,,,,,,,,,,938.8254416250275,None,2,0.3221138769877143,938.8254416250275,None,,,,,,,,,,,,,,,,None,None,None,,None,None,939.1920419030357,None,3,1,0.7556162790278904,939.1920419030357,None,939.9418138289009,None,None,None,None,,36,001,2023_Jan_30_1325,searchDisc5,2021.2.3,59.640377360177204,
images/exp1a_trial_45_colour3_distractors19_r.png,r,3,3,19,0,,,,,0,167,167,167,,,,,,,,,,,,,,,,,,,,,,,,,,,,,,,,,,,,,,,,,,,939.9581170760212,None,2,0.288036345038563,939.9581170760212,None,,,,,,,,,,,,,,,,None,None,None,,None,None,940.2929606900434,None,3,1,0.9184635450365022,940.2929606900434,None,941.2085924749379,None,None,None,None,,36,001,2023_Jan_30_1325,searchDisc5,2021.2.3,59.640377360177204,
images/exp1a_trial_300_colour3_distractors9_r.png,r,3,3,9,0,,,,,0,168,168,168,,,,,,,,,,,,,,,,,,,,,,,,,,,,,,,,,,,,,,,,,,,941.2258314130013,None,2,0.3035788149572909,941.2258314130013,None,,,,,,,,,,,,,,,,None,None,None,,None,None,941.5780563000008,None,3,1,1.0544287340017036,941.5780563000008,None,942.625253438903,None,None,None,None,,36,001,2023_Jan_30_1325,searchDisc5,2021.2.3,59.640377360177204,
images/exp2a_trial_310_colour2_distractors9_l.png,l,1,2,9,0,,,,,0,169,169,169,,,,,,,,,,,,,,,,,,,,,,,,,,,,,,,,,,,,,,,,,,,942.6423683169996,None,2,0.28791026602266356,942.6423683169996,None,,,,,,,,,,,,,,,,None,None,None,,None,None,942.9746532140416,None,1,1,0.9190487510059029,942.9746532140416,None,943.8919189209234,None,None,None,None,,36,001,2023_Jan_30_1325,searchDisc5,2021.2.3,59.640377360177204,
images/exp2c_trial_3_colour1_distractors19_r.png,r,3,1,19,0,,,,,0,170,170,170,,,,,,,,,,,,,,,,,,,,,,,,,,,,,,,,,,,,,,,,,,,943.9083266790258,None,2,0.24001892999513075,943.9083266790258,None,,,,,,,,,,,,,,,,None,None,None,,None,None,944.1941386600374,None,3,1,0.7347447010106407,944.1941386600374,None,944.9249638659064,None,None,None,None,,36,001,2023_Jan_30_1325,searchDisc5,2021.2.3,59.640377360177204,
images/exp2a_trial_144_colour1_distractors4_l.png,l,1,1,4,0,,,,,0,171,171,171,,,,,,,,,,,,,,,,,,,,,,,,,,,,,,,,,,,,,,,,,,,944.942104160029,None,2,0.2873084379825741,944.942104160029,None,,,,,,,,,,,,,,,,None,None,None,,None,None,945.2757873980445,None,1,1,1.0900199949974194,945.2757873980445,None,946.358823575906,None,None,None,None,,36,001,2023_Jan_30_1325,searchDisc5,2021.2.3,59.640377360177204,
images/exp2c_trial_69_colour2_distractors1_r.png,r,3,2,1,0,,,,,0,172,172,172,,,,,,,,,,,,,,,,,,,,,,,,,,,,,,,,,,,,,,,,,,,946.3772106240503,None,2,0.2558342259726487,946.3772106240503,None,,,,,,,,,,,,,,,,None,None,None,,None,None,946.675674313039,None,3,1,0.7380964260082692,946.675674313039,None,947.4087092559319,None,None,None,None,,36,001,2023_Jan_30_1325,searchDisc5,2021.2.3,59.640377360177204,
images/exp2c_trial_228_colour1_distractors31_r.png,r,3,1,31,0,,,,,0,173,173,173,,,,,,,,,,,,,,,,,,,,,,,,,,,,,,,,,,,,,,,,,,,947.4280481050373,None,2,0.28970751096494496,947.4280481050373,None,,,,,,,,,,,,,,,,None,None,None,,None,None,947.7589211930172,None,3,1,0.717725683003664,947.7589211930172,None,948.4753925709053,None,None,None,None,,36,001,2023_Jan_30_1325,searchDisc5,2021.2.3,59.640377360177204,
images/exp2b_trial_152_colour2_distractors31_l.png,l,1,2,31,0,,,,,0,174,174,174,,,,,,,,,,,,,,,,,,,,,,,,,,,,,,,,,,,,,,,,,,,948.4918677380192,None,2,0.27149503596592695,948.4918677380192,None,,,,,,,,,,,,,,,,None,None,None,,None,None,948.8087272890261,None,1,1,0.7027288779499941,948.8087272890261,None,949.5088613639352,None,None,None,None,,36,001,2023_Jan_30_1325,searchDisc5,2021.2.3,59.640377360177204,
images/exp2c_trial_123_colour3_distractors9_l.png,l,1,3,9,0,,,,,0,175,175,175,,,,,,,,,,,,,,,,,,,,,,,,,,,,,,,,,,,,,,,,,,,949.5257613750291,None,2,0.24083070398773998,949.5257613750291,None,,,,,,,,,,,,,,,,None,None,None,,None,None,949.8087695090217,None,1,1,0.8892138230148703,949.8087695090217,None,950.6941903539234,None,None,None,None,,36,001,2023_Jan_30_1325,searchDisc5,2021.2.3,59.640377360177204,
images/exp2a_trial_164_colour1_distractors31_r.png,r,3,1,31,0,,,,,0,176,176,176,,,,,,,,,,,,,,,,,,,,,,,,,,,,,,,,,,,,,,,,,,,950.7112286850461,None,2,0.21994307899149135,950.7112286850461,None,,,,,,,,,,,,,,,,None,None,None,,None,None,950.9778103000135,None,3,1,0.7498462480143644,950.9778103000135,None,951.7254987079184,None,None,None,None,,36,001,2023_Jan_30_1325,searchDisc5,2021.2.3,59.640377360177204,
images/exp1a_trial_267_colour3_distractors4_r.png,r,3,3,4,0,,,,,0,177,177,177,,,,,,,,,,,,,,,,,,,,,,,,,,,,,,,,,,,,,,,,,,,951.7425164680462,None,2,0.2564771499601193,951.7425164680462,None,,,,,,,,,,,,,,,,None,None,None,,None,None,952.0422140990268,None,3,1,0.7529959930106997,952.0422140990268,None,952.7921069999109,None,None,None,None,,36,001,2023_Jan_30_1325,searchDisc5,2021.2.3,59.640377360177204,
images/exp2a_trial_217_colour3_distractors1_l.png,l,1,3,1,0,,,,,0,178,178,178,,,,,,,,,,,,,,,,,,,,,,,,,,,,,,,,,,,,,,,,,,,952.8095256730448,None,2,0.2878243919694796,952.8095256730448,None,,,,,,,,,,,,,,,,None,None,None,,None,None,953.1430913259974,None,1,1,0.7894688899978064,953.1430913259974,None,953.9255918849492,None,None,None,None,,36,001,2023_Jan_30_1325,searchDisc5,2021.2.3,59.640377360177204,
images/exp2c_trial_104_colour2_distractors19_r.png,r,3,2,19,0,,,,,0,179,179,179,,,,,,,,,,,,,,,,,,,,,,,,,,,,,,,,,,,,,,,,,,,953.9427080280147,None,2,0.23777549102669582,953.9427080280147,None,,,,,,,,,,,,,,,,None,None,None,,None,None,954.2275957490201,None,3,1,1.0378276899573393,954.2275957490201,None,955.2600551079493,None,None,None,None,,36,001,2023_Jan_30_1325,searchDisc5,2021.2.3,59.640377360177204,
images/exp2b_trial_236_colour3_distractors9_r.png,r,3,3,9,0,,,,,0,180,180,180,,,,,,,,,,,,,,,,,,,,,,,,,,,,,,,,,,,,,,,,,,,955.2767290750053,None,2,0.26933667401317507,955.2767290750053,None,,,,,,,,,,,,,,,,None,None,None,,None,None,955.5923150430317,None,3,1,1.37225897598546,955.5923150430317,None,956.9590858469135,None,None,None,None,,36,001,2023_Jan_30_1325,searchDisc5,2021.2.3,59.640377360177204,
images/exp2a_trial_42_colour3_distractors1_r.png,r,3,3,1,0,,,,,0,181,181,181,,,,,,,,,,,,,,,,,,,,,,,,,,,,,,,,,,,,,,,,,,,956.9748047270114,None,2,0.2878210150520317,956.9748047270114,None,,,,,,,,,,,,,,,,None,None,None,,None,None,957.3090489260503,None,3,1,0.590739821025636,957.3090489260503,None,957.8940607078955,None,None,None,None,,36,001,2023_Jan_30_1325,searchDisc5,2021.2.3,59.640377360177204,
images/exp2b_trial_248_colour2_distractors31_l.png,l,1,2,31,0,,,,,0,182,182,182,,,,,,,,,,,,,,,,,,,,,,,,,,,,,,,,,,,,,,,,,,,957.9111090680235,None,2,0.6527507190476172,957.9111090680235,None,,,,,,,,,,,,,,,,None,None,None,,None,None,958.6112370580086,None,1,1,0.8364414100069553,958.6112370580086,None,959.4424862079438,None,None,None,None,,36,001,2023_Jan_30_1325,searchDisc5,2021.2.3,59.640377360177204,
images/exp2c_trial_267_colour3_distractors4_r.png,r,3,3,4,0,,,,,0,183,183,183,,,,,,,,,,,,,,,,,,,,,,,,,,,,,,,,,,,,,,,,,,,959.4598598940065,None,2,0.2722278010332957,959.4598598940065,None,,,,,,,,,,,,,,,,None,None,None,,None,None,959.7767219560337,None,3,1,1.288030999014154,959.7767219560337,None,961.0599438349134,None,None,None,None,,36,001,2023_Jan_30_1325,searchDisc5,2021.2.3,59.640377360177204,
images/exp1a_trial_236_colour3_distractors9_r.png,r,3,3,9,0,,,,,0,184,184,184,,,,,,,,,,,,,,,,,,,,,,,,,,,,,,,,,,,,,,,,,,,961.0764469900168,None,2,0.2876095680403523,961.0764469900168,None,,,,,,,,,,,,,,,,None,None,None,,None,None,961.409422177996,None,3,1,0.8704294610070065,961.409422177996,None,962.2757841319078,None,None,None,None,,36,001,2023_Jan_30_1325,searchDisc5,2021.2.3,59.640377360177204,
images/exp2a_trial_168_colour2_distractors19_r.png,r,3,2,19,0,,,,,0,185,185,185,,,,,,,,,,,,,,,,,,,,,,,,,,,,,,,,,,,,,,,,,,,962.2928090470377,None,2,0.2407181469607167,962.2928090470377,None,,,,,,,,,,,,,,,,None,None,None,,None,None,962.575833948038,None,3,1,0.8615399179980159,962.575833948038,None,963.442690842913,None,None,None,None,,36,001,2023_Jan_30_1325,searchDisc5,2021.2.3,59.640377360177204,
images/exp2b_trial_231_colour2_distractors9_r.png,r,3,2,9,0,,,,,0,186,186,186,,,,,,,,,,,,,,,,,,,,,,,,,,,,,,,,,,,,,,,,,,,963.4602021970204,None,2,0.27311555203050375,963.4602021970204,None,,,,,,,,,,,,,,,,None,None,None,,None,None,963.7768769499962,None,3,1,0.8854863829910755,963.7768769499962,None,964.659148097923,None,None,None,None,,36,001,2023_Jan_30_1325,searchDisc5,2021.2.3,59.640377360177204,
images/exp2c_trial_244_colour2_distractors1_l.png,l,1,2,1,0,,,,,0,187,187,187,,,,,,,,,,,,,,,,,,,,,,,,,,,,,,,,,,,,,,,,,,,964.675674794009,None,2,0.25683485297486186,964.675674794009,None,,,,,,,,,,,,,,,,None,None,None,,None,None,964.9790781790507,None,1,1,0.7059921770123765,964.9790781790507,None,965.6760639399406,None,None,None,None,,36,001,2023_Jan_30_1325,searchDisc5,2021.2.3,59.640377360177204,
images/exp1a_trial_306_colour1_distractors19_l.png,l,1,1,19,0,,,,,0,188,188,188,,,,,,,,,,,,,,,,,,,,,,,,,,,,,,,,,,,,,,,,,,,965.6940671449993,None,2,0.36901637102710083,965.6940671449993,None,,,,,,,,,,,,,,,,None,None,None,,None,None,966.1121976710274,None,1,1,1.0177493080263957,966.1121976710274,None,967.1260019079316,None,None,None,None,,36,001,2023_Jan_30_1325,searchDisc5,2021.2.3,59.640377360177204,
images/exp2c_trial_18_colour1_distractors19_l.png,l,1,1,19,0,,,,,0,189,189,189,,,,,,,,,,,,,,,,,,,,,,,,,,,,,,,,,,,,,,,,,,,967.141736272024,None,2,0.2231759550049901,967.141736272024,None,,,,,,,,,,,,,,,,None,None,None,,None,None,967.4092816530028,None,1,1,1.1514603800023906,967.4092816530028,None,968.5593856129096,None,None,None,None,,36,001,2023_Jan_30_1325,searchDisc5,2021.2.3,59.640377360177204,
images/exp2b_trial_308_colour2_distractors1_l.png,l,1,2,1,0,,,,,0,190,190,190,,,,,,,,,,,,,,,,,,,,,,,,,,,,,,,,,,,,,,,,,,,968.5765959200216,None,2,0.22408544400241226,968.5765959200216,None,,,,,,,,,,,,,,,,None,None,None,,None,None,968.8438587920391,None,1,1,0.7196932609658688,968.8438587920391,None,969.5592158419429,None,None,None,None,,36,001,2023_Jan_30_1325,searchDisc5,2021.2.3,59.640377360177204,
images/exp2b_trial_8_colour2_distractors19_r.png,r,3,2,19,0,,,,,0,191,191,191,,,,,,,,,,,,,,,,,,,,,,,,,,,,,,,,,,,,,,,,,,,969.5757450640085,None,2,0.3223298419616185,969.5757450640085,None,,,,,,,,,,,,,,,,None,None,None,,None,None,969.94371675601,None,3,1,0.6682098159799352,969.94371675601,None,970.608943391894,None,None,None,None,,36,001,2023_Jan_30_1325,searchDisc5,2021.2.3,59.640377360177204,
images/exp2a_trial_80_colour1_distractors4_l.png,l,1,1,4,0,,,,,0,192,192,192,,,,,,,,,,,,,,,,,,,,,,,,,,,,,,,,,,,,,,,,,,,970.6259876040276,None,2,0.27157774701481685,970.6259876040276,None,,,,,,,,,,,,,,,,None,None,None,,None,None,970.9424096190487,None,1,1,0.7890767310163938,970.9424096190487,None,971.7251519919489,None,None,None,None,,36,001,2023_Jan_30_1325,searchDisc5,2021.2.3,59.640377360177204,
images/exp1a_trial_273_colour1_distractors9_l.png,l,1,1,9,0,,,,,0,193,193,193,,,,,,,,,,,,,,,,,,,,,,,,,,,,,,,,,,,,,,,,,,,971.7428561950219,None,2,0.23727899801451713,971.7428561950219,None,,,,,,,,,,,,,,,,None,None,None,,None,None,972.0270690900506,None,1,1,1.2040805449942127,972.0270690900506,None,973.2261660429183,None,None,None,None,,36,001,2023_Jan_30_1325,searchDisc5,2021.2.3,59.640377360177204,
images/exp2b_trial_307_colour1_distractors31_l.png,l,1,1,31,0,,,,,0,194,194,194,,,,,,,,,,,,,,,,,,,,,,,,,,,,,,,,,,,,,,,,,,,973.2432754950132,None,2,0.355298304988537,973.2432754950132,None,,,,,,,,,,,,,,,,None,None,None,,None,None,973.6437220130465,None,1,1,0.9522940060123801,973.6437220130465,None,974.5927673369413,None,None,None,None,,36,001,2023_Jan_30_1325,searchDisc5,2021.2.3,59.640377360177204,
images/exp2c_trial_317_colour3_distractors31_l.png,l,1,3,31,0,,,,,0,195,195,195,,,,,,,,,,,,,,,,,,,,,,,,,,,,,,,,,,,,,,,,,,,974.6096814170014,None,2,0.22337838698877022,974.6096814170014,None,,,,,,,,,,,,,,,,None,None,None,,None,None,974.8790473450208,None,1,1,1.834306363016367,974.8790473450208,None,976.7095076109515,None,None,None,None,,36,001,2023_Jan_30_1325,searchDisc5,2021.2.3,59.640377360177204,
images/exp2b_trial_173_colour3_distractors19_r.png,r,3,3,19,0,,,,,0,196,196,196,,,,,,,,,,,,,,,,,,,,,,,,,,,,,,,,,,,,,,,,,,,976.726649401011,None,2,0.20455906295683235,976.726649401011,None,,,,,,,,,,,,,,,,None,None,None,,None,None,976.977242506051,None,3,1,0.802002394979354,976.977242506051,None,977.7761492099496,None,None,None,None,,36,001,2023_Jan_30_1325,searchDisc5,2021.2.3,59.640377360177204,
images/exp2a_trial_48_colour1_distractors4_l.png,l,1,1,4,0,,,,,0,197,197,197,,,,,,,,,,,,,,,,,,,,,,,,,,,,,,,,,,,,,,,,,,,977.7926431320375,None,2,0.2545735070016235,977.7926431320375,None,,,,,,,,,,,,,,,,None,None,None,,None,None,978.0929099670029,None,1,1,0.955750087974593,978.0929099670029,None,979.0429531539091,None,None,None,None,,36,001,2023_Jan_30_1325,searchDisc5,2021.2.3,59.640377360177204,
images/exp2c_trial_211_colour1_distractors31_l.png,l,1,1,31,0,,,,,0,198,198,198,,,,,,,,,,,,,,,,,,,,,,,,,,,,,,,,,,,,,,,,,,,979.0589720860007,None,2,0.24067934596678242,979.0589720860007,None,,,,,,,,,,,,,,,,None,None,None,,None,None,979.3459216680494,None,1,1,1.050696613965556,979.3459216680494,None,980.3929049508995,None,None,None,None,,36,001,2023_Jan_30_1325,searchDisc5,2021.2.3,59.640377360177204,
images/exp1a_trial_311_colour2_distractors19_l.png,l,1,2,19,0,,,,,0,199,199,199,,,,,,,,,,,,,,,,,,,,,,,,,,,,,,,,,,,,,,,,,,,980.4097440410405,None,2,0.2396617840277031,980.4097440410405,None,,,,,,,,,,,,,,,,None,None,None,,None,None,980.6936291960301,None,1,1,0.7994441490154713,980.6936291960301,None,981.4930412509245,None,None,None,None,,36,001,2023_Jan_30_1325,searchDisc5,2021.2.3,59.640377360177204,
images/exp2b_trial_219_colour3_distractors9_l.png,l,1,3,9,0,,,,,0,200,200,200,,,,,,,,,,,,,,,,,,,,,,,,,,,,,,,,,,,,,,,,,,,981.5089505740325,None,2,0.23772516997996718,981.5089505740325,None,,,,,,,,,,,,,,,,None,None,None,,None,None,981.7940831390442,None,1,1,0.8036782360286452,981.7940831390442,None,982.5930789879174,None,None,None,None,,36,001,2023_Jan_30_1325,searchDisc5,2021.2.3,59.640377360177204,
images/exp1a_trial_182_colour2_distractors9_l.png,l,1,2,9,0,,,,,0,201,201,201,,,,,,,,,,,,,,,,,,,,,,,,,,,,,,,,,,,,,,,,,,,982.6113235190278,None,2,0.23704772896599025,982.6113235190278,None,,,,,,,,,,,,,,,,None,None,None,,None,None,982.8937043130281,None,1,1,0.8365067619597539,982.8937043130281,None,983.726186345925,None,None,None,None,,36,001,2023_Jan_30_1325,searchDisc5,2021.2.3,59.640377360177204,
images/exp1a_trial_144_colour1_distractors4_l.png,l,1,1,4,0,,,,,0,202,202,202,,,,,,,,,,,,,,,,,,,,,,,,,,,,,,,,,,,,,,,,,,,983.7425636690459,None,2,0.22053797997068614,983.7425636690459,None,,,,,,,,,,,,,,,,None,None,None,,None,None,984.0098425630131,None,1,1,0.7847175179631449,984.0098425630131,None,984.7930389379151,None,None,None,None,,36,001,2023_Jan_30_1325,searchDisc5,2021.2.3,59.640377360177204,
images/exp2a_trial_138_colour3_distractors1_r.png,r,3,3,1,0,,,,,0,203,203,203,,,,,,,,,,,,,,,,,,,,,,,,,,,,,,,,,,,,,,,,,,,984.810428553028,None,2,0.22108842799207196,984.810428553028,None,,,,,,,,,,,,,,,,None,None,None,,None,None,985.0769524780335,None,3,1,0.7556869199615903,985.0769524780335,None,985.8264900309266,None,None,None,None,,36,001,2023_Jan_30_1325,searchDisc5,2021.2.3,59.640377360177204,
images/exp2b_trial_117_colour2_distractors4_l.png,l,1,2,4,0,,,,,0,204,204,204,,,,,,,,,,,,,,,,,,,,,,,,,,,,,,,,,,,,,,,,,,,985.8437183470232,None,2,0.27112680400023237,985.8437183470232,None,,,,,,,,,,,,,,,,None,None,None,,None,None,986.1593992609996,None,1,1,0.9563549009617418,986.1593992609996,None,987.1107422249158,None,None,None,None,,36,001,2023_Jan_30_1325,searchDisc5,2021.2.3,59.640377360177204,
images/exp2b_trial_261_colour2_distractors1_r.png,r,3,2,1,0,,,,,0,205,205,205,,,,,,,,,,,,,,,,,,,,,,,,,,,,,,,,,,,,,,,,,,,987.1271295570186,None,2,0.23972305899951607,987.1271295570186,None,,,,,,,,,,,,,,,,None,None,None,,None,None,987.412251848029,None,3,1,0.6841561749461107,987.412251848029,None,988.092458227952,None,None,None,None,,36,001,2023_Jan_30_1325,searchDisc5,2021.2.3,59.640377360177204,
images/exp2c_trial_174_colour3_distractors31_r.png,r,3,3,31,0,,,,,0,206,206,206,,,,,,,,,,,,,,,,,,,,,,,,,,,,,,,,,,,,,,,,,,,988.1106383430306,None,2,0.2867330600274727,988.1106383430306,None,,,,,,,,,,,,,,,,None,None,None,,None,None,988.4430671640439,None,3,1,0.8001629810314626,988.4430671640439,None,989.2432694979477,None,None,None,None,,36,001,2023_Jan_30_1325,searchDisc5,2021.2.3,59.640377360177204,
images/exp2b_trial_40_colour2_distractors19_r.png,r,3,2,19,0,,,,,0,207,207,207,,,,,,,,,,,,,,,,,,,,,,,,,,,,,,,,,,,,,,,,,,,989.2603639350273,None,2,0.2710040590027347,989.2603639350273,None,,,,,,,,,,,,,,,,None,None,None,,None,None,989.5767860680353,None,3,1,0.786598862032406,989.5767860680353,None,990.3600145359057,None,None,None,None,,36,001,2023_Jan_30_1325,searchDisc5,2021.2.3,59.640377360177204,
images/exp2c_trial_94_colour0_distractors0_r.png,r,3,0,0,0,,,,,0,208,208,208,,,,,,,,,,,,,,,,,,,,,,,,,,,,,,,,,,,,,,,,,,,990.3773684049957,None,2,0.27011003001825884,990.3773684049957,None,,,,,,,,,,,,,,,,None,None,None,,None,None,990.6933189170086,None,3,1,0.6736133309896104,990.6933189170086,None,991.3599540799157,None,None,None,None,,36,001,2023_Jan_30_1325,searchDisc5,2021.2.3,59.640377360177204,
images/exp1a_trial_39_colour2_distractors9_r.png,r,3,2,9,0,,,,,0,209,209,209,,,,,,,,,,,,,,,,,,,,,,,,,,,,,,,,,,,,,,,,,,,991.3760858200258,None,2,0.27109950699377805,991.3760858200258,None,,,,,,,,,,,,,,,,None,None,None,,None,None,991.694075906009,None,3,1,0.9040845059789717,991.694075906009,None,992.5933230179478,None,None,None,None,,36,001,2023_Jan_30_1325,searchDisc5,2021.2.3,59.640377360177204,
images/exp2c_trial_225_colour1_distractors4_r.png,r,3,1,4,0,,,,,0,210,210,210,,,,,,,,,,,,,,,,,,,,,,,,,,,,,,,,,,,,,,,,,,,992.6096886160085,None,2,0.30597181600751355,992.6096886160085,None,,,,,,,,,,,,,,,,None,None,None,,None,None,992.9606365300133,None,3,1,1.137663406028878,992.9606365300133,None,994.0934166829218,None,None,None,None,,36,001,2023_Jan_30_1325,searchDisc5,2021.2.3,59.640377360177204,
images/exp2c_trial_189_colour3_distractors31_l.png,l,1,3,31,0,,,,,0,211,211,211,,,,,,,,,,,,,,,,,,,,,,,,,,,,,,,,,,,,,,,,,,,994.109787777008,None,2,0.2565706620225683,994.109787777008,None,,,,,,,,,,,,,,,,None,None,None,,None,None,994.4101918530068,None,1,1,1.0176646939944476,994.4101918530068,None,995.4267542939167,None,None,None,None,,36,001,2023_Jan_30_1325,searchDisc5,2021.2.3,59.640377360177204,
images/exp2a_trial_207_colour1_distractors1_l.png,l,1,1,1,0,,,,,0,212,212,212,,,,,,,,,,,,,,,,,,,,,,,,,,,,,,,,,,,,,,,,,,,995.4437159899971,None,2,0.24184716801391914,995.4437159899971,None,,,,,,,,,,,,,,,,None,None,None,,None,None,995.7278428000282,None,1,1,0.8680915270233527,995.7278428000282,None,996.592759617907,None,None,None,None,,36,001,2023_Jan_30_1325,searchDisc5,2021.2.3,59.640377360177204,
images/exp1a_trial_208_colour1_distractors4_l.png,l,1,1,4,0,,,,,0,213,213,213,,,,,,,,,,,,,,,,,,,,,,,,,,,,,,,,,,,,,,,,,,,996.6124826780288,None,2,0.23736524197738618,996.6124826780288,None,,,,,,,,,,,,,,,,None,None,None,,None,None,996.8935346970102,None,1,1,0.956002720980905,996.8935346970102,None,997.8436744459439,None,None,None,None,,36,001,2023_Jan_30_1325,searchDisc5,2021.2.3,59.640377360177204,
images/exp2c_trial_57_colour3_distractors1_l.png,l,1,3,1,0,,,,,0,214,214,214,,,,,,,,,,,,,,,,,,,,,,,,,,,,,,,,,,,,,,,,,,,997.8608801570372,None,2,0.2219505489920266,997.8608801570372,None,,,,,,,,,,,,,,,,None,None,None,,None,None,998.1275510150008,None,1,1,1.1718502559815533,998.1275510150008,None,999.2935410658945,None,None,None,None,,36,001,2023_Jan_30_1325,searchDisc5,2021.2.3,59.640377360177204,
images/exp1a_trial_28_colour3_distractors19_l.png,l,1,3,19,0,,,,,0,215,215,215,,,,,,,,,,,,,,,,,,,,,,,,,,,,,,,,,,,,,,,,,,,999.3128061510506,None,2,0.2553542290115729,999.3128061510506,None,,,,,,,,,,,,,,,,None,None,None,,None,None,999.6109442450106,None,1,1,0.9180266499752179,999.6109442450106,None,1000.5269447469152,None,None,None,None,,36,001,2023_Jan_30_1325,searchDisc5,2021.2.3,59.640377360177204,
images/exp1a_trial_201_colour2_distractors31_r.png,r,3,2,31,0,,,,,0,216,216,216,,,,,,,,,,,,,,,,,,,,,,,,,,,,,,,,,,,,,,,,,,,1000.5439617620432,None,2,0.2211673110141419,1000.5439617620432,None,,,,,,,,,,,,,,,,None,None,None,,None,None,1000.8109587680083,None,3,1,0.8838429920142516,1000.8109587680083,None,1001.6937515119323,None,None,None,None,,36,001,2023_Jan_30_1325,searchDisc5,2021.2.3,59.640377360177204,
images/exp2a_trial_100_colour1_distractors31_r.png,r,3,1,31,0,,,,,0,217,217,217,,,,,,,,,,,,,,,,,,,,,,,,,,,,,,,,,,,,,,,,,,,1001.7121948050335,None,2,0.23864520899951458,1001.7121948050335,None,,,,,,,,,,,,,,,,None,None,None,,None,None,1001.9939225240378,None,3,1,1.6347516790265217,1001.9939225240378,None,1003.626989710913,None,None,None,None,,36,001,2023_Jan_30_1325,searchDisc5,2021.2.3,59.640377360177204,
images/exp2a_trial_150_colour2_distractors9_l.png,l,1,2,9,0,,,,,0,218,218,218,,,,,,,,,,,,,,,,,,,,,,,,,,,,,,,,,,,,,,,,,,,1003.6454735100269,None,2,0.2707153870142065,1003.6454735100269,None,,,,,,,,,,,,,,,,None,None,None,,None,None,1003.9610568380449,None,1,1,0.7515349090099335,1003.9610568380449,None,1004.7102797109517,None,None,None,None,,36,001,2023_Jan_30_1325,searchDisc5,2021.2.3,59.640377360177204,
images/exp2c_trial_64_colour1_distractors1_r.png,r,3,1,1,0,,,,,0,219,219,219,,,,,,,,,,,,,,,,,,,,,,,,,,,,,,,,,,,,,,,,,,,1004.7277374690166,None,2,0.22369196498766541,1004.7277374690166,None,,,,,,,,,,,,,,,,None,None,None,,None,None,1004.9932795370114,None,3,1,0.7885433050105348,1004.9932795370114,None,1005.7782832109485,None,None,None,None,,36,001,2023_Jan_30_1325,searchDisc5,2021.2.3,59.640377360177204,
images/exp2a_trial_180_colour2_distractors1_l.png,l,1,2,1,0,,,,,0,220,220,220,,,,,,,,,,,,,,,,,,,,,,,,,,,,,,,,,,,,,,,,,,,1005.7926768180332,None,2,0.27009971701772884,1005.7926768180332,None,,,,,,,,,,,,,,,,None,None,None,,None,None,1006.1109051650274,None,1,1,0.7233343189582229,1006.1109051650274,None,1006.8270770979113,None,None,None,None,,36,001,2023_Jan_30_1325,searchDisc5,2021.2.3,59.640377360177204,
images/exp2c_trial_215_colour2_distractors19_l.png,l,1,2,19,0,,,,,0,221,221,221,,,,,,,,,,,,,,,,,,,,,,,,,,,,,,,,,,,,,,,,,,,1006.8436487090075,None,2,0.23755859403172508,1006.8436487090075,None,,,,,,,,,,,,,,,,None,None,None,,None,None,1007.1278504080256,None,1,1,0.9364474169560708,1007.1278504080256,None,1008.0603337789187,None,None,None,None,,36,001,2023_Jan_30_1325,searchDisc5,2021.2.3,59.640377360177204,
images/exp2a_trial_41_colour2_distractors31_r.png,r,3,2,31,0,,,,,0,222,222,222,,,,,,,,,,,,,,,,,,,,,,,,,,,,,,,,,,,,,,,,,,,1008.0768627930083,None,2,0.25461439101491123,1008.0768627930083,None,,,,,,,,,,,,,,,,None,None,None,,None,None,1008.3763226430165,None,3,1,0.828542536997702,1008.3763226430165,None,1009.2097704839077,None,None,None,None,,36,001,2023_Jan_30_1325,searchDisc5,2021.2.3,59.640377360177204,
images/exp2b_trial_258_colour1_distractors9_r.png,r,3,1,9,0,,,,,0,223,223,223,,,,,,,,,,,,,,,,,,,,,,,,,,,,,,,,,,,,,,,,,,,1009.2270958760055,None,2,0.2726206529769115,1009.2270958760055,None,,,,,,,,,,,,,,,,None,None,None,,None,None,1009.5430167940212,None,3,1,0.8710678319912404,1009.5430167940212,None,1010.411595123948,None,None,None,None,,36,001,2023_Jan_30_1325,searchDisc5,2021.2.3,59.640377360177204,
images/exp2c_trial_0_colour1_distractors1_r.png,r,3,1,1,0,,,,,0,224,224,224,,,,,,,,,,,,,,,,,,,,,,,,,,,,,,,,,,,,,,,,,,,1010.4279448920279,None,2,0.2557908540475182,1010.4279448920279,None,,,,,,,,,,,,,,,,None,None,None,,None,None,1010.7276859920239,None,3,1,0.8232024220051244,1010.7276859920239,None,1011.5450367109268,None,None,None,None,,36,001,2023_Jan_30_1325,searchDisc5,2021.2.3,59.640377360177204,
images/exp2c_trial_22_colour2_distractors9_l.png,l,1,2,9,0,,,,,0,225,225,225,,,,,,,,,,,,,,,,,,,,,,,,,,,,,,,,,,,,,,,,,,,1011.561178693024,None,2,0.26801921700825915,1011.561178693024,None,,,,,,,,,,,,,,,,None,None,None,,None,None,1011.8772317350376,None,1,1,0.7881483950186521,1011.8772317350376,None,1012.6605912899365,None,None,None,None,,36,001,2023_Jan_30_1325,searchDisc5,2021.2.3,59.640377360177204,
