ImageFile,targ_side,correctAnswer,exp,trial,colour,distNo,trials_2.thisRepN,trials_2.thisTrialN,trials_2.thisN,trials_2.thisIndex,trials.thisRepN,trials.thisTrialN,trials.thisN,trials.thisIndex,X Scale,Y Scale,text_top.started,text_top.stopped,text_bottom.started,text_bottom.stopped,ccimage.started,ccimage.stopped,text_6.started,text_6.stopped,key_resp_10.keys,key_resp_10.rt,key_resp_10.started,key_resp_10.stopped,text_7.started,text_7.stopped,key_resp_11.keys,key_resp_11.rt,key_resp_11.started,key_resp_11.stopped,text_8.started,text_8.stopped,key_resp_12.keys,key_resp_12.rt,key_resp_12.started,key_resp_12.stopped,text_9.started,text_9.stopped,key_resp_13.keys,key_resp_13.rt,key_resp_13.started,key_resp_13.stopped,text_2.started,text_2.stopped,key_resp_5.keys,key_resp_5.rt,key_resp_5.started,key_resp_5.stopped,text_5.started,text_5.stopped,key_resp_8.keys,key_resp_8.rt,key_resp_8.started,key_resp_8.stopped,image_2.started,image_2.stopped,key_resp_6.keys,key_resp_6.rt,key_resp_6.started,key_resp_6.stopped,text_3.started,text_3.stopped,image_3.started,image_3.stopped,fix.started,fix.stopped,key_resp_7.keys,key_resp_7.rt,key_resp_7.started,key_resp_7.stopped,image.started,image.stopped,key_resp_4.keys,key_resp_4.corr,key_resp_4.started,key_resp_4.stopped,text_4.started,text_4.stopped,key_resp_4.rt,text.started,text.stopped,key_resp_3.keys,key_resp_3.rt,key_resp_3.started,key_resp_3.stopped,fix2experiment.started,fix2experiment.stopped,key_resp_9.keys,key_resp_9.rt,key_resp_9.started,key_resp_9.stopped,dispStimuli.started,dispStimuli.stopped,key_resp_2.keys,key_resp_2.corr,key_resp_2.rt,key_resp_2.started,key_resp_2.stopped,breakMessage.started,breakMessage.stopped,key_resp.keys,key_resp.started,key_resp.stopped,key_resp.rt,participant,session,date,expName,psychopyVersion,frameRate,
,,,,,,,,,,,,,,,55.2,51.3,10.4262399719737,None,10.4262399719737,None,10.4262399719737,None,71.17741954498342,None,space,7.113189277995843,71.17741954498342,None,,,,,,,,,,,,,,,,,,,,,,,,,,,,,,,,,,,,,,,,,,,,,,,,,,,,,,,,,,,,,,,,,,,,,,,,,,,,,,,,,1,001,2021_Nov_01_1418,searchDisc4,2021.2.3,60.00805488875046,
,,,,,,,,,,,,,,,,,,,,,,,,,,,,,78.31091565999668,None,space,21.132671592989936,78.31091565999668,None,,,,,,,,,,,,,,,,,,,,,,,,,,,,,,,,,,,,,,,,,,,,,,,,,,,,,,,,,,,,,,,,,,,,,,,,,,,1,001,2021_Nov_01_1418,searchDisc4,2021.2.3,60.00805488875046,
,,,,,,,,,,,,,,,,,,,,,,,,,,,,,,,,,,,99.46162966798875,None,space,2.334061030007433,99.46162966798875,None,,,,,,,,,,,,,,,,,,,,,,,,,,,,,,,,,,,,,,,,,,,,,,,,,,,,,,,,,,,,,,,,,,,,,1,001,2021_Nov_01_1418,searchDisc4,2021.2.3,60.00805488875046,
,,,,,,,,,,,,,,,,,,,,,,,,,,,,,,,,,,,,,,,,,101.82816644199193,None,space,5.095760675991187,101.82816644199193,None,,,,,,,,,,,,,,,,,,,,,,,,,,,,,,,,,,,,,,,,,,,,,,,,,,,,,,,,,,,,,,,1,001,2021_Nov_01_1418,searchDisc4,2021.2.3,60.00805488875046,
,,,,,,,,,,,,,,,,,,,,,,,,,,,,,,,,,,,,,,,,,,,,,,,106.9449276139785,None,space,5.540401153004495,107.9118278749811,None,,,,,,,,,,,,,,,,,,,,,,,,,,,,,,,,,,,,,,,,,,,,,,,,,,,,,,,,,1,001,2021_Nov_01_1418,searchDisc4,2021.2.3,60.00805488875046,
,,,,,,,,,,,,,,,,,,,,,,,,,,,,,,,,,,,,,,,,,,,,,,,,,,,,,113.47884064898244,None,space,12.653956387017388,113.47884064898244,None,,,,,,,,,,,,,,,,,,,,,,,,,,,,,,,,,,,,,,,,,,,,,,,,,,,1,001,2021_Nov_01_1418,searchDisc4,2021.2.3,60.00805488875046,
,,,,,,,,,,,,,,,,,,,,,,,,,,,,,,,,,,,,,,,,,,,,,,,,,,,,,,,,,,,126.16216353100026,None,space,5.82768780097831,127.14545209897915,None,,,,,,,,,,,,,,,,,,,,,,,,,,,,,,,,,,,,,,,,,,,,,1,001,2021_Nov_01_1418,searchDisc4,2021.2.3,60.00805488875046,
Practice arrays/exp1a_trial_30_colour0_distractors0_r.png,r,j,,,,,0,0,0,14,,,,,,,,,,,,,,,,,,,,,,,,,,,,,,,,,,,,,,,,,,,,,,,,,,,,,,,126.16216353100026,None,126.16216353100026,None,133.0122077309934,None,space,20.697880475985585,133.0122077309934,None,153.7965450139891,None,None,0,153.7965450139891,None,158.74447723297635,None,,,,,,,,,,,,,,,,,,,,,,,,,,,1,001,2021_Nov_01_1418,searchDisc4,2021.2.3,60.00805488875046,
Practice arrays/exp1a_trial_0_colour1_distractors1_r.png,r,j,,,,,0,1,1,0,,,,,,,,,,,,,,,,,,,,,,,,,,,,,,,,,,,,,,,,,,,,,,,,,,,,,,,,,,,159.7464167509752,None,space,10.644428812986007,159.7464167509752,None,170.46391297897208,None,j,1,170.46391297897208,None,172.7609687979857,None,2.2710585099994205,,,,,,,,,,,,,,,,,,,,,,,,,,1,001,2021_Nov_01_1418,searchDisc4,2021.2.3,60.00805488875046,
Practice arrays/exp1a_trial_14_colour3_distractors31_r.png,r,j,,,,,0,2,2,6,,,,,,,,,,,,,,,,,,,,,,,,,,,,,,,,,,,,,,,,,,,,,,,,,,,,,,,,,,,173.76350051999907,None,space,1.1795126640063245,173.76350051999907,None,175.02058819998638,None,j,1,175.02058819998638,None,177.39498342497973,None,2.346574030991178,,,,,,,,,,,,,,,,,,,,,,,,,,1,001,2021_Nov_01_1418,searchDisc4,2021.2.3,60.00805488875046,
Practice arrays/exp1a_trial_16_colour1_distractors4_l.png,l,f,,,,,0,3,3,13,,,,,,,,,,,,,,,,,,,,,,,,,,,,,,,,,,,,,,,,,,,,,,,,,,,,,,,,,,,178.39688669898896,None,space,0.6263537719787564,178.39688669898896,None,179.0983231269929,None,f,1,179.0983231269929,None,180.1783901169838,None,1.0609535699768458,,,,,,,,,,,,,,,,,,,,,,,,,,1,001,2021_Nov_01_1418,searchDisc4,2021.2.3,60.00805488875046,
Practice arrays/exp1a_trial_23_colour2_distractors19_l.png,l,f,,,,,0,4,4,10,,,,,,,,,,,,,,,,,,,,,,,,,,,,,,,,,,,,,,,,,,,,,,,,,,,,,,,,,,,181.1783212099981,None,space,0.5170129280013498,181.1783212099981,None,181.76665188698098,None,f,1,181.76665188698098,None,182.66181107697776,None,0.8727199800196104,,,,,,,,,,,,,,,,,,,,,,,,,,1,001,2021_Nov_01_1418,searchDisc4,2021.2.3,60.00805488875046,
Practice arrays/exp1a_trial_25_colour3_distractors1_l.png,l,f,,,,,0,5,5,11,,,,,,,,,,,,,,,,,,,,,,,,,,,,,,,,,,,,,,,,,,,,,,,,,,,,,,,,,,,183.66345134397852,None,space,6.0802904659940396,183.66345134397852,None,189.8121220629837,None,f,1,189.8121220629837,None,191.27863936198992,None,1.435664563003229,,,,,,,,,,,,,,,,,,,,,,,,,,1,001,2021_Nov_01_1418,searchDisc4,2021.2.3,60.00805488875046,
Practice arrays/exp1a_trial_1_colour1_distractors4_r.png,r,j,,,,,0,6,6,1,,,,,,,,,,,,,,,,,,,,,,,,,,,,,,,,,,,,,,,,,,,,,,,,,,,,,,,,,,,192.28071097499924,None,space,0.4951574000006076,192.28071097499924,None,192.84756411999115,None,j,1,192.84756411999115,None,193.99553633399773,None,1.1283489810011815,,,,,,,,,,,,,,,,,,,,,,,,,,1,001,2021_Nov_01_1418,searchDisc4,2021.2.3,60.00805488875046,
Practice arrays/exp1a_trial_8_colour2_distractors19_r.png,r,j,,,,,0,7,7,3,,,,,,,,,,,,,,,,,,,,,,,,,,,,,,,,,,,,,,,,,,,,,,,,,,,,,,,,,,,194.99761196799227,None,space,0.4423649880045559,194.99761196799227,None,195.51417959897663,None,j,1,195.51417959897663,None,196.6454234639823,None,1.1018529810244218,,,,,,,,,,,,,,,,,,,,,,,,,,1,001,2021_Nov_01_1418,searchDisc4,2021.2.3,60.00805488875046,
Practice arrays/exp1a_trial_18_colour1_distractors19_l.png,l,f,,,,,0,8,8,8,,,,,,,,,,,,,,,,,,,,,,,,,,,,,,,,,,,,,,,,,,,,,,,,,,,,,,,,,,,197.64745579697774,None,space,0.1046234289824497,197.64745579697774,None,197.8311262469797,None,f,1,197.8311262469797,None,198.86228215397568,None,1.0010094360040966,,,,,,,,,,,,,,,,,,,,,,,,,,1,001,2021_Nov_01_1418,searchDisc4,2021.2.3,60.00805488875046,
Practice arrays/exp1a_trial_10_colour3_distractors1_r.png,r,j,,,,,0,9,9,4,,,,,,,,,,,,,,,,,,,,,,,,,,,,,,,,,,,,,,,,,,,,,,,,,,,,,,,,,,,199.86447579297237,None,space,0.6157363819947932,199.86447579297237,None,200.54788184797508,None,j,1,200.54788184797508,None,201.77895602499484,None,1.2123762459959835,,,,,,,,,,,,,,,,,,,,,,,,,,1,001,2021_Nov_01_1418,searchDisc4,2021.2.3,60.00805488875046,
Practice arrays/exp1a_trial_12_colour3_distractors9_r.png,r,j,,,,,0,10,10,5,,,,,,,,,,,,,,,,,,,,,,,,,,,,,,,,,,,,,,,,,,,,,,,,,,,,,,,,,,,202.7809584059869,None,space,0.5154035929881502,202.7809584059869,None,203.36444674700033,None,j,1,203.36444674700033,None,204.42899532499723,None,1.0439313520037103,,,,,,,,,,,,,,,,,,,,,,,,,,1,001,2021_Nov_01_1418,searchDisc4,2021.2.3,60.00805488875046,
Practice arrays/exp1a_trial_7_colour2_distractors9_r.png,r,j,,,,,0,11,11,2,,,,,,,,,,,,,,,,,,,,,,,,,,,,,,,,,,,,,,,,,,,,,,,,,,,,,,,,,,,205.43100450898055,None,space,0.3774480800202582,205.43100450898055,None,205.88116979398183,None,j,1,205.88116979398183,None,206.82904135697754,None,0.9193380039941985,,,,,,,,,,,,,,,,,,,,,,,,,,1,001,2021_Nov_01_1418,searchDisc4,2021.2.3,60.00805488875046,
Practice arrays/exp1a_trial_21_colour2_distractors4_l.png,l,f,,,,,0,12,12,9,,,,,,,,,,,,,,,,,,,,,,,,,,,,,,,,,,,,,,,,,,,,,,,,,,,,,,,,,,,207.829102949996,None,space,0.1634526739944704,207.829102949996,None,208.06466149399057,None,f,1,208.06466149399057,None,208.71240553897223,None,0.6159482779912651,,,,,,,,,,,,,,,,,,,,,,,,,,1,001,2021_Nov_01_1418,searchDisc4,2021.2.3,60.00805488875046,
Practice arrays/exp1a_trial_31_colour0_distractors0_l.png,l,f,,,,,0,13,13,15,,,,,,,,,,,,,,,,,,,,,,,,,,,,,,,,,,,,,,,,,,,,,,,,,,,,,,,,,,,209.71447972598253,None,space,0.3261693429958541,209.71447972598253,None,210.11486987298122,None,f,1,210.11486987298122,None,211.09584017298766,None,0.9498273270146456,,,,,,,,,,,,,,,,,,,,,,,,,,1,001,2021_Nov_01_1418,searchDisc4,2021.2.3,60.00805488875046,
Practice arrays/exp1a_trial_17_colour1_distractors9_l.png,l,f,,,,,0,14,14,7,,,,,,,,,,,,,,,,,,,,,,,,,,,,,,,,,,,,,,,,,,,,,,,,,,,,,,,,,,,212.09811047598487,None,space,0.5506678549863864,212.09811047598487,None,212.73144644798595,None,f,1,212.73144644798595,None,213.47956704098033,None,0.7173557300120592,,,,,,,,,,,,,,,,,,,,,,,,,,1,001,2021_Nov_01_1418,searchDisc4,2021.2.3,60.00805488875046,
Practice arrays/exp1a_trial_27_colour3_distractors9_l.png,l,f,,,,,0,15,15,12,,,,,,,,,,,,,,,,,,,,,,,,,,,,,,,,,,,,,,,,,,,,,,,,,,,,,,,,,,,214.4813293639745,None,space,0.11152639897773042,214.4813293639745,None,214.66484919199138,None,f,1,214.66484919199138,None,215.26263045700034,None,0.576037685998017,,,,,,,,,,,,,,,,,,,,,,,,,,1,001,2021_Nov_01_1418,searchDisc4,2021.2.3,60.00805488875046,
,,,,,,,,,,,,,,,,,,,,,,,,,,,,,,,,,,,,,,,,,,,,,,,,,,,,,,,,,,,,,,,,,,,,,,,,,,,,,,,,,,,,216.33202909198008,None,space,3.581772774021374,219.3314460569818,None,,,,,,,,,,,,,,,,,,,,1,001,2021_Nov_01_1418,searchDisc4,2021.2.3,60.00805488875046,
images/exp2c_trial_155_colour3_distractors9_l.png,l,f,2c,155,3,9,,,,,0,0,0,8,,,,,,,,,,,,,,,,,,,,,,,,,,,,,,,,,,,,,,,,,,,,,,,,,,,,,,,,,,,,,,,,,,,,,,,,,,,,223.33127530597267,None,space,0.7900206719932612,223.33127530597267,None,224.20502264497918,None,f,1,1.0603265230020043,224.20502264497918,None,225.29651740277768,None,None,225.29651740277768,None,,1,001,2021_Nov_01_1418,searchDisc4,2021.2.3,60.00805488875046,
images/exp1a_trial_154_colour3_distractors4_l.png,l,f,1a,154,3,4,,,,,0,1,1,199,,,,,,,,,,,,,,,,,,,,,,,,,,,,,,,,,,,,,,,,,,,,,,,,,,,,,,,,,,,,,,,,,,,,,,,,,,,,225.31518440699438,None,space,1.646207134006545,225.31518440699438,None,227.03144719297416,None,f,1,1.034015493991319,227.03144719297416,None,228.09653015978984,None,None,228.09653015978984,None,,1,001,2021_Nov_01_1418,searchDisc4,2021.2.3,60.00805488875046,
images/exp2b_trial_43_colour3_distractors4_r.png,r,j,2b,43,3,4,,,,,0,2,2,664,,,,,,,,,,,,,,,,,,,,,,,,,,,,,,,,,,,,,,,,,,,,,,,,,,,,,,,,,,,,,,,,,,,,,,,,,,,,228.09643155697268,None,space,0.7770210059825331,228.09643155697268,None,228.94853194997995,None,j,1,0.8770265399944037,228.94853194997995,None,229.84686740578036,None,None,229.84686740578036,None,,1,001,2021_Nov_01_1418,searchDisc4,2021.2.3,60.00805488875046,
images/exp2c_trial_46_colour3_distractors31_r.png,r,j,2c,46,3,31,,,,,0,3,3,859,,,,,,,,,,,,,,,,,,,,,,,,,,,,,,,,,,,,,,,,,,,,,,,,,,,,,,,,,,,,,,,,,,,,,,,,,,,,229.84661225698073,None,space,0.7629092739953194,229.84661225698073,None,230.6819779049838,None,j,1,1.4396852139907423,230.6819779049838,None,232.14617679378716,None,None,232.14617679378716,None,,1,001,2021_Nov_01_1418,searchDisc4,2021.2.3,60.00805488875046,
images/exp2c_trial_33_colour1_distractors4_r.png,r,j,2c,33,1,4,,,,,0,4,4,846,,,,,,,,,,,,,,,,,,,,,,,,,,,,,,,,,,,,,,,,,,,,,,,,,,,,,,,,,,,,,,,,,,,,,,,,,,,,232.14644167898223,None,space,0.6872065299830865,232.14644167898223,None,232.91532426397316,None,j,1,0.8784147810074501,232.91532426397316,None,233.81294092879398,None,None,233.81294092879398,None,,1,001,2021_Nov_01_1418,searchDisc4,2021.2.3,60.00805488875046,
images/exp2b_trial_84_colour2_distractors1_l.png,l,f,2b,84,2,1,,,,,0,5,5,705,,,,,,,,,,,,,,,,,,,,,,,,,,,,,,,,,,,,,,,,,,,,,,,,,,,,,,,,,,,,,,,,,,,,,,,,,,,,233.81299593599397,None,space,0.7087026220106054,233.81299593599397,None,234.59629764599958,None,f,1,1.157559603016125,234.59629764599958,None,235.7803310987947,None,None,235.7803310987947,None,,1,001,2021_Nov_01_1418,searchDisc4,2021.2.3,60.00805488875046,
images/exp1b_trial_85_colour2_distractors4_l.png,l,f,1b,85,2,4,,,,,0,6,6,322,,,,,,,,,,,,,,,,,,,,,,,,,,,,,,,,,,,,,,,,,,,,,,,,,,,,,,,,,,,,,,,,,,,,,,,,,,,,235.78008538699942,None,space,0.5737410690053366,235.78008538699942,None,236.43166149198078,None,f,1,1.3063415499927942,236.43166149198078,None,237.76307337277103,None,None,237.76307337277103,None,,1,001,2021_Nov_01_1418,searchDisc4,2021.2.3,60.00805488875046,
images/exp2a_trial_39_colour2_distractors9_r.png,r,j,2a,39,2,9,,,,,0,7,7,468,,,,,,,,,,,,,,,,,,,,,,,,,,,,,,,,,,,,,,,,,,,,,,,,,,,,,,,,,,,,,,,,,,,,,,,,,,,,237.76323041098658,None,space,0.5347542410017923,237.76323041098658,None,238.36578469598317,None,j,1,0.8442969979951158,238.36578469598317,None,239.23053424077807,None,None,239.23053424077807,None,,1,001,2021_Nov_01_1418,searchDisc4,2021.2.3,60.00805488875046,
images/exp2c_trial_66_colour1_distractors9_r.png,r,j,2c,66,1,9,,,,,0,8,8,879,,,,,,,,,,,,,,,,,,,,,,,,,,,,,,,,,,,,,,,,,,,,,,,,,,,,,,,,,,,,,,,,,,,,,,,,,,,,239.2302604689903,None,space,0.5717865820042789,239.2302604689903,None,239.88263611798175,None,j,1,0.8795310790010262,239.88263611798175,None,240.77997273678193,None,None,240.77997273678193,None,,1,001,2021_Nov_01_1418,searchDisc4,2021.2.3,60.00805488875046,
images/exp1b_trial_33_colour1_distractors4_r.png,r,j,1b,33,1,4,,,,,0,9,9,270,,,,,,,,,,,,,,,,,,,,,,,,,,,,,,,,,,,,,,,,,,,,,,,,,,,,,,,,,,,,,,,,,,,,,,,,,,,,240.77979133898043,None,space,0.5903403769771103,240.77979133898043,None,241.44922827999108,None,j,1,1.1848971059953328,241.44922827999108,None,242.6638284647779,None,None,242.6638284647779,None,,1,001,2021_Nov_01_1418,searchDisc4,2021.2.3,60.00805488875046,
images/exp2a_trial_12_colour3_distractors9_r.png,r,j,2a,12,3,9,,,,,0,10,10,441,,,,,,,,,,,,,,,,,,,,,,,,,,,,,,,,,,,,,,,,,,,,,,,,,,,,,,,,,,,,,,,,,,,,,,,,,,,,242.66301386599662,None,space,0.5230857580027077,242.66301386599662,None,243.26837903098203,None,j,1,1.3018776169919875,243.26837903098203,None,244.59698856578325,None,None,244.59698856578325,None,,1,001,2021_Nov_01_1418,searchDisc4,2021.2.3,60.00805488875046,
images/exp2a_trial_73_colour2_distractors31_r.png,r,j,2a,73,2,31,,,,,0,11,11,502,,,,,,,,,,,,,,,,,,,,,,,,,,,,,,,,,,,,,,,,,,,,,,,,,,,,,,,,,,,,,,,,,,,,,,,,,,,,244.61356042599073,None,space,0.4126571280066855,244.61356042599073,None,245.10450045898324,None,j,1,1.1858351490227506,245.10450045898324,None,246.31395590878674,None,None,246.31395590878674,None,,1,001,2021_Nov_01_1418,searchDisc4,2021.2.3,60.00805488875046,
images/exp2a_trial_169_colour2_distractors31_r.png,r,j,2a,169,2,31,,,,,0,12,12,598,,,,,,,,,,,,,,,,,,,,,,,,,,,,,,,,,,,,,,,,,,,,,,,,,,,,,,,,,,,,,,,,,,,,,,,,,,,,246.31326478297706,None,space,0.5770276860275771,246.31326478297706,None,246.9696274639864,None,j,1,0.9688601029920392,246.9696274639864,None,247.96358988879365,None,None,247.96358988879365,None,,1,001,2021_Nov_01_1418,searchDisc4,2021.2.3,60.00805488875046,
images/exp2b_trial_82_colour1_distractors19_l.png,l,f,2b,82,1,19,,,,,0,13,13,703,,,,,,,,,,,,,,,,,,,,,,,,,,,,,,,,,,,,,,,,,,,,,,,,,,,,,,,,,,,,,,,,,,,,,,,,,,,,247.96376938998583,None,space,0.5506056610029191,247.96376938998583,None,248.5824282289832,None,f,1,1.0841303570196033,248.5824282289832,None,249.6974242827855,None,None,249.6974242827855,None,,1,001,2021_Nov_01_1418,searchDisc4,2021.2.3,60.00805488875046,
images/exp2b_trial_23_colour2_distractors19_l.png,l,f,2b,23,2,19,,,,,0,14,14,644,,,,,,,,,,,,,,,,,,,,,,,,,,,,,,,,,,,,,,,,,,,,,,,,,,,,,,,,,,,,,,,,,,,,,,,,,,,,249.69712845099275,None,space,0.5133862509974279,249.69712845099275,None,250.28286101398407,None,f,1,0.8077462090004701,250.28286101398407,None,251.1140742157877,None,None,251.1140742157877,None,,1,001,2021_Nov_01_1418,searchDisc4,2021.2.3,60.00805488875046,
images/exp2c_trial_5_colour2_distractors1_r.png,r,j,2c,5,2,1,,,,,0,15,15,818,,,,,,,,,,,,,,,,,,,,,,,,,,,,,,,,,,,,,,,,,,,,,,,,,,,,,,,,,,,,,,,,,,,,,,,,,,,,251.113950517989,None,space,0.6806557750096545,251.113950517989,None,251.8654100339918,None,j,1,1.0812121859926265,251.8654100339918,None,252.96420410677092,None,None,252.96420410677092,None,,1,001,2021_Nov_01_1418,searchDisc4,2021.2.3,60.00805488875046,
images/exp1b_trial_80_colour1_distractors4_l.png,l,f,1b,80,1,4,,,,,0,16,16,317,,,,,,,,,,,,,,,,,,,,,,,,,,,,,,,,,,,,,,,,,,,,,,,,,,,,,,,,,,,,,,,,,,,,,,,,,,,,252.96416517798207,None,space,0.5985003230161965,252.96416517798207,None,253.6325600669952,None,f,1,0.9141202229948249,253.6325600669952,None,254.5642150627973,None,None,254.5642150627973,None,,1,001,2021_Nov_01_1418,searchDisc4,2021.2.3,60.00805488875046,
images/exp1b_trial_114_colour1_distractors19_l.png,l,f,1b,114,1,19,,,,,0,17,17,351,,,,,,,,,,,,,,,,,,,,,,,,,,,,,,,,,,,,,,,,,,,,,,,,,,,,,,,,,,,,,,,,,,,,,,,,,,,,254.5639465279819,None,space,0.5428034790093079,254.5639465279819,None,255.1830152849725,None,f,1,1.091845914022997,255.1830152849725,None,256.297628081782,None,None,256.297628081782,None,,1,001,2021_Nov_01_1418,searchDisc4,2021.2.3,60.00805488875046,
images/exp1b_trial_11_colour3_distractors4_r.png,r,j,1b,11,3,4,,,,,0,18,18,248,,,,,,,,,,,,,,,,,,,,,,,,,,,,,,,,,,,,,,,,,,,,,,,,,,,,,,,,,,,,,,,,,,,,,,,,,,,,256.2974168389919,None,space,0.45732765601132996,256.2974168389919,None,256.83288163199904,None,j,1,0.9940447359986138,256.83288163199904,None,257.84742505979375,None,None,257.84742505979375,None,,1,001,2021_Nov_01_1418,searchDisc4,2021.2.3,60.00805488875046,
images/exp2c_trial_130_colour1_distractors9_r.png,r,j,2c,130,1,9,,,,,0,19,19,943,,,,,,,,,,,,,,,,,,,,,,,,,,,,,,,,,,,,,,,,,,,,,,,,,,,,,,,,,,,,,,,,,,,,,,,,,,,,257.8475416889996,None,space,0.5473481520020869,257.8475416889996,None,258.4664469479758,None,j,1,1.0804747240035795,258.4664469479758,None,259.5643790967879,None,None,259.5643790967879,None,,1,001,2021_Nov_01_1418,searchDisc4,2021.2.3,60.00805488875046,
images/exp2b_trial_91_colour3_distractors9_l.png,l,f,2b,91,3,9,,,,,0,20,20,712,,,,,,,,,,,,,,,,,,,,,,,,,,,,,,,,,,,,,,,,,,,,,,,,,,,,,,,,,,,,,,,,,,,,,,,,,,,,259.5641742189764,None,space,0.5588026700133923,259.5641742189764,None,260.1997042949952,None,f,1,1.5473354359855875,260.1997042949952,None,261.76462646978325,None,None,261.76462646978325,None,,1,001,2021_Nov_01_1418,searchDisc4,2021.2.3,60.00805488875046,
images/exp2b_trial_97_colour1_distractors4_r.png,r,j,2b,97,1,4,,,,,0,21,21,718,,,,,,,,,,,,,,,,,,,,,,,,,,,,,,,,,,,,,,,,,,,,,,,,,,,,,,,,,,,,,,,,,,,,,,,,,,,,261.76357925098273,None,space,0.5193776740052272,261.76357925098273,None,262.36654136297875,None,j,1,1.2446604520082474,262.36654136297875,None,263.6306529157737,None,None,263.6306529157737,None,,1,001,2021_Nov_01_1418,searchDisc4,2021.2.3,60.00805488875046,
images/exp2b_trial_163_colour1_distractors19_r.png,r,j,2b,163,1,19,,,,,0,22,22,784,,,,,,,,,,,,,,,,,,,,,,,,,,,,,,,,,,,,,,,,,,,,,,,,,,,,,,,,,,,,,,,,,,,,,,,,,,,,263.630816623976,None,space,0.6202999030065257,263.630816623976,None,264.3324319940002,None,j,1,1.0628722019901033,264.3324319940002,None,265.41477392677916,None,None,265.41477392677916,None,,1,001,2021_Nov_01_1418,searchDisc4,2021.2.3,60.00805488875046,
images/exp2c_trial_0_colour1_distractors1_r.png,r,j,2c,0,1,1,,,,,0,23,23,813,,,,,,,,,,,,,,,,,,,,,,,,,,,,,,,,,,,,,,,,,,,,,,,,,,,,,,,,,,,,,,,,,,,,,,,,,,,,265.4137624579889,None,space,0.5254835250088945,265.4137624579889,None,265.9977439469949,None,j,1,0.9016062809969299,265.9977439469949,None,266.93128571577836,None,None,266.93128571577836,None,,1,001,2021_Nov_01_1418,searchDisc4,2021.2.3,60.00805488875046,
images/exp1a_trial_33_colour1_distractors4_r.png,r,j,1a,33,1,4,,,,,0,24,24,78,,,,,,,,,,,,,,,,,,,,,,,,,,,,,,,,,,,,,,,,,,,,,,,,,,,,,,,,,,,,,,,,,,,,,,,,,,,,266.93052551997243,None,space,0.45682518000830896,266.93052551997243,None,267.46664724097354,None,j,1,1.152800618991023,267.46664724097354,None,268.64738951277104,None,None,268.64738951277104,None,,1,001,2021_Nov_01_1418,searchDisc4,2021.2.3,60.00805488875046,
images/exp2b_trial_55_colour2_distractors19_l.png,l,f,2b,55,2,19,,,,,0,25,25,676,,,,,,,,,,,,,,,,,,,,,,,,,,,,,,,,,,,,,,,,,,,,,,,,,,,,,,,,,,,,,,,,,,,,,,,,,,,,268.64731105498504,None,space,0.4920850610069465,268.64731105498504,None,269.21679993599537,None,f,1,0.8986149119737092,269.21679993599537,None,270.1480653297913,None,None,270.1480653297913,None,,1,001,2021_Nov_01_1418,searchDisc4,2021.2.3,60.00805488875046,
images/exp1b_trial_111_colour1_distractors1_l.png,l,f,1b,111,1,1,,,,,0,26,26,348,,,,,,,,,,,,,,,,,,,,,,,,,,,,,,,,,,,,,,,,,,,,,,,,,,,,,,,,,,,,,,,,,,,,,,,,,,,,270.1478155189834,None,space,0.5116415550000966,270.1478155189834,None,270.71487489598803,None,f,1,0.792687608016422,270.71487489598803,None,271.53137493378017,None,None,271.53137493378017,None,,1,001,2021_Nov_01_1418,searchDisc4,2021.2.3,60.00805488875046,
images/exp1b_trial_75_colour3_distractors4_r.png,r,j,1b,75,3,4,,,,,0,27,27,312,,,,,,,,,,,,,,,,,,,,,,,,,,,,,,,,,,,,,,,,,,,,,,,,,,,,,,,,,,,,,,,,,,,,,,,,,,,,271.53108675798285,None,space,0.5604231109900866,271.53108675798285,None,272.16686194599606,None,j,1,1.0127422139921691,272.16686194599606,None,273.19743062977795,None,None,273.19743062977795,None,,1,001,2021_Nov_01_1418,searchDisc4,2021.2.3,60.00805488875046,
images/exp2b_trial_119_colour2_distractors19_l.png,l,f,2b,119,2,19,,,,,0,28,28,740,,,,,,,,,,,,,,,,,,,,,,,,,,,,,,,,,,,,,,,,,,,,,,,,,,,,,,,,,,,,,,,,,,,,,,,,,,,,273.19773439198616,None,space,0.5258310920035001,273.19773439198616,None,273.80021010898054,None,f,1,1.0194640410190914,273.80021010898054,None,274.8481115177856,None,None,274.8481115177856,None,,1,001,2021_Nov_01_1418,searchDisc4,2021.2.3,60.00805488875046,
images/exp2b_trial_105_colour2_distractors31_r.png,r,j,2b,105,2,31,,,,,0,29,29,726,,,,,,,,,,,,,,,,,,,,,,,,,,,,,,,,,,,,,,,,,,,,,,,,,,,,,,,,,,,,,,,,,,,,,,,,,,,,274.84794237697497,None,space,0.4757025269791484,274.84794237697497,None,275.40029074499034,None,j,1,0.9794977989804465,275.40029074499034,None,276.3978569257888,None,None,276.3978569257888,None,,1,001,2021_Nov_01_1418,searchDisc4,2021.2.3,60.00805488875046,
images/exp2a_trial_55_colour2_distractors19_l.png,l,f,2a,55,2,19,,,,,0,30,30,484,,,,,,,,,,,,,,,,,,,,,,,,,,,,,,,,,,,,,,,,,,,,,,,,,,,,,,,,,,,,,,,,,,,,,,,,,,,,276.3976126879861,None,space,0.5181375360116363,276.3976126879861,None,276.98427230198286,None,f,1,1.0595574170001782,276.98427230198286,None,278.06423444577376,None,None,278.06423444577376,None,,1,001,2021_Nov_01_1418,searchDisc4,2021.2.3,60.00805488875046,
images/exp1b_trial_18_colour1_distractors19_l.png,l,f,1b,18,1,19,,,,,0,31,31,255,,,,,,,,,,,,,,,,,,,,,,,,,,,,,,,,,,,,,,,,,,,,,,,,,,,,,,,,,,,,,,,,,,,,,,,,,,,,278.06448295598966,None,space,0.5153268020076212,278.06448295598966,None,278.6503164569731,None,f,1,0.8015451539831702,278.6503164569731,None,279.48156594778993,None,None,279.48156594778993,None,,1,001,2021_Nov_01_1418,searchDisc4,2021.2.3,60.00805488875046,
images/exp2b_trial_22_colour2_distractors9_l.png,l,f,2b,22,2,9,,,,,0,32,32,643,,,,,,,,,,,,,,,,,,,,,,,,,,,,,,,,,,,,,,,,,,,,,,,,,,,,,,,,,,,,,,,,,,,,,,,,,,,,279.48120430400013,None,space,0.45867068000370637,279.48120430400013,None,280.01703141100006,None,f,1,1.0749821030185558,280.01703141100006,None,281.114700454782,None,None,281.114700454782,None,,1,001,2021_Nov_01_1418,searchDisc4,2021.2.3,60.00805488875046,
images/exp2b_trial_151_colour2_distractors19_l.png,l,f,2b,151,2,19,,,,,0,33,33,772,,,,,,,,,,,,,,,,,,,,,,,,,,,,,,,,,,,,,,,,,,,,,,,,,,,,,,,,,,,,,,,,,,,,,,,,,,,,281.1143487339723,None,space,0.45749981701374054,281.1143487339723,None,281.64996192997205,None,f,1,0.7620948099938687,281.64996192997205,None,282.4314081337943,None,None,282.4314081337943,None,,1,001,2021_Nov_01_1418,searchDisc4,2021.2.3,60.00805488875046,
images/exp2b_trial_142_colour3_distractors31_r.png,r,j,2b,142,3,31,,,,,0,34,34,763,,,,,,,,,,,,,,,,,,,,,,,,,,,,,,,,,,,,,,,,,,,,,,,,,,,,,,,,,,,,,,,,,,,,,,,,,,,,282.4313576629793,None,space,0.42066189102479257,282.4313576629793,None,282.9337272559933,None,j,1,0.9663144370133523,282.9337272559933,None,283.9317202717939,None,None,283.9317202717939,None,,1,001,2021_Nov_01_1418,searchDisc4,2021.2.3,60.00805488875046,
images/exp2b_trial_14_colour3_distractors31_r.png,r,j,2b,14,3,31,,,,,0,35,35,635,,,,,,,,,,,,,,,,,,,,,,,,,,,,,,,,,,,,,,,,,,,,,,,,,,,,,,,,,,,,,,,,,,,,,,,,,,,,283.9310650639818,None,space,0.4810135290026665,283.9310650639818,None,284.48385542599135,None,j,1,0.976336742984131,284.48385542599135,None,285.48175693978556,None,None,285.48175693978556,None,,1,001,2021_Nov_01_1418,searchDisc4,2021.2.3,60.00805488875046,
images/exp2b_trial_95_colour0_distractors0_l.png,l,f,2b,95,0,0,,,,,0,36,36,716,,,,,,,,,,,,,,,,,,,,,,,,,,,,,,,,,,,,,,,,,,,,,,,,,,,,,,,,,,,,,,,,,,,,,,,,,,,,285.48155370599125,None,space,0.3706191539822612,285.48155370599125,None,285.93354438297683,None,f,1,1.2947240239882376,285.93354438297683,None,287.24867729478865,None,None,287.24867729478865,None,,1,001,2021_Nov_01_1418,searchDisc4,2021.2.3,60.00805488875046,
images/exp1a_trial_173_colour3_distractors19_r.png,r,j,1a,173,3,19,,,,,0,37,37,218,,,,,,,,,,,,,,,,,,,,,,,,,,,,,,,,,,,,,,,,,,,,,,,,,,,,,,,,,,,,,,,,,,,,,,,,,,,,287.2478028119949,None,space,0.4284606139990501,287.2478028119949,None,287.7506390849885,None,j,1,0.9416796230070759,287.7506390849885,None,288.7150269407721,None,None,288.7150269407721,None,,1,001,2021_Nov_01_1418,searchDisc4,2021.2.3,60.00805488875046,
images/exp2c_trial_140_colour3_distractors9_r.png,r,j,2c,140,3,9,,,,,0,38,38,953,,,,,,,,,,,,,,,,,,,,,,,,,,,,,,,,,,,,,,,,,,,,,,,,,,,,,,,,,,,,,,,,,,,,,,,,,,,,288.71496820799075,None,space,0.45724573099869303,288.71496820799075,None,289.25072521998663,None,j,1,0.8336913639795966,289.25072521998663,None,290.11533294877154,None,None,290.11533294877154,None,,1,001,2021_Nov_01_1418,searchDisc4,2021.2.3,60.00805488875046,
images/exp2c_trial_101_colour2_distractors1_r.png,r,j,2c,101,2,1,,,,,0,39,39,914,,,,,,,,,,,,,,,,,,,,,,,,,,,,,,,,,,,,,,,,,,,,,,,,,,,,,,,,,,,,,,,,,,,,,,,,,,,,290.1145844369894,None,space,0.40978842199547216,290.1145844369894,None,290.60071782997693,None,j,1,0.9397657889930997,290.60071782997693,None,291.5653324027953,None,None,291.5653324027953,None,,1,001,2021_Nov_01_1418,searchDisc4,2021.2.3,60.00805488875046,
images/exp2a_trial_131_colour1_distractors19_r.png,r,j,2a,131,1,19,,,,,0,40,40,560,,,,,,,,,,,,,,,,,,,,,,,,,,,,,,,,,,,,,,,,,,,,,,,,,,,,,,,,,,,,,,,,,,,,,,,,,,,,291.56515845897957,None,space,0.47127707401523367,291.56515845897957,None,292.1172622149752,None,j,1,0.9112991910078563,292.1172622149752,None,293.0479402647761,None,None,293.0479402647761,None,,1,001,2021_Nov_01_1418,searchDisc4,2021.2.3,60.00805488875046,
images/exp1a_trial_65_colour1_distractors4_r.png,r,j,1a,65,1,4,,,,,0,41,41,110,,,,,,,,,,,,,,,,,,,,,,,,,,,,,,,,,,,,,,,,,,,,,,,,,,,,,,,,,,,,,,,,,,,,,,,,,,,,293.0478581629868,None,space,0.524571628018748,293.0478581629868,None,293.65080275398213,None,j,1,1.0578193069959525,293.65080275398213,None,294.7314764207986,None,None,294.7314764207986,None,,1,001,2021_Nov_01_1418,searchDisc4,2021.2.3,60.00805488875046,
images/exp1a_trial_99_colour1_distractors19_r.png,r,j,1a,99,1,19,,,,,0,42,42,144,,,,,,,,,,,,,,,,,,,,,,,,,,,,,,,,,,,,,,,,,,,,,,,,,,,,,,,,,,,,,,,,,,,,,,,,,,,,294.73185504597495,None,space,0.4167285529838409,294.73185504597495,None,295.2176609909802,None,j,1,1.25903412597836,295.2176609909802,None,296.49835232977057,None,None,296.49835232977057,None,,1,001,2021_Nov_01_1418,searchDisc4,2021.2.3,60.00805488875046,
images/exp2a_trial_15_colour1_distractors1_l.png,l,f,2a,15,1,1,,,,,0,43,43,444,,,,,,,,,,,,,,,,,,,,,,,,,,,,,,,,,,,,,,,,,,,,,,,,,,,,,,,,,,,,,,,,,,,,,,,,,,,,296.49849715898745,None,space,0.386067629995523,296.49849715898745,None,296.95668430498336,None,f,1,1.224016649008263,296.95668430498336,None,298.1985094687843,None,None,298.1985094687843,None,,1,001,2021_Nov_01_1418,searchDisc4,2021.2.3,60.00805488875046,
images/exp2c_trial_69_colour2_distractors1_r.png,r,j,2c,69,2,1,,,,,0,44,44,882,,,,,,,,,,,,,,,,,,,,,,,,,,,,,,,,,,,,,,,,,,,,,,,,,,,,,,,,,,,,,,,,,,,,,,,,,,,,298.19859641598305,None,space,0.41416766500333324,298.19859641598305,None,298.6841250809957,None,j,1,0.8326867519936059,298.6841250809957,None,299.5490198917978,None,None,299.5490198917978,None,,1,001,2021_Nov_01_1418,searchDisc4,2021.2.3,60.00805488875046,
images/exp2b_trial_59_colour3_distractors9_l.png,l,f,2b,59,3,9,,,,,0,45,45,680,,,,,,,,,,,,,,,,,,,,,,,,,,,,,,,,,,,,,,,,,,,,,,,,,,,,,,,,,,,,,,,,,,,,,,,,,,,,299.54866165597923,None,space,0.44016272301087156,299.54866165597923,None,300.0676450889732,None,f,1,1.0412835649913177,300.0676450889732,None,301.132105795783,None,None,301.132105795783,None,,1,001,2021_Nov_01_1418,searchDisc4,2021.2.3,60.00805488875046,
images/exp1a_trial_20_colour2_distractors1_l.png,l,f,1a,20,2,1,,,,,0,46,46,65,,,,,,,,,,,,,,,,,,,,,,,,,,,,,,,,,,,,,,,,,,,,,,,,,,,,,,,,,,,,,,,,,,,,,,,,,,,,301.1317369679746,None,space,0.44913944200379774,301.1317369679746,None,301.6402363809757,None,f,1,0.9727307459979784,301.6402363809757,None,302.6323456427781,None,None,302.6323456427781,None,,1,001,2021_Nov_01_1418,searchDisc4,2021.2.3,60.00805488875046,
images/exp2a_trial_114_colour1_distractors19_l.png,l,f,2a,114,1,19,,,,,0,47,47,543,,,,,,,,,,,,,,,,,,,,,,,,,,,,,,,,,,,,,,,,,,,,,,,,,,,,,,,,,,,,,,,,,,,,,,,,,,,,302.63144031597767,None,space,0.5334342629939783,302.63144031597767,None,303.2346291659924,None,f,1,0.7863870900182519,303.2346291659924,None,304.0489539037808,None,None,304.0489539037808,None,,1,001,2021_Nov_01_1418,searchDisc4,2021.2.3,60.00805488875046,
images/exp1a_trial_113_colour1_distractors9_l.png,l,f,1a,113,1,9,,,,,0,48,48,158,,,,,,,,,,,,,,,,,,,,,,,,,,,,,,,,,,,,,,,,,,,,,,,,,,,,,,,,,,,,,,,,,,,,,,,,,,,,304.04858266797964,None,space,0.4523377339937724,304.04858266797964,None,304.5844742829795,None,f,1,0.8046211290056817,304.5844742829795,None,305.41584056577994,None,None,305.41584056577994,None,,1,001,2021_Nov_01_1418,searchDisc4,2021.2.3,60.00805488875046,
images/exp2c_trial_67_colour1_distractors19_r.png,r,j,2c,67,1,19,,,,,0,49,49,880,,,,,,,,,,,,,,,,,,,,,,,,,,,,,,,,,,,,,,,,,,,,,,,,,,,,,,,,,,,,,,,,,,,,,,,,,,,,305.4148377509846,None,space,0.40620769999804907,305.4148377509846,None,305.9006245599885,None,j,1,0.7445243160182144,305.9006245599885,None,306.66566154779866,None,None,306.66566154779866,None,,1,001,2021_Nov_01_1418,searchDisc4,2021.2.3,60.00805488875046,
images/exp2b_trial_137_colour2_distractors31_r.png,r,j,2b,137,2,31,,,,,0,50,50,758,,,,,,,,,,,,,,,,,,,,,,,,,,,,,,,,,,,,,,,,,,,,,,,,,,,,,,,,,,,,,,,,,,,,,,,,,,,,306.6654306749988,None,space,0.4355859490169678,306.6654306749988,None,307.182523468975,None,j,1,0.718726548977429,307.182523468975,None,307.93252731778193,None,None,307.93252731778193,None,,1,001,2021_Nov_01_1418,searchDisc4,2021.2.3,60.00805488875046,
images/exp2c_trial_81_colour1_distractors9_l.png,l,f,2c,81,1,9,,,,,0,51,51,894,,,,,,,,,,,,,,,,,,,,,,,,,,,,,,,,,,,,,,,,,,,,,,,,,,,,,,,,,,,,,,,,,,,,,,,,,,,,307.931585253973,None,space,0.42559976101620123,307.931585253973,None,308.4346150069905,None,f,1,0.794670268020127,308.4346150069905,None,309.24862717979704,None,None,309.24862717979704,None,,1,001,2021_Nov_01_1418,searchDisc4,2021.2.3,60.00805488875046,
images/exp1b_trial_145_colour1_distractors9_l.png,l,f,1b,145,1,9,,,,,0,52,52,382,,,,,,,,,,,,,,,,,,,,,,,,,,,,,,,,,,,,,,,,,,,,,,,,,,,,,,,,,,,,,,,,,,,,,,,,,,,,309.2481883309956,None,space,0.46097213399480097,309.2481883309956,None,309.784633223986,None,f,1,1.0126879070012365,309.784633223986,None,310.8155595907883,None,None,310.8155595907883,None,,1,001,2021_Nov_01_1418,searchDisc4,2021.2.3,60.00805488875046,
images/exp2a_trial_18_colour1_distractors19_l.png,l,f,2a,18,1,19,,,,,0,53,53,447,,,,,,,,,,,,,,,,,,,,,,,,,,,,,,,,,,,,,,,,,,,,,,,,,,,,,,,,,,,,,,,,,,,,,,,,,,,,310.8154045709816,None,space,0.461880458984524,310.8154045709816,None,311.3514199630008,None,f,1,0.9019025160232559,311.3514199630008,None,312.2820250327932,None,None,312.2820250327932,None,,1,001,2021_Nov_01_1418,searchDisc4,2021.2.3,60.00805488875046,
images/exp2c_trial_160_colour1_distractors1_r.png,r,j,2c,160,1,1,,,,,0,54,54,13,,,,,,,,,,,,,,,,,,,,,,,,,,,,,,,,,,,,,,,,,,,,,,,,,,,,,,,,,,,,,,,,,,,,,,,,,,,,312.2821355999913,None,space,0.42715221000253223,312.2821355999913,None,312.7847148539731,None,j,1,0.7887930970173329,312.7847148539731,None,313.59952149377204,None,None,313.59952149377204,None,,1,001,2021_Nov_01_1418,searchDisc4,2021.2.3,60.00805488875046,
images/exp2c_trial_44_colour3_distractors9_r.png,r,j,2c,44,3,9,,,,,0,55,55,857,,,,,,,,,,,,,,,,,,,,,,,,,,,,,,,,,,,,,,,,,,,,,,,,,,,,,,,,,,,,,,,,,,,,,,,,,,,,313.59903308199137,None,space,0.43844357898342423,313.59903308199137,None,314.118154811993,None,j,1,0.7674073909875005,314.118154811993,None,314.9160118747968,None,None,314.9160118747968,None,,1,001,2021_Nov_01_1418,searchDisc4,2021.2.3,60.00805488875046,
images/exp2b_trial_169_colour2_distractors31_r.png,r,j,2b,169,2,31,,,,,0,56,56,790,,,,,,,,,,,,,,,,,,,,,,,,,,,,,,,,,,,,,,,,,,,,,,,,,,,,,,,,,,,,,,,,,,,,,,,,,,,,314.9150834809989,None,space,0.45843483399949037,314.9150834809989,None,315.4514617799723,None,j,1,0.8341750930121634,315.4514617799723,None,316.3160719417792,None,None,316.3160719417792,None,,1,001,2021_Nov_01_1418,searchDisc4,2021.2.3,60.00805488875046,
images/exp2b_trial_128_colour1_distractors1_r.png,r,j,2b,128,1,1,,,,,0,57,57,749,,,,,,,,,,,,,,,,,,,,,,,,,,,,,,,,,,,,,,,,,,,,,,,,,,,,,,,,,,,,,,,,,,,,,,,,,,,,316.31501777199446,None,space,0.41056855901842937,316.31501777199446,None,316.80118000798393,None,j,1,0.7405024500039872,316.80118000798393,None,317.5655116427806,None,None,317.5655116427806,None,,1,001,2021_Nov_01_1418,searchDisc4,2021.2.3,60.00805488875046,
images/exp2a_trial_120_colour2_distractors31_l.png,l,f,2a,120,2,31,,,,,0,58,58,549,,,,,,,,,,,,,,,,,,,,,,,,,,,,,,,,,,,,,,,,,,,,,,,,,,,,,,,,,,,,,,,,,,,,,,,,,,,,317.56560452998383,None,space,0.4320108550018631,317.56560452998383,None,318.0705496489827,None,f,1,0.9591838199994527,318.0705496489827,None,319.04917391977506,None,None,319.04917391977506,None,,1,001,2021_Nov_01_1418,searchDisc4,2021.2.3,60.00805488875046,
images/exp2c_trial_134_colour2_distractors4_r.png,r,j,2c,134,2,4,,,,,0,59,59,947,,,,,,,,,,,,,,,,,,,,,,,,,,,,,,,,,,,,,,,,,,,,,,,,,,,,,,,,,,,,,,,,,,,,,,,,,,,,319.0493326119904,None,space,0.44429740600753576,319.0493326119904,None,319.5680167899991,None,j,1,0.9097795889829285,319.5680167899991,None,320.49947063278523,None,None,320.49947063278523,None,,1,001,2021_Nov_01_1418,searchDisc4,2021.2.3,60.00805488875046,
images/exp2b_trial_41_colour2_distractors31_r.png,r,j,2b,41,2,31,,,,,0,60,60,662,,,,,,,,,,,,,,,,,,,,,,,,,,,,,,,,,,,,,,,,,,,,,,,,,,,,,,,,,,,,,,,,,,,,,,,,,,,,320.49920621397905,None,space,0.5065779150172602,320.49920621397905,None,321.08499384098104,None,j,1,1.0968195399909746,321.08499384098104,None,322.1996201577713,None,None,322.1996201577713,None,,1,001,2021_Nov_01_1418,searchDisc4,2021.2.3,60.00805488875046,
images/exp2b_trial_99_colour1_distractors19_r.png,r,j,2b,99,1,19,,,,,0,61,61,720,,,,,,,,,,,,,,,,,,,,,,,,,,,,,,,,,,,,,,,,,,,,,,,,,,,,,,,,,,,,,,,,,,,,,,,,,,,,322.1985870359931,None,space,0.4552802809921559,322.1985870359931,None,322.732944347983,None,j,1,0.8569964910275303,322.732944347983,None,323.6160282937926,None,None,323.6160282937926,None,,1,001,2021_Nov_01_1418,searchDisc4,2021.2.3,60.00805488875046,
images/exp2a_trial_135_colour2_distractors9_r.png,r,j,2a,135,2,9,,,,,0,62,62,564,,,,,,,,,,,,,,,,,,,,,,,,,,,,,,,,,,,,,,,,,,,,,,,,,,,,,,,,,,,,,,,,,,,,,,,,,,,,323.61540816299384,None,space,0.37445763999130577,323.61540816299384,None,324.0683843959996,None,j,1,0.7215413130179513,324.0683843959996,None,324.8161554777762,None,None,324.8161554777762,None,,1,001,2021_Nov_01_1418,searchDisc4,2021.2.3,60.00805488875046,
images/exp2c_trial_62_colour0_distractors0_r.png,r,j,2c,62,0,0,,,,,0,63,63,875,,,,,,,,,,,,,,,,,,,,,,,,,,,,,,,,,,,,,,,,,,,,,,,,,,,,,,,,,,,,,,,,,,,,,,,,,,,,324.8157723399927,None,space,0.48608897801022977,324.8157723399927,None,325.38490335198003,None,j,1,0.7571746140019968,325.38490335198003,None,326.1663042367727,None,None,326.1663042367727,None,,1,001,2021_Nov_01_1418,searchDisc4,2021.2.3,60.00805488875046,
images/exp1b_trial_100_colour1_distractors31_r.png,r,j,1b,100,1,31,,,,,0,64,64,337,,,,,,,,,,,,,,,,,,,,,,,,,,,,,,,,,,,,,,,,,,,,,,,,,,,,,,,,,,,,,,,,,,,,,,,,,,,,326.1661695439834,None,space,0.48774032498477027,326.1661695439834,None,326.73505567898974,None,j,1,0.9990461650013458,326.73505567898974,None,327.7664466817805,None,None,327.7664466817805,None,,1,001,2021_Nov_01_1418,searchDisc4,2021.2.3,60.00805488875046,
images/exp2c_trial_184_colour2_distractors31_l.png,l,f,2c,184,2,31,,,,,0,65,65,37,,,,,,,,,,,,,,,,,,,,,,,,,,,,,,,,,,,,,,,,,,,,,,,,,,,,,,,,,,,,,,,,,,,,,,,,,,,,327.7653059629956,None,space,0.512808570987545,327.7653059629956,None,328.3517204539967,None,f,1,0.6784850890107919,328.3517204539967,None,329.0495237297728,None,None,329.0495237297728,None,,1,001,2021_Nov_01_1418,searchDisc4,2021.2.3,60.00805488875046,
images/exp2a_trial_137_colour2_distractors31_r.png,r,j,2a,137,2,31,,,,,0,66,66,566,,,,,,,,,,,,,,,,,,,,,,,,,,,,,,,,,,,,,,,,,,,,,,,,,,,,,,,,,,,,,,,,,,,,,,,,,,,,329.04907959798584,None,space,0.5250907820009161,329.04907959798584,None,329.6540616659913,None,f,0,1.016231555986451,329.6540616659913,None,330.6997357577784,None,None,330.6997357577784,None,,1,001,2021_Nov_01_1418,searchDisc4,2021.2.3,60.00805488875046,
images/exp2a_trial_64_colour1_distractors1_r.png,r,j,2a,64,1,1,,,,,0,67,67,493,,,,,,,,,,,,,,,,,,,,,,,,,,,,,,,,,,,,,,,,,,,,,,,,,,,,,,,,,,,,,,,,,,,,,,,,,,,,330.699400159996,None,space,1.0188192240020726,330.699400159996,None,331.7852231329889,None,j,1,0.8290501700248569,331.7852231329889,None,332.6323500457802,None,None,332.6323500457802,None,,1,001,2021_Nov_01_1418,searchDisc4,2021.2.3,60.00805488875046,
images/exp2b_trial_3_colour1_distractors19_r.png,r,j,2b,3,1,19,,,,,0,68,68,624,,,,,,,,,,,,,,,,,,,,,,,,,,,,,,,,,,,,,,,,,,,,,,,,,,,,,,,,,,,,,,,,,,,,,,,,,,,,332.63213970698416,None,space,0.3901742279995233,332.63213970698416,None,333.1017524699855,None,j,1,1.0406335850129835,333.1017524699855,None,334.16620867777965,None,None,334.16620867777965,None,,1,001,2021_Nov_01_1418,searchDisc4,2021.2.3,60.00805488875046,
images/exp1b_trial_187_colour3_distractors9_l.png,l,f,1b,187,3,9,,,,,0,69,69,424,,,,,,,,,,,,,,,,,,,,,,,,,,,,,,,,,,,,,,,,,,,,,,,,,,,,,,,,,,,,,,,,,,,,,,,,,,,,334.16599188398686,None,space,0.44832191898603924,334.16599188398686,None,334.6848338540003,None,f,1,0.9696303289965726,334.6848338540003,None,335.6832931767858,None,None,335.6832931767858,None,,1,001,2021_Nov_01_1418,searchDisc4,2021.2.3,60.00805488875046,
images/exp2c_trial_94_colour0_distractors0_r.png,r,j,2c,94,0,0,,,,,0,70,70,907,,,,,,,,,,,,,,,,,,,,,,,,,,,,,,,,,,,,,,,,,,,,,,,,,,,,,,,,,,,,,,,,,,,,,,,,,,,,335.6832595169835,None,space,0.3951287789968774,335.6832595169835,None,336.1520178379724,None,j,1,0.790504595002858,336.1520178379724,None,336.9663189947896,None,None,336.9663189947896,None,,1,001,2021_Nov_01_1418,searchDisc4,2021.2.3,60.00805488875046,
images/exp2b_trial_5_colour2_distractors1_r.png,r,j,2b,5,2,1,,,,,0,71,71,626,,,,,,,,,,,,,,,,,,,,,,,,,,,,,,,,,,,,,,,,,,,,,,,,,,,,,,,,,,,,,,,,,,,,,,,,,,,,336.9663794329972,None,space,0.4721409959893208,336.9663794329972,None,337.5080159569916,None,j,1,0.714591528987512,337.5080159569916,None,338.24988103378564,None,None,338.24988103378564,None,,1,001,2021_Nov_01_1418,searchDisc4,2021.2.3,60.00805488875046,
images/exp2a_trial_74_colour3_distractors1_r.png,r,j,2a,74,3,1,,,,,0,72,72,503,,,,,,,,,,,,,,,,,,,,,,,,,,,,,,,,,,,,,,,,,,,,,,,,,,,,,,,,,,,,,,,,,,,,,,,,,,,,338.2497388019983,None,space,0.5407953510002699,338.2497388019983,None,338.8687447209959,None,j,1,0.6739176230039448,338.8687447209959,None,339.5666177297826,None,None,339.5666177297826,None,,1,001,2021_Nov_01_1418,searchDisc4,2021.2.3,60.00805488875046,
images/exp1a_trial_12_colour3_distractors9_r.png,r,j,1a,12,3,9,,,,,0,73,73,57,,,,,,,,,,,,,,,,,,,,,,,,,,,,,,,,,,,,,,,,,,,,,,,,,,,,,,,,,,,,,,,,,,,,,,,,,,,,339.56656604798627,None,space,0.4159782829810865,339.56656604798627,None,340.0522150489851,None,j,1,0.8984489160066005,340.0522150489851,None,340.9834626147931,None,None,340.9834626147931,None,,1,001,2021_Nov_01_1418,searchDisc4,2021.2.3,60.00805488875046,
images/exp2b_trial_54_colour2_distractors9_l.png,l,f,2b,54,2,9,,,,,0,74,74,675,,,,,,,,,,,,,,,,,,,,,,,,,,,,,,,,,,,,,,,,,,,,,,,,,,,,,,,,,,,,,,,,,,,,,,,,,,,,340.982417436986,None,space,0.4082835160079412,340.982417436986,None,341.46884569499525,None,f,1,0.8819337429886218,341.46884569499525,None,342.38338364777155,None,None,342.38338364777155,None,,1,001,2021_Nov_01_1418,searchDisc4,2021.2.3,60.00805488875046,
images/exp1b_trial_110_colour3_distractors31_r.png,r,j,1b,110,3,31,,,,,0,75,75,347,,,,,,,,,,,,,,,,,,,,,,,,,,,,,,,,,,,,,,,,,,,,,,,,,,,,,,,,,,,,,,,,,,,,,,,,,,,,342.3830634219921,None,space,0.42373747201054357,342.3830634219921,None,342.8857163829962,None,j,1,0.7211623589973897,342.8857163829962,None,343.63349749176996,None,None,343.63349749176996,None,,1,001,2021_Nov_01_1418,searchDisc4,2021.2.3,60.00805488875046,
images/exp1b_trial_105_colour2_distractors31_r.png,r,j,1b,105,2,31,,,,,0,76,76,342,,,,,,,,,,,,,,,,,,,,,,,,,,,,,,,,,,,,,,,,,,,,,,,,,,,,,,,,,,,,,,,,,,,,,,,,,,,,343.6331545629946,None,space,0.46166082500712946,343.6331545629946,None,344.1687508149771,None,j,1,0.8061795620014891,344.1687508149771,None,344.9993746417749,None,None,344.9993746417749,None,,1,001,2021_Nov_01_1418,searchDisc4,2021.2.3,60.00805488875046,
images/exp1a_trial_175_colour1_distractors1_l.png,l,f,1a,175,1,1,,,,,0,77,77,220,,,,,,,,,,,,,,,,,,,,,,,,,,,,,,,,,,,,,,,,,,,,,,,,,,,,,,,,,,,,,,,,,,,,,,,,,,,,344.9999677789747,None,space,0.3908936739899218,344.9999677789747,None,345.4687724169926,None,f,1,0.9621357010037173,345.4687724169926,None,346.4502573887876,None,None,346.4502573887876,None,,1,001,2021_Nov_01_1418,searchDisc4,2021.2.3,60.00805488875046,
images/exp1b_trial_133_colour2_distractors1_r.png,r,j,1b,133,2,1,,,,,0,78,78,370,,,,,,,,,,,,,,,,,,,,,,,,,,,,,,,,,,,,,,,,,,,,,,,,,,,,,,,,,,,,,,,,,,,,,,,,,,,,346.45012623499497,None,space,0.4208419079950545,346.45012623499497,None,346.9522701779788,None,j,1,0.7587044919782784,346.9522701779788,None,347.73367976179,None,None,347.73367976179,None,,1,001,2021_Nov_01_1418,searchDisc4,2021.2.3,60.00805488875046,
images/exp2c_trial_91_colour3_distractors9_l.png,l,f,2c,91,3,9,,,,,0,79,79,904,,,,,,,,,,,,,,,,,,,,,,,,,,,,,,,,,,,,,,,,,,,,,,,,,,,,,,,,,,,,,,,,,,,,,,,,,,,,347.7334768359724,None,space,0.41754351800773293,347.7334768359724,None,348.2191431579995,None,f,1,0.7718969660054427,348.2191431579995,None,349.01724228978856,None,None,349.01724228978856,None,,1,001,2021_Nov_01_1418,searchDisc4,2021.2.3,60.00805488875046,
images/exp2b_trial_75_colour3_distractors4_r.png,r,j,2b,75,3,4,,,,,0,80,80,696,,,,,,,,,,,,,,,,,,,,,,,,,,,,,,,,,,,,,,,,,,,,,,,,,,,,,,,,,,,,,,,,,,,,,,,,,,,,349.016807485983,None,space,0.40628480300074443,349.016807485983,None,349.50239333699574,None,j,1,0.8887727060064208,349.50239333699574,None,350.41704766778275,None,None,350.41704766778275,None,,1,001,2021_Nov_01_1418,searchDisc4,2021.2.3,60.00805488875046,
images/exp1a_trial_77_colour3_distractors19_r.png,r,j,1a,77,3,19,,,,,0,81,81,122,,,,,,,,,,,,,,,,,,,,,,,,,,,,,,,,,,,,,,,,,,,,,,,,,,,,,,,,,,,,,,,,,,,,,,,,,,,,350.4170748589968,None,space,0.4141293269931339,350.4170748589968,None,350.9025059969863,None,j,1,0.7447376619966235,350.9025059969863,None,351.66640451177955,None,None,351.66640451177955,None,,1,001,2021_Nov_01_1418,searchDisc4,2021.2.3,60.00805488875046,
images/exp1b_trial_132_colour1_distractors31_r.png,r,j,1b,132,1,31,,,,,0,82,82,369,,,,,,,,,,,,,,,,,,,,,,,,,,,,,,,,,,,,,,,,,,,,,,,,,,,,,,,,,,,,,,,,,,,,,,,,,,,,351.66644787299447,None,space,0.5967704920039978,351.66644787299447,None,352.3358747039747,None,j,1,0.8473329709959216,352.3358747039747,None,353.2005026017723,None,None,353.2005026017723,None,,1,001,2021_Nov_01_1418,searchDisc4,2021.2.3,60.00805488875046,
images/exp2b_trial_180_colour2_distractors1_l.png,l,f,2b,180,2,1,,,,,0,83,83,801,,,,,,,,,,,,,,,,,,,,,,,,,,,,,,,,,,,,,,,,,,,,,,,,,,,,,,,,,,,,,,,,,,,,,,,,,,,,353.19941123298486,None,space,0.48778784001478925,353.19941123298486,None,353.7692407919967,None,f,1,0.6541327329759952,353.7692407919967,None,354.4505330217944,None,None,354.4505330217944,None,,1,001,2021_Nov_01_1418,searchDisc4,2021.2.3,60.00805488875046,
images/exp2a_trial_24_colour2_distractors31_l.png,l,f,2a,24,2,31,,,,,0,84,84,453,,,,,,,,,,,,,,,,,,,,,,,,,,,,,,,,,,,,,,,,,,,,,,,,,,,,,,,,,,,,,,,,,,,,,,,,,,,,354.45032192999497,None,space,0.4770010010106489,354.45032192999497,None,355.00350985498517,None,f,1,0.7159167570061982,355.00350985498517,None,355.7507229447947,None,None,355.7507229447947,None,,1,001,2021_Nov_01_1418,searchDisc4,2021.2.3,60.00805488875046,
images/exp1a_trial_170_colour3_distractors1_r.png,r,j,1a,170,3,1,,,,,0,85,85,215,,,,,,,,,,,,,,,,,,,,,,,,,,,,,,,,,,,,,,,,,,,,,,,,,,,,,,,,,,,,,,,,,,,,,,,,,,,,355.7506818900001,None,space,0.5206979909853544,355.7506818900001,None,356.3526759519882,None,j,1,0.8067214610055089,356.3526759519882,None,357.1839232137718,None,None,357.1839232137718,None,,1,001,2021_Nov_01_1418,searchDisc4,2021.2.3,60.00805488875046,
images/exp2a_trial_98_colour1_distractors9_r.png,r,j,2a,98,1,9,,,,,0,86,86,527,,,,,,,,,,,,,,,,,,,,,,,,,,,,,,,,,,,,,,,,,,,,,,,,,,,,,,,,,,,,,,,,,,,,,,,,,,,,357.18371064099483,None,space,0.5676782590162475,357.18371064099483,None,357.81933033498353,None,j,1,0.6282064719998743,357.81933033498353,None,358.46685381478164,None,None,358.46685381478164,None,,1,001,2021_Nov_01_1418,searchDisc4,2021.2.3,60.00805488875046,
images/exp2c_trial_107_colour3_distractors4_r.png,r,j,2c,107,3,4,,,,,0,87,87,920,,,,,,,,,,,,,,,,,,,,,,,,,,,,,,,,,,,,,,,,,,,,,,,,,,,,,,,,,,,,,,,,,,,,,,,,,,,,358.4665609189833,None,space,0.508948650007369,358.4665609189833,None,359.05275879698456,None,j,1,0.6748397769988514,359.05275879698456,None,359.750363673782,None,None,359.750363673782,None,,1,001,2021_Nov_01_1418,searchDisc4,2021.2.3,60.00805488875046,
images/exp2b_trial_134_colour2_distractors4_r.png,r,j,2b,134,2,4,,,,,0,88,88,755,,,,,,,,,,,,,,,,,,,,,,,,,,,,,,,,,,,,,,,,,,,,,,,,,,,,,,,,,,,,,,,,,,,,,,,,,,,,359.7505173369718,None,space,0.5050489069835749,359.7505173369718,None,360.33609144497314,None,j,1,0.5835619359859265,360.33609144497314,None,360.95012381178094,None,None,360.95012381178094,None,,1,001,2021_Nov_01_1418,searchDisc4,2021.2.3,60.00805488875046,
images/exp2a_trial_153_colour3_distractors1_l.png,l,f,2a,153,3,1,,,,,0,89,89,582,,,,,,,,,,,,,,,,,,,,,,,,,,,,,,,,,,,,,,,,,,,,,,,,,,,,,,,,,,,,,,,,,,,,,,,,,,,,360.950227401976,None,space,0.425400003005052,360.950227401976,None,361.45296399798826,None,f,1,0.8027619979984593,361.45296399798826,None,362.2841602937842,None,None,362.2841602937842,None,,1,001,2021_Nov_01_1418,searchDisc4,2021.2.3,60.00805488875046,
images/exp2a_trial_67_colour1_distractors19_r.png,r,j,2a,67,1,19,,,,,0,90,90,496,,,,,,,,,,,,,,,,,,,,,,,,,,,,,,,,,,,,,,,,,,,,,,,,,,,,,,,,,,,,,,,,,,,,,,,,,,,,362.28390873398166,None,space,0.46778128802543506,362.28390873398166,None,362.8193875879806,None,j,1,1.2763865430024453,362.8193875879806,None,364.11741164678824,None,None,364.11741164678824,None,,1,001,2021_Nov_01_1418,searchDisc4,2021.2.3,60.00805488875046,
images/exp2a_trial_170_colour3_distractors1_r.png,r,j,2a,170,3,1,,,,,0,91,91,599,,,,,,,,,,,,,,,,,,,,,,,,,,,,,,,,,,,,,,,,,,,,,,,,,,,,,,,,,,,,,,,,,,,,,,,,,,,,364.11649914397276,None,space,0.5232548700005282,364.11649914397276,None,364.7195468819991,None,j,1,1.0963138370134402,364.7195468819991,None,365.83392726178863,None,None,365.83392726178863,None,,1,001,2021_Nov_01_1418,searchDisc4,2021.2.3,60.00805488875046,
images/exp2c_trial_114_colour1_distractors19_l.png,l,f,2c,114,1,19,,,,,0,92,92,927,,,,,,,,,,,,,,,,,,,,,,,,,,,,,,,,,,,,,,,,,,,,,,,,,,,,,,,,,,,,,,,,,,,,,,,,,,,,365.83397527597845,None,space,0.3657873159972951,365.83397527597845,None,366.26964223297546,None,f,1,0.850285669992445,366.26964223297546,None,367.1508060187916,None,None,367.1508060187916,None,,1,001,2021_Nov_01_1418,searchDisc4,2021.2.3,60.00805488875046,
images/exp2a_trial_144_colour1_distractors4_l.png,l,f,2a,144,1,4,,,,,0,93,93,573,,,,,,,,,,,,,,,,,,,,,,,,,,,,,,,,,,,,,,,,,,,,,,,,,,,,,,,,,,,,,,,,,,,,,,,,,,,,367.1507803279965,None,space,0.45708302900311537,367.1507803279965,None,367.6861545079737,None,f,1,0.6817613030143548,367.6861545079737,None,368.4001919187722,None,None,368.4001919187722,None,,1,001,2021_Nov_01_1418,searchDisc4,2021.2.3,60.00805488875046,
images/exp2b_trial_129_colour1_distractors4_r.png,r,j,2b,129,1,4,,,,,0,94,94,750,,,,,,,,,,,,,,,,,,,,,,,,,,,,,,,,,,,,,,,,,,,,,,,,,,,,,,,,,,,,,,,,,,,,,,,,,,,,368.4007638129988,None,space,0.39909131900640205,368.4007638129988,None,368.8696972350008,None,j,1,1.0503881770127919,368.8696972350008,None,369.95097001778777,None,None,369.95097001778777,None,,1,001,2021_Nov_01_1418,searchDisc4,2021.2.3,60.00805488875046,
images/exp2c_trial_123_colour3_distractors9_l.png,l,f,2c,123,3,9,,,,,0,95,95,936,,,,,,,,,,,,,,,,,,,,,,,,,,,,,,,,,,,,,,,,,,,,,,,,,,,,,,,,,,,,,,,,,,,,,,,,,,,,369.9506970839866,None,space,0.45725211399258114,369.9506970839866,None,370.4865436599939,None,f,1,0.7935717919899616,370.4865436599939,None,371.30064973578556,None,None,371.30064973578556,None,,1,001,2021_Nov_01_1418,searchDisc4,2021.2.3,60.00805488875046,
images/exp2a_trial_130_colour1_distractors9_r.png,r,j,2a,130,1,9,,,,,0,96,96,559,,,,,,,,,,,,,,,,,,,,,,,,,,,,,,,,,,,,,,,,,,,,,,,,,,,,,,,,,,,,,,,,,,,,,,,,,,,,371.30074403999606,None,space,0.4753381719929166,371.30074403999606,None,371.85097294597654,None,j,1,0.6932333369913977,371.85097294597654,None,372.56703994979034,None,None,372.56703994979034,None,,1,001,2021_Nov_01_1418,searchDisc4,2021.2.3,60.00805488875046,
images/exp1b_trial_64_colour1_distractors1_r.png,r,j,1b,64,1,1,,,,,0,97,97,301,,,,,,,,,,,,,,,,,,,,,,,,,,,,,,,,,,,,,,,,,,,,,,,,,,,,,,,,,,,,,,,,,,,,,,,,,,,,372.5668470149976,None,space,0.48931057000299916,372.5668470149976,None,373.13647974299965,None,j,1,1.3278049800137524,373.13647974299965,None,374.4836976697843,None,None,374.4836976697843,None,,1,001,2021_Nov_01_1418,searchDisc4,2021.2.3,60.00805488875046,
images/exp2a_trial_23_colour2_distractors19_l.png,l,f,2a,23,2,19,,,,,0,98,98,452,,,,,,,,,,,,,,,,,,,,,,,,,,,,,,,,,,,,,,,,,,,,,,,,,,,,,,,,,,,,,,,,,,,,,,,,,,,,374.4845248819911,None,space,0.33170450798934326,374.4845248819911,None,374.8873475129949,None,f,1,0.8809047949907836,374.8873475129949,None,375.80122243377264,None,None,375.80122243377264,None,,1,001,2021_Nov_01_1418,searchDisc4,2021.2.3,60.00805488875046,
images/exp2c_trial_182_colour2_distractors9_l.png,l,f,2c,182,2,9,,,,,0,99,99,35,,,,,,,,,,,,,,,,,,,,,,,,,,,,,,,,,,,,,,,,,,,,,,,,,,,,,,,,,,,,,,,,,,,,,,,,,,,,375.80012623398216,None,space,0.4641843009740114,375.80012623398216,None,376.3365311769885,None,f,1,1.3279118459904566,376.3365311769885,None,377.68367788079195,None,None,377.68367788079195,None,,1,001,2021_Nov_01_1418,searchDisc4,2021.2.3,60.00805488875046,
images/exp1a_trial_179_colour1_distractors31_l.png,l,f,1a,179,1,31,,,,,0,100,100,224,,,,,,,,,,,,,,,,,,,,,,,,,,,,,,,,,,,,,,,,,,,,,,,,,,,,,,,,,,,,,,,,,,,,,,,,,,,,377.6837704239879,None,space,0.47664237799472176,377.6837704239879,None,378.2366380819876,None,f,1,0.8198458819824737,378.2366380819876,None,379.0845645077934,None,None,379.0845645077934,None,,1,001,2021_Nov_01_1418,searchDisc4,2021.2.3,60.00805488875046,
images/exp1a_trial_110_colour3_distractors31_r.png,r,j,1a,110,3,31,,,,,0,101,101,155,,,,,,,,,,,,,,,,,,,,,,,,,,,,,,,,,,,,,,,,,,,,,,,,,,,,,,,,,,,,,,,,,,,,,,,,,,,,379.084322294977,None,space,0.4520666919997893,379.084322294977,None,379.60320505098207,None,j,1,0.8773584040172864,379.60320505098207,None,380.50110566677176,None,None,380.50110566677176,None,,1,001,2021_Nov_01_1418,searchDisc4,2021.2.3,60.00805488875046,
images/exp2a_trial_150_colour2_distractors9_l.png,l,f,2a,150,2,9,,,,,0,102,102,579,,,,,,,,,,,,,,,,,,,,,,,,,,,,,,,,,,,,,,,,,,,,,,,,,,,,,,,,,,,,,,,,,,,,,,,,,,,,380.5009148729732,None,space,0.42759902600664645,380.5009148729732,None,381.0028217669751,None,f,1,0.7336885890108533,381.0028217669751,None,381.7680823447881,None,None,381.7680823447881,None,,1,001,2021_Nov_01_1418,searchDisc4,2021.2.3,60.00805488875046,
images/exp1b_trial_47_colour1_distractors1_l.png,l,f,1b,47,1,1,,,,,0,103,103,284,,,,,,,,,,,,,,,,,,,,,,,,,,,,,,,,,,,,,,,,,,,,,,,,,,,,,,,,,,,,,,,,,,,,,,,,,,,,381.76781777097494,None,space,0.44076633200165816,381.76781777097494,None,382.28675140897394,None,f,1,0.6579343249904923,382.28675140897394,None,382.96750232978957,None,None,382.96750232978957,None,,1,001,2021_Nov_01_1418,searchDisc4,2021.2.3,60.00805488875046,
images/exp2c_trial_83_colour1_distractors31_l.png,l,f,2c,83,1,31,,,,,0,104,104,896,,,,,,,,,,,,,,,,,,,,,,,,,,,,,,,,,,,,,,,,,,,,,,,,,,,,,,,,,,,,,,,,,,,,,,,,,,,,382.96776965798927,None,space,0.4568778279935941,382.96776965798927,None,383.5036028609902,None,f,1,0.5691231569799129,383.5036028609902,None,384.10114233678905,None,None,384.10114233678905,None,,1,001,2021_Nov_01_1418,searchDisc4,2021.2.3,60.00805488875046,
images/exp2b_trial_83_colour1_distractors31_l.png,l,f,2b,83,1,31,,,,,0,105,105,704,,,,,,,,,,,,,,,,,,,,,,,,,,,,,,,,,,,,,,,,,,,,,,,,,,,,,,,,,,,,,,,,,,,,,,,,,,,,384.10060544198495,None,space,0.4759669860068243,384.10060544198495,None,384.6534808159922,None,f,1,0.6673016980057582,384.6534808159922,None,385.35142479478964,None,None,385.35142479478964,None,,1,001,2021_Nov_01_1418,searchDisc4,2021.2.3,60.00805488875046,
images/exp1b_trial_106_colour3_distractors1_r.png,r,j,1b,106,3,1,,,,,0,106,106,343,,,,,,,,,,,,,,,,,,,,,,,,,,,,,,,,,,,,,,,,,,,,,,,,,,,,,,,,,,,,,,,,,,,,,,,,,,,,385.3511578619946,None,space,0.4814765740011353,385.3511578619946,None,385.9034488359757,None,j,1,0.817412892007269,385.9034488359757,None,386.7514162847947,None,None,386.7514162847947,None,,1,001,2021_Nov_01_1418,searchDisc4,2021.2.3,60.00805488875046,
images/exp1b_trial_35_colour1_distractors19_r.png,r,j,1b,35,1,19,,,,,0,107,107,272,,,,,,,,,,,,,,,,,,,,,,,,,,,,,,,,,,,,,,,,,,,,,,,,,,,,,,,,,,,,,,,,,,,,,,,,,,,,386.7514013759792,None,space,0.4173948219977319,386.7514013759792,None,387.2368125979847,None,j,1,0.8521090319845825,387.2368125979847,None,388.1179609227984,None,None,388.1179609227984,None,,1,001,2021_Nov_01_1418,searchDisc4,2021.2.3,60.00805488875046,
images/exp1a_trial_0_colour1_distractors1_r.png,r,j,1a,0,1,1,,,,,0,108,108,45,,,,,,,,,,,,,,,,,,,,,,,,,,,,,,,,,,,,,,,,,,,,,,,,,,,,,,,,,,,,,,,,,,,,,,,,,,,,388.1173464699823,None,space,0.40341672700014897,388.1173464699823,None,388.59252817498054,None,j,1,0.696444353001425,388.59252817498054,None,389.3182415327756,None,None,389.3182415327756,None,,1,001,2021_Nov_01_1418,searchDisc4,2021.2.3,60.00805488875046,
images/exp1a_trial_118_colour2_distractors9_l.png,l,f,1a,118,2,9,,,,,0,109,109,163,,,,,,,,,,,,,,,,,,,,,,,,,,,,,,,,,,,,,,,,,,,,,,,,,,,,,,,,,,,,,,,,,,,,,,,,,,,,389.31767763599055,None,space,0.4912470859999303,389.31767763599055,None,389.8869700229843,None,f,1,0.7860446179984137,389.8869700229843,None,390.70155191177037,None,None,390.70155191177037,None,,1,001,2021_Nov_01_1418,searchDisc4,2021.2.3,60.00805488875046,
images/exp2b_trial_172_colour3_distractors9_r.png,r,j,2b,172,3,9,,,,,0,110,110,793,,,,,,,,,,,,,,,,,,,,,,,,,,,,,,,,,,,,,,,,,,,,,,,,,,,,,,,,,,,,,,,,,,,,,,,,,,,,390.7009981039737,None,space,0.4520010449923575,390.7009981039737,None,391.2203757079842,None,j,1,1.1646097240154631,391.2203757079842,None,392.41846368976985,None,None,392.41846368976985,None,,1,001,2021_Nov_01_1418,searchDisc4,2021.2.3,60.00805488875046,
images/exp2a_trial_62_colour0_distractors0_r.png,r,j,2a,62,0,0,,,,,0,111,111,491,,,,,,,,,,,,,,,,,,,,,,,,,,,,,,,,,,,,,,,,,,,,,,,,,,,,,,,,,,,,,,,,,,,,,,,,,,,,392.41805417998694,None,space,0.39101879598456435,392.41805417998694,None,392.88678980397526,None,j,1,0.84234830798232,392.88678980397526,None,393.7515972737747,None,None,393.7515972737747,None,,1,001,2021_Nov_01_1418,searchDisc4,2021.2.3,60.00805488875046,
images/exp1b_trial_151_colour2_distractors19_l.png,l,f,1b,151,2,19,,,,,0,112,112,388,,,,,,,,,,,,,,,,,,,,,,,,,,,,,,,,,,,,,,,,,,,,,,,,,,,,,,,,,,,,,,,,,,,,,,,,,,,,393.75096600098186,None,space,0.45009226302499883,393.75096600098186,None,394.26990018598735,None,f,1,0.6672949260100722,394.26990018598735,None,394.9684613067948,None,None,394.9684613067948,None,,1,001,2021_Nov_01_1418,searchDisc4,2021.2.3,60.00805488875046,
images/exp2b_trial_57_colour3_distractors1_l.png,l,f,2b,57,3,1,,,,,0,113,113,678,,,,,,,,,,,,,,,,,,,,,,,,,,,,,,,,,,,,,,,,,,,,,,,,,,,,,,,,,,,,,,,,,,,,,,,,,,,,394.9682299429842,None,space,0.4649334819987416,394.9682299429842,None,395.5038618319959,None,f,1,0.8013584470027126,395.5038618319959,None,396.3350691157975,None,None,396.3350691157975,None,,1,001,2021_Nov_01_1418,searchDisc4,2021.2.3,60.00805488875046,
images/exp1a_trial_7_colour2_distractors9_r.png,r,j,1a,7,2,9,,,,,0,114,114,52,,,,,,,,,,,,,,,,,,,,,,,,,,,,,,,,,,,,,,,,,,,,,,,,,,,,,,,,,,,,,,,,,,,,,,,,,,,,396.334840274998,None,space,0.45839779201196507,396.334840274998,None,396.87050394297694,None,j,1,0.9147402289963793,396.87050394297694,None,397.8185927347804,None,None,397.8185927347804,None,,1,001,2021_Nov_01_1418,searchDisc4,2021.2.3,60.00805488875046,
images/exp2a_trial_124_colour3_distractors19_l.png,l,f,2a,124,3,19,,,,,0,115,115,553,,,,,,,,,,,,,,,,,,,,,,,,,,,,,,,,,,,,,,,,,,,,,,,,,,,,,,,,,,,,,,,,,,,,,,,,,,,,397.81790754100075,None,space,0.45544121600687504,397.81790754100075,None,398.3536254139908,None,f,1,0.7357701000000816,398.3536254139908,None,399.1187252247764,None,None,399.1187252247764,None,,1,001,2021_Nov_01_1418,searchDisc4,2021.2.3,60.00805488875046,
images/exp2b_trial_153_colour3_distractors1_l.png,l,f,2b,153,3,1,,,,,0,116,116,774,,,,,,,,,,,,,,,,,,,,,,,,,,,,,,,,,,,,,,,,,,,,,,,,,,,,,,,,,,,,,,,,,,,,,,,,,,,,399.1176867009781,None,space,0.4356929790228605,399.1176867009781,None,399.6205101329833,None,f,1,0.6609519630146679,399.6205101329833,None,400.3021235607739,None,None,400.3021235607739,None,,1,001,2021_Nov_01_1418,searchDisc4,2021.2.3,60.00805488875046,
images/exp2c_trial_56_colour2_distractors31_l.png,l,f,2c,56,2,31,,,,,0,117,117,869,,,,,,,,,,,,,,,,,,,,,,,,,,,,,,,,,,,,,,,,,,,,,,,,,,,,,,,,,,,,,,,,,,,,,,,,,,,,400.30140926799504,None,space,0.39599275699583814,400.30140926799504,None,400.77061485897866,None,f,1,1.2789343640033621,400.77061485897866,None,402.06771608578856,None,None,402.06771608578856,None,,1,001,2021_Nov_01_1418,searchDisc4,2021.2.3,60.00805488875046,
images/exp1a_trial_40_colour2_distractors19_r.png,r,j,1a,40,2,19,,,,,0,118,118,85,,,,,,,,,,,,,,,,,,,,,,,,,,,,,,,,,,,,,,,,,,,,,,,,,,,,,,,,,,,,,,,,,,,,,,,,,,,,402.0676468469901,None,space,0.34970947800320573,402.0676468469901,None,402.48731476298417,None,j,1,1.210319972014986,402.48731476298417,None,403.71823350479826,None,None,403.71823350479826,None,,1,001,2021_Nov_01_1418,searchDisc4,2021.2.3,60.00805488875046,
images/exp2b_trial_186_colour3_distractors4_l.png,l,f,2b,186,3,4,,,,,0,119,119,807,,,,,,,,,,,,,,,,,,,,,,,,,,,,,,,,,,,,,,,,,,,,,,,,,,,,,,,,,,,,,,,,,,,,,,,,,,,,403.7183162009751,None,space,0.4352739469904918,403.7183162009751,None,404.22058768197894,None,f,1,0.980987274000654,404.22058768197894,None,405.2178787229932,None,c,405.2178787229932,None,8.10411243600538,1,001,2021_Nov_01_1418,searchDisc4,2021.2.3,60.00805488875046,
images/exp1a_trial_159_colour0_distractors0_l.png,l,f,1a,159,0,0,,,,,0,120,120,204,,,,,,,,,,,,,,,,,,,,,,,,,,,,,,,,,,,,,,,,,,,,,,,,,,,,,,,,,,,,,,,,,,,,,,,,,,,,413.35407260997454,None,space,7.496244214009494,413.35407260997454,None,420.92120248498395,None,f,1,0.8492246330133639,420.92120248498395,None,421.8026615587878,None,None,421.8026615587878,None,,1,001,2021_Nov_01_1418,searchDisc4,2021.2.3,60.00805488875046,
images/exp2a_trial_48_colour1_distractors4_l.png,l,f,2a,48,1,4,,,,,0,121,121,477,,,,,,,,,,,,,,,,,,,,,,,,,,,,,,,,,,,,,,,,,,,,,,,,,,,,,,,,,,,,,,,,,,,,,,,,,,,,421.80229087299085,None,space,0.44016272501903586,421.80229087299085,None,422.3212309339724,None,f,1,0.7612753320136108,422.3212309339724,None,423.1018422077759,None,None,423.1018422077759,None,,1,001,2021_Nov_01_1418,searchDisc4,2021.2.3,60.00805488875046,
images/exp1a_trial_35_colour1_distractors19_r.png,r,j,1a,35,1,19,,,,,0,122,122,80,,,,,,,,,,,,,,,,,,,,,,,,,,,,,,,,,,,,,,,,,,,,,,,,,,,,,,,,,,,,,,,,,,,,,,,,,,,,423.10173478297656,None,space,0.9647466200112831,423.10173478297656,None,424.1379914399877,None,j,1,0.8965930999838747,424.1379914399877,None,425.05244455777574,None,None,425.05244455777574,None,,1,001,2021_Nov_01_1418,searchDisc4,2021.2.3,60.00805488875046,
images/exp1a_trial_82_colour1_distractors19_l.png,l,f,1a,82,1,19,,,,,0,123,123,127,,,,,,,,,,,,,,,,,,,,,,,,,,,,,,,,,,,,,,,,,,,,,,,,,,,,,,,,,,,,,,,,,,,,,,,,,,,,425.0524166119867,None,space,0.494109721010318,425.0524166119867,None,425.62126892997185,None,f,1,0.7813540300121531,425.62126892997185,None,426.43609771179035,None,None,426.43609771179035,None,,1,001,2021_Nov_01_1418,searchDisc4,2021.2.3,60.00805488875046,
images/exp1b_trial_180_colour2_distractors1_l.png,l,f,1b,180,2,1,,,,,0,124,124,417,,,,,,,,,,,,,,,,,,,,,,,,,,,,,,,,,,,,,,,,,,,,,,,,,,,,,,,,,,,,,,,,,,,,,,,,,,,,426.43573920597555,None,space,0.39888018197962083,426.43573920597555,None,426.9046052969934,None,f,1,0.6740030689979903,426.9046052969934,None,427.6023418357945,None,None,427.6023418357945,None,,1,001,2021_Nov_01_1418,searchDisc4,2021.2.3,60.00805488875046,
images/exp1a_trial_36_colour1_distractors31_r.png,r,j,1a,36,1,31,,,,,0,125,125,81,,,,,,,,,,,,,,,,,,,,,,,,,,,,,,,,,,,,,,,,,,,,,,,,,,,,,,,,,,,,,,,,,,,,,,,,,,,,427.60179918899667,None,space,0.40886076900642365,427.60179918899667,None,428.088159728999,None,j,1,0.8666245209751651,428.088159728999,None,428.986092160776,None,None,428.986092160776,None,,1,001,2021_Nov_01_1418,searchDisc4,2021.2.3,60.00805488875046,
images/exp1a_trial_148_colour2_distractors1_l.png,l,f,1a,148,2,1,,,,,0,126,126,193,,,,,,,,,,,,,,,,,,,,,,,,,,,,,,,,,,,,,,,,,,,,,,,,,,,,,,,,,,,,,,,,,,,,,,,,,,,,428.985259862995,None,space,0.417497074988205,428.985259862995,None,429.4714436699869,None,f,1,0.731307874986669,429.4714436699869,None,430.21964569578995,None,None,430.21964569578995,None,,1,001,2021_Nov_01_1418,searchDisc4,2021.2.3,60.00805488875046,
images/exp2a_trial_17_colour1_distractors9_l.png,l,f,2a,17,1,9,,,,,0,127,127,446,,,,,,,,,,,,,,,,,,,,,,,,,,,,,,,,,,,,,,,,,,,,,,,,,,,,,,,,,,,,,,,,,,,,,,,,,,,,430.2194185979897,None,space,0.4793634419911541,430.2194185979897,None,430.77155795597355,None,f,1,0.7753398880013265,430.77155795597355,None,431.56968743779,None,None,431.56968743779,None,,1,001,2021_Nov_01_1418,searchDisc4,2021.2.3,60.00805488875046,
images/exp1a_trial_73_colour2_distractors31_r.png,r,j,1a,73,2,31,,,,,0,128,128,118,,,,,,,,,,,,,,,,,,,,,,,,,,,,,,,,,,,,,,,,,,,,,,,,,,,,,,,,,,,,,,,,,,,,,,,,,,,,431.5693178809888,None,space,0.6336068619857542,431.5693178809888,None,432.2715370709775,None,j,1,3.4515636430005543,432.2715370709775,None,435.7528966217942,None,None,435.7528966217942,None,,1,001,2021_Nov_01_1418,searchDisc4,2021.2.3,60.00805488875046,
images/exp1a_trial_126_colour0_distractors0_r.png,r,j,1a,126,0,0,,,,,0,129,129,171,,,,,,,,,,,,,,,,,,,,,,,,,,,,,,,,,,,,,,,,,,,,,,,,,,,,,,,,,,,,,,,,,,,,,,,,,,,,435.7528310389898,None,space,0.36222888799966313,435.7528310389898,None,436.18822382699,None,j,1,0.7269133999943733,436.18822382699,None,436.9356581447937,None,None,436.9356581447937,None,,1,001,2021_Nov_01_1418,searchDisc4,2021.2.3,60.00805488875046,
images/exp1b_trial_89_colour3_distractors1_l.png,l,f,1b,89,3,1,,,,,0,130,130,326,,,,,,,,,,,,,,,,,,,,,,,,,,,,,,,,,,,,,,,,,,,,,,,,,,,,,,,,,,,,,,,,,,,,,,,,,,,,436.93562019997626,None,space,0.32349802998942323,436.93562019997626,None,437.33828079199884,None,f,1,0.8089236450032331,437.33828079199884,None,438.1688322237751,None,None,438.1688322237751,None,,1,001,2021_Nov_01_1418,searchDisc4,2021.2.3,60.00805488875046,
images/exp1a_trial_185_colour3_distractors1_l.png,l,f,1a,185,3,1,,,,,0,131,131,230,,,,,,,,,,,,,,,,,,,,,,,,,,,,,,,,,,,,,,,,,,,,,,,,,,,,,,,,,,,,,,,,,,,,,,,,,,,,438.16949508397374,None,space,0.3696042610099539,438.16949508397374,None,438.611275371979,None,f,1,0.6799921540077776,438.611275371979,None,439.31974670878844,None,None,439.31974670878844,None,,1,001,2021_Nov_01_1418,searchDisc4,2021.2.3,60.00805488875046,
images/exp1b_trial_122_colour3_distractors4_l.png,l,f,1b,122,3,4,,,,,0,132,132,359,,,,,,,,,,,,,,,,,,,,,,,,,,,,,,,,,,,,,,,,,,,,,,,,,,,,,,,,,,,,,,,,,,,,,,,,,,,,439.31950455799233,None,space,0.41170970801613294,439.31950455799233,None,439.8043765889888,None,f,1,0.7029362480097916,439.8043765889888,None,440.53638986777514,None,None,440.53638986777514,None,,1,001,2021_Nov_01_1418,searchDisc4,2021.2.3,60.00805488875046,
images/exp1a_trial_39_colour2_distractors9_r.png,r,j,1a,39,2,9,,,,,0,133,133,84,,,,,,,,,,,,,,,,,,,,,,,,,,,,,,,,,,,,,,,,,,,,,,,,,,,,,,,,,,,,,,,,,,,,,,,,,,,,440.5360818079789,None,space,0.39519839800777845,440.5360818079789,None,441.00522903498495,None,j,1,0.6621543779911008,441.00522903498495,None,441.68553462577984,None,None,441.68553462577984,None,,1,001,2021_Nov_01_1418,searchDisc4,2021.2.3,60.00805488875046,
images/exp2c_trial_132_colour1_distractors31_r.png,r,j,2c,132,1,31,,,,,0,134,134,945,,,,,,,,,,,,,,,,,,,,,,,,,,,,,,,,,,,,,,,,,,,,,,,,,,,,,,,,,,,,,,,,,,,,,,,,,,,,441.68549629699555,None,space,0.3898496860056184,441.68549629699555,None,442.1550283260003,None,j,1,1.0164269600063562,442.1550283260003,None,443.20309317379724,None,None,443.20309317379724,None,,1,001,2021_Nov_01_1418,searchDisc4,2021.2.3,60.00805488875046,
images/exp2c_trial_27_colour3_distractors9_l.png,l,f,2c,27,3,9,,,,,0,135,135,840,,,,,,,,,,,,,,,,,,,,,,,,,,,,,,,,,,,,,,,,,,,,,,,,,,,,,,,,,,,,,,,,,,,,,,,,,,,,443.20212570298463,None,space,0.40115671398234554,443.20212570298463,None,443.67115156998625,None,f,1,0.6523422379978001,443.67115156998625,None,444.3531012777821,None,None,444.3531012777821,None,,1,001,2021_Nov_01_1418,searchDisc4,2021.2.3,60.00805488875046,
images/exp1a_trial_54_colour2_distractors9_l.png,l,f,1a,54,2,9,,,,,0,136,136,99,,,,,,,,,,,,,,,,,,,,,,,,,,,,,,,,,,,,,,,,,,,,,,,,,,,,,,,,,,,,,,,,,,,,,,,,,,,,444.35293355199974,None,space,0.4985433710098732,444.35293355199974,None,444.92191571198055,None,f,1,0.7056302630226128,444.92191571198055,None,445.65266966979834,None,None,445.65266966979834,None,,1,001,2021_Nov_01_1418,searchDisc4,2021.2.3,60.00805488875046,
images/exp1b_trial_2_colour1_distractors9_r.png,r,j,1b,2,1,9,,,,,0,137,137,239,,,,,,,,,,,,,,,,,,,,,,,,,,,,,,,,,,,,,,,,,,,,,,,,,,,,,,,,,,,,,,,,,,,,,,,,,,,,445.6521908239811,None,space,0.39922662201570347,445.6521908239811,None,446.122008514998,None,j,1,0.785602759977337,446.122008514998,None,446.9366124237713,None,None,446.9366124237713,None,,1,001,2021_Nov_01_1418,searchDisc4,2021.2.3,60.00805488875046,
images/exp1b_trial_120_colour2_distractors31_l.png,l,f,1b,120,2,31,,,,,0,138,138,357,,,,,,,,,,,,,,,,,,,,,,,,,,,,,,,,,,,,,,,,,,,,,,,,,,,,,,,,,,,,,,,,,,,,,,,,,,,,446.9356032309879,None,space,0.4279755559982732,446.9356032309879,None,447.43874113998027,None,f,1,0.9729376889881678,447.43874113998027,None,448.4366373587982,None,None,448.4366373587982,None,,1,001,2021_Nov_01_1418,searchDisc4,2021.2.3,60.00805488875046,
images/exp2b_trial_156_colour3_distractors19_l.png,l,f,2b,156,3,19,,,,,0,139,139,777,,,,,,,,,,,,,,,,,,,,,,,,,,,,,,,,,,,,,,,,,,,,,,,,,,,,,,,,,,,,,,,,,,,,,,,,,,,,448.43638743599877,None,space,0.4631870260054711,448.43638743599877,None,448.9720103429863,None,f,1,0.8797186180017889,448.9720103429863,None,449.86958963479265,None,None,449.86958963479265,None,,1,001,2021_Nov_01_1418,searchDisc4,2021.2.3,60.00805488875046,
images/exp2c_trial_159_colour0_distractors0_l.png,l,f,2c,159,0,0,,,,,0,140,140,12,,,,,,,,,,,,,,,,,,,,,,,,,,,,,,,,,,,,,,,,,,,,,,,,,,,,,,,,,,,,,,,,,,,,,,,,,,,,449.8693603699794,None,space,0.35034123400691897,449.8693603699794,None,450.2887098719948,None,f,1,0.6030869139940478,450.2887098719948,None,450.92007300278055,None,None,450.92007300278055,None,,1,001,2021_Nov_01_1418,searchDisc4,2021.2.3,60.00805488875046,
images/exp1b_trial_0_colour1_distractors1_r.png,r,j,1b,0,1,1,,,,,0,141,141,237,,,,,,,,,,,,,,,,,,,,,,,,,,,,,,,,,,,,,,,,,,,,,,,,,,,,,,,,,,,,,,,,,,,,,,,,,,,,450.91978656797437,None,space,0.4439780510147102,450.91978656797437,None,451.43856226597563,None,j,1,0.6052007029938977,451.43856226597563,None,452.0700256587879,None,None,452.0700256587879,None,,1,001,2021_Nov_01_1418,searchDisc4,2021.2.3,60.00805488875046,
images/exp1a_trial_11_colour3_distractors4_r.png,r,j,1a,11,3,4,,,,,0,142,142,56,,,,,,,,,,,,,,,,,,,,,,,,,,,,,,,,,,,,,,,,,,,,,,,,,,,,,,,,,,,,,,,,,,,,,,,,,,,,452.070094760973,None,space,0.453686535009183,452.070094760973,None,452.60552140898653,None,j,1,0.6383651210053358,452.60552140898653,None,453.2702134367719,None,None,453.2702134367719,None,,1,001,2021_Nov_01_1418,searchDisc4,2021.2.3,60.00805488875046,
images/exp2a_trial_167_colour2_distractors9_r.png,r,j,2a,167,2,9,,,,,0,143,143,596,,,,,,,,,,,,,,,,,,,,,,,,,,,,,,,,,,,,,,,,,,,,,,,,,,,,,,,,,,,,,,,,,,,,,,,,,,,,453.26936259897775,None,space,0.4624753250100184,453.26936259897775,None,453.805484143988,None,j,1,0.8704500150051899,453.805484143988,None,454.70353905978845,None,None,454.70353905978845,None,,1,001,2021_Nov_01_1418,searchDisc4,2021.2.3,60.00805488875046,
images/exp2c_trial_47_colour1_distractors1_l.png,l,f,2c,47,1,1,,,,,0,144,144,860,,,,,,,,,,,,,,,,,,,,,,,,,,,,,,,,,,,,,,,,,,,,,,,,,,,,,,,,,,,,,,,,,,,,,,,,,,,,454.7026462239737,None,space,0.2852405279991217,454.7026462239737,None,455.0555034269928,None,f,1,0.6684847550059203,455.0555034269928,None,455.7535387527896,None,None,455.7535387527896,None,,1,001,2021_Nov_01_1418,searchDisc4,2021.2.3,60.00805488875046,
images/exp1a_trial_144_colour1_distractors4_l.png,l,f,1a,144,1,4,,,,,0,145,145,189,,,,,,,,,,,,,,,,,,,,,,,,,,,,,,,,,,,,,,,,,,,,,,,,,,,,,,,,,,,,,,,,,,,,,,,,,,,,455.75321908897604,None,space,0.5146728499967139,455.75321908897604,None,456.3389429059753,None,f,1,0.7850723259907681,456.3389429059753,None,457.15361982179456,None,None,457.15361982179456,None,,1,001,2021_Nov_01_1418,searchDisc4,2021.2.3,60.00805488875046,
images/exp2c_trial_22_colour2_distractors9_l.png,l,f,2c,22,2,9,,,,,0,146,146,835,,,,,,,,,,,,,,,,,,,,,,,,,,,,,,,,,,,,,,,,,,,,,,,,,,,,,,,,,,,,,,,,,,,,,,,,,,,,457.15344790098607,None,space,0.4425608080055099,457.15344790098607,None,457.67232678999426,None,f,1,0.6998148509883322,457.67232678999426,None,458.40357565379236,None,None,458.40357565379236,None,,1,001,2021_Nov_01_1418,searchDisc4,2021.2.3,60.00805488875046,
images/exp2b_trial_184_colour2_distractors31_l.png,l,f,2b,184,2,31,,,,,0,147,147,805,,,,,,,,,,,,,,,,,,,,,,,,,,,,,,,,,,,,,,,,,,,,,,,,,,,,,,,,,,,,,,,,,,,,,,,,,,,,458.4032791159989,None,space,0.44078993299626745,458.4032791159989,None,458.9223452999722,None,f,1,0.6977359949960373,458.9223452999722,None,459.6369605737855,None,None,459.6369605737855,None,,1,001,2021_Nov_01_1418,searchDisc4,2021.2.3,60.00805488875046,
images/exp2c_trial_2_colour1_distractors9_r.png,r,j,2c,2,1,9,,,,,0,148,148,815,,,,,,,,,,,,,,,,,,,,,,,,,,,,,,,,,,,,,,,,,,,,,,,,,,,,,,,,,,,,,,,,,,,,,,,,,,,,459.6367196200008,None,space,0.5434530280181207,459.6367196200008,None,460.25564274098724,None,j,1,0.9325852839974687,460.25564274098724,None,461.22048637477565,None,None,461.22048637477565,None,,1,001,2021_Nov_01_1418,searchDisc4,2021.2.3,60.00805488875046,
images/exp2c_trial_109_colour3_distractors19_r.png,r,j,2c,109,3,19,,,,,0,149,149,922,,,,,,,,,,,,,,,,,,,,,,,,,,,,,,,,,,,,,,,,,,,,,,,,,,,,,,,,,,,,,,,,,,,,,,,,,,,,461.2203468209773,None,space,0.43981264397734776,461.2203468209773,None,461.7392083599989,None,j,1,0.6331114339991473,461.7392083599989,None,462.4037991107907,None,None,462.4037991107907,None,,1,001,2021_Nov_01_1418,searchDisc4,2021.2.3,60.00805488875046,
images/exp1b_trial_158_colour0_distractors0_r.png,r,j,1b,158,0,0,,,,,0,150,150,395,,,,,,,,,,,,,,,,,,,,,,,,,,,,,,,,,,,,,,,,,,,,,,,,,,,,,,,,,,,,,,,,,,,,,,,,,,,,462.4028114119719,None,space,0.3693626750027761,462.4028114119719,None,462.8387725969951,None,j,1,0.5974877720000222,462.8387725969951,None,463.45370182179613,None,None,463.45370182179613,None,,1,001,2021_Nov_01_1418,searchDisc4,2021.2.3,60.00805488875046,
images/exp1a_trial_17_colour1_distractors9_l.png,l,f,1a,17,1,9,,,,,0,151,151,62,,,,,,,,,,,,,,,,,,,,,,,,,,,,,,,,,,,,,,,,,,,,,,,,,,,,,,,,,,,,,,,,,,,,,,,,,,,,463.4535024029901,None,space,0.3507370320148766,463.4535024029901,None,463.87262621699483,None,f,1,0.8918003759754356,463.87262621699483,None,464.78721261178725,None,None,464.78721261178725,None,,1,001,2021_Nov_01_1418,searchDisc4,2021.2.3,60.00805488875046,
images/exp2b_trial_101_colour2_distractors1_r.png,r,j,2b,101,2,1,,,,,0,152,152,722,,,,,,,,,,,,,,,,,,,,,,,,,,,,,,,,,,,,,,,,,,,,,,,,,,,,,,,,,,,,,,,,,,,,,,,,,,,,464.78700727797695,None,space,0.3852776109997649,464.78700727797695,None,465.2391869039857,None,j,1,0.9172996629786212,465.2391869039857,None,466.1871787067794,None,None,466.1871787067794,None,,1,001,2021_Nov_01_1418,searchDisc4,2021.2.3,60.00805488875046,
images/exp2c_trial_112_colour1_distractors4_l.png,l,f,2c,112,1,4,,,,,0,153,153,925,,,,,,,,,,,,,,,,,,,,,,,,,,,,,,,,,,,,,,,,,,,,,,,,,,,,,,,,,,,,,,,,,,,,,,,,,,,,466.18694093899103,None,space,0.3775128750130534,466.18694093899103,None,466.639178996993,None,f,1,0.5893869400024414,466.639178996993,None,467.253569703782,None,None,467.253569703782,None,,1,001,2021_Nov_01_1418,searchDisc4,2021.2.3,60.00805488875046,
images/exp1a_trial_43_colour3_distractors4_r.png,r,j,1a,43,3,4,,,,,0,154,154,88,,,,,,,,,,,,,,,,,,,,,,,,,,,,,,,,,,,,,,,,,,,,,,,,,,,,,,,,,,,,,,,,,,,,,,,,,,,,467.25276943997596,None,space,0.45573113299906254,467.25276943997596,None,467.7892125759972,None,j,1,0.7753950839978643,467.7892125759972,None,468.5863192087854,None,None,468.5863192087854,None,,1,001,2021_Nov_01_1418,searchDisc4,2021.2.3,60.00805488875046,
images/exp1a_trial_60_colour3_distractors19_l.png,l,f,1a,60,3,19,,,,,0,155,155,105,,,,,,,,,,,,,,,,,,,,,,,,,,,,,,,,,,,,,,,,,,,,,,,,,,,,,,,,,,,,,,,,,,,,,,,,,,,,468.5863569349749,None,space,0.45819719598512165,468.5863569349749,None,469.1225430839986,None,f,1,0.8741294330102392,469.1225430839986,None,470.0204402077943,None,None,470.0204402077943,None,,1,001,2021_Nov_01_1418,searchDisc4,2021.2.3,60.00805488875046,
images/exp1b_trial_126_colour0_distractors0_r.png,r,j,1b,126,0,0,,,,,0,156,156,363,,,,,,,,,,,,,,,,,,,,,,,,,,,,,,,,,,,,,,,,,,,,,,,,,,,,,,,,,,,,,,,,,,,,,,,,,,,,470.0201811619918,None,space,0.4323662950191647,470.0201811619918,None,470.5226170059759,None,j,1,0.6581005189800635,470.5226170059759,None,471.2036011547898,None,None,471.2036011547898,None,,1,001,2021_Nov_01_1418,searchDisc4,2021.2.3,60.00805488875046,
images/exp1b_trial_112_colour1_distractors4_l.png,l,f,1b,112,1,4,,,,,0,157,157,349,,,,,,,,,,,,,,,,,,,,,,,,,,,,,,,,,,,,,,,,,,,,,,,,,,,,,,,,,,,,,,,,,,,,,,,,,,,,471.2033285139769,None,space,0.4092900510004256,471.2033285139769,None,471.6893535179843,None,f,1,1.0514594120031688,471.6893535179843,None,472.7704404377728,None,None,472.7704404377728,None,,1,001,2021_Nov_01_1418,searchDisc4,2021.2.3,60.00805488875046,
images/exp1a_trial_14_colour3_distractors31_r.png,r,j,1a,14,3,31,,,,,0,158,158,59,,,,,,,,,,,,,,,,,,,,,,,,,,,,,,,,,,,,,,,,,,,,,,,,,,,,,,,,,,,,,,,,,,,,,,,,,,,,472.7703186129802,None,space,0.37042454699985683,472.7703186129802,None,473.22273148599197,None,j,1,0.5581015509960707,473.22273148599197,None,473.8035212367831,None,None,473.8035212367831,None,,1,001,2021_Nov_01_1418,searchDisc4,2021.2.3,60.00805488875046,
images/exp2c_trial_179_colour1_distractors31_l.png,l,f,2c,179,1,31,,,,,0,159,159,32,,,,,,,,,,,,,,,,,,,,,,,,,,,,,,,,,,,,,,,,,,,,,,,,,,,,,,,,,,,,,,,,,,,,,,,,,,,,473.8033367819735,None,space,0.39345254900399595,473.8033367819735,None,474.2721091749845,None,f,1,0.7408042500028387,474.2721091749845,None,475.0369131717889,None,None,475.0369131717889,None,,1,001,2021_Nov_01_1418,searchDisc4,2021.2.3,60.00805488875046,
images/exp2a_trial_186_colour3_distractors4_l.png,l,f,2a,186,3,4,,,,,0,160,160,615,,,,,,,,,,,,,,,,,,,,,,,,,,,,,,,,,,,,,,,,,,,,,,,,,,,,,,,,,,,,,,,,,,,,,,,,,,,,475.0367887769826,None,space,0.40006087900837883,475.0367887769826,None,475.5058512489777,None,f,1,0.7550950300064869,475.5058512489777,None,476.2874389967765,None,None,476.2874389967765,None,,1,001,2021_Nov_01_1418,searchDisc4,2021.2.3,60.00805488875046,
images/exp2a_trial_1_colour1_distractors4_r.png,r,j,2a,1,1,4,,,,,0,161,161,430,,,,,,,,,,,,,,,,,,,,,,,,,,,,,,,,,,,,,,,,,,,,,,,,,,,,,,,,,,,,,,,,,,,,,,,,,,,,476.28724835597677,None,space,0.4056657580076717,476.28724835597677,None,476.7726967149938,None,j,1,0.7523310579999816,476.7726967149938,None,477.55429161078064,None,None,477.55429161078064,None,,1,001,2021_Nov_01_1418,searchDisc4,2021.2.3,60.00805488875046,
images/exp2b_trial_2_colour1_distractors9_r.png,r,j,2b,2,1,9,,,,,0,162,162,623,,,,,,,,,,,,,,,,,,,,,,,,,,,,,,,,,,,,,,,,,,,,,,,,,,,,,,,,,,,,,,,,,,,,,,,,,,,,477.5531351969985,None,space,0.41184699299628846,477.5531351969985,None,478.03959034298896,None,j,1,0.6613624909950886,478.03959034298896,None,478.7206209927972,None,None,478.7206209927972,None,,1,001,2021_Nov_01_1418,searchDisc4,2021.2.3,60.00805488875046,
images/exp2c_trial_42_colour3_distractors1_r.png,r,j,2c,42,3,1,,,,,0,163,163,855,,,,,,,,,,,,,,,,,,,,,,,,,,,,,,,,,,,,,,,,,,,,,,,,,,,,,,,,,,,,,,,,,,,,,,,,,,,,478.720420824975,None,space,0.3645991650118958,478.720420824975,None,479.15414808297646,None,j,1,0.6909638789948076,479.15414808297646,None,479.87084359378787,None,None,479.87084359378787,None,,1,001,2021_Nov_01_1418,searchDisc4,2021.2.3,60.00805488875046,
images/exp2c_trial_111_colour1_distractors1_l.png,l,f,2c,111,1,1,,,,,0,164,164,924,,,,,,,,,,,,,,,,,,,,,,,,,,,,,,,,,,,,,,,,,,,,,,,,,,,,,,,,,,,,,,,,,,,,,,,,,,,,479.8707538639719,None,space,0.6383281140006147,479.8707538639719,None,480.5895396859851,None,f,1,0.6396473069908097,480.5895396859851,None,481.2542861677939,None,None,481.2542861677939,None,,1,001,2021_Nov_01_1418,searchDisc4,2021.2.3,60.00805488875046,
images/exp2a_trial_147_colour1_distractors31_l.png,l,f,2a,147,1,31,,,,,0,165,165,576,,,,,,,,,,,,,,,,,,,,,,,,,,,,,,,,,,,,,,,,,,,,,,,,,,,,,,,,,,,,,,,,,,,,,,,,,,,,481.25396187999286,None,space,0.5271921310049947,481.25396187999286,None,481.8562913200003,None,f,1,0.8689586159889586,481.8562913200003,None,482.7542954017699,None,None,482.7542954017699,None,,1,001,2021_Nov_01_1418,searchDisc4,2021.2.3,60.00805488875046,
images/exp2a_trial_16_colour1_distractors4_l.png,l,f,2a,16,1,4,,,,,0,166,166,445,,,,,,,,,,,,,,,,,,,,,,,,,,,,,,,,,,,,,,,,,,,,,,,,,,,,,,,,,,,,,,,,,,,,,,,,,,,,482.75328044898924,None,space,0.3879140520002693,482.75328044898924,None,483.22313519299496,None,f,1,0.7821473570074886,483.22313519299496,None,484.0376989997749,None,None,484.0376989997749,None,,1,001,2021_Nov_01_1418,searchDisc4,2021.2.3,60.00805488875046,
images/exp1a_trial_140_colour3_distractors9_r.png,r,j,1a,140,3,9,,,,,0,167,167,185,,,,,,,,,,,,,,,,,,,,,,,,,,,,,,,,,,,,,,,,,,,,,,,,,,,,,,,,,,,,,,,,,,,,,,,,,,,,484.03742785198847,None,space,0.3998341839760542,484.03742785198847,None,484.50633674598066,None,j,1,0.8750067740038503,484.50633674598066,None,485.40392361278646,None,None,485.40392361278646,None,,1,001,2021_Nov_01_1418,searchDisc4,2021.2.3,60.00805488875046,
images/exp1b_trial_60_colour3_distractors19_l.png,l,f,1b,60,3,19,,,,,0,168,168,297,,,,,,,,,,,,,,,,,,,,,,,,,,,,,,,,,,,,,,,,,,,,,,,,,,,,,,,,,,,,,,,,,,,,,,,,,,,,485.403631336987,None,space,0.4176299830141943,485.403631336987,None,485.8898246609897,None,f,1,2.9877307820133865,485.8898246609897,None,488.90485621179687,None,None,488.90485621179687,None,,1,001,2021_Nov_01_1418,searchDisc4,2021.2.3,60.00805488875046,
images/exp1b_trial_3_colour1_distractors19_r.png,r,j,1b,3,1,19,,,,,0,169,169,240,,,,,,,,,,,,,,,,,,,,,,,,,,,,,,,,,,,,,,,,,,,,,,,,,,,,,,,,,,,,,,,,,,,,,,,,,,,,488.9037659089954,None,space,0.9816914109978825,488.9037659089954,None,489.9567487309978,None,j,1,0.9768785049964208,489.9567487309978,None,490.95408195379423,None,None,490.95408195379423,None,,1,001,2021_Nov_01_1418,searchDisc4,2021.2.3,60.00805488875046,
images/exp2c_trial_6_colour2_distractors4_r.png,r,j,2c,6,2,4,,,,,0,170,170,819,,,,,,,,,,,,,,,,,,,,,,,,,,,,,,,,,,,,,,,,,,,,,,,,,,,,,,,,,,,,,,,,,,,,,,,,,,,,490.9538816679851,None,space,0.3636396059882827,490.9538816679851,None,491.3879723729915,None,j,1,0.8817272669984959,491.3879723729915,None,492.2878965707787,None,None,492.2878965707787,None,,1,001,2021_Nov_01_1418,searchDisc4,2021.2.3,60.00805488875046,
images/exp2b_trial_187_colour3_distractors9_l.png,l,f,2b,187,3,9,,,,,0,171,171,808,,,,,,,,,,,,,,,,,,,,,,,,,,,,,,,,,,,,,,,,,,,,,,,,,,,,,,,,,,,,,,,,,,,,,,,,,,,,492.2880047229992,None,space,0.4216588090057485,492.2880047229992,None,492.79000258498127,None,f,1,0.6717599850089755,492.79000258498127,None,493.48797259878484,None,None,493.48797259878484,None,,1,001,2021_Nov_01_1418,searchDisc4,2021.2.3,60.00805488875046,
images/exp2a_trial_152_colour2_distractors31_l.png,l,f,2a,152,2,31,,,,,0,172,172,581,,,,,,,,,,,,,,,,,,,,,,,,,,,,,,,,,,,,,,,,,,,,,,,,,,,,,,,,,,,,,,,,,,,,,,,,,,,,493.48696325998753,None,space,0.462733689986635,493.48696325998753,None,494.02510145297856,None,f,1,0.7407248270174023,494.02510145297856,None,494.78794358076993,None,None,494.78794358076993,None,,1,001,2021_Nov_01_1418,searchDisc4,2021.2.3,60.00805488875046,
images/exp2c_trial_7_colour2_distractors9_r.png,r,j,2c,7,2,9,,,,,0,173,173,820,,,,,,,,,,,,,,,,,,,,,,,,,,,,,,,,,,,,,,,,,,,,,,,,,,,,,,,,,,,,,,,,,,,,,,,,,,,,494.78773680198356,None,space,0.4659245609946083,494.78773680198356,None,495.3232905929908,None,j,1,0.826586909010075,495.3232905929908,None,496.17130585279665,None,None,496.17130585279665,None,,1,001,2021_Nov_01_1418,searchDisc4,2021.2.3,60.00805488875046,
images/exp2b_trial_52_colour2_distractors1_l.png,l,f,2b,52,2,1,,,,,0,174,174,673,,,,,,,,,,,,,,,,,,,,,,,,,,,,,,,,,,,,,,,,,,,,,,,,,,,,,,,,,,,,,,,,,,,,,,,,,,,,496.1710403719917,None,space,0.4587971039873082,496.1710403719917,None,496.70743597697583,None,f,1,0.6584758700046223,496.70743597697583,None,497.38750327477464,None,None,497.38750327477464,None,,1,001,2021_Nov_01_1418,searchDisc4,2021.2.3,60.00805488875046,
images/exp2a_trial_191_colour0_distractors0_l.png,l,f,2a,191,0,0,,,,,0,175,175,620,,,,,,,,,,,,,,,,,,,,,,,,,,,,,,,,,,,,,,,,,,,,,,,,,,,,,,,,,,,,,,,,,,,,,,,,,,,,497.38728704699315,None,space,0.41857828001957387,497.38728704699315,None,497.8734779529914,None,f,1,0.5803533500002231,497.8734779529914,None,498.4714824767725,None,None,498.4714824767725,None,,1,001,2021_Nov_01_1418,searchDisc4,2021.2.3,60.00805488875046,
images/exp2a_trial_45_colour3_distractors19_r.png,r,j,2a,45,3,19,,,,,0,176,176,474,,,,,,,,,,,,,,,,,,,,,,,,,,,,,,,,,,,,,,,,,,,,,,,,,,,,,,,,,,,,,,,,,,,,,,,,,,,,498.47123525399365,None,space,0.44669400100247003,498.47123525399365,None,498.98988159399596,None,j,1,0.5761671570071485,498.98988159399596,None,499.58772838977166,None,None,499.58772838977166,None,,1,001,2021_Nov_01_1418,searchDisc4,2021.2.3,60.00805488875046,
images/exp2a_trial_99_colour1_distractors19_r.png,r,j,2a,99,1,19,,,,,0,177,177,528,,,,,,,,,,,,,,,,,,,,,,,,,,,,,,,,,,,,,,,,,,,,,,,,,,,,,,,,,,,,,,,,,,,,,,,,,,,,499.5878790449933,None,space,0.4821181840088684,499.5878790449933,None,500.14000682299957,None,j,1,0.8500916369957849,500.14000682299957,None,501.02164320478914,None,None,501.02164320478914,None,,1,001,2021_Nov_01_1418,searchDisc4,2021.2.3,60.00805488875046,
images/exp2a_trial_146_colour1_distractors19_l.png,l,f,2a,146,1,19,,,,,0,178,178,575,,,,,,,,,,,,,,,,,,,,,,,,,,,,,,,,,,,,,,,,,,,,,,,,,,,,,,,,,,,,,,,,,,,,,,,,,,,,501.0215634929773,None,space,0.4323821809957735,501.0215634929773,None,501.52273475998663,None,f,1,0.7633033980091568,501.52273475998663,None,502.3040552607854,None,None,502.3040552607854,None,,1,001,2021_Nov_01_1418,searchDisc4,2021.2.3,60.00805488875046,
images/exp1a_trial_124_colour3_distractors19_l.png,l,f,1a,124,3,19,,,,,0,179,179,169,,,,,,,,,,,,,,,,,,,,,,,,,,,,,,,,,,,,,,,,,,,,,,,,,,,,,,,,,,,,,,,,,,,,,,,,,,,,502.3043832939875,None,space,0.4136530599789694,502.3043832939875,None,502.7901088259823,None,f,1,0.7761109069979284,502.7901088259823,None,503.5880246757879,None,None,503.5880246757879,None,,1,001,2021_Nov_01_1418,searchDisc4,2021.2.3,60.00805488875046,
images/exp2a_trial_84_colour2_distractors1_l.png,l,f,2a,84,2,1,,,,,0,180,180,513,,,,,,,,,,,,,,,,,,,,,,,,,,,,,,,,,,,,,,,,,,,,,,,,,,,,,,,,,,,,,,,,,,,,,,,,,,,,503.5879684329848,None,space,0.43421969801420346,503.5879684329848,None,504.0902830149862,None,f,1,0.5399935470195487,504.0902830149862,None,504.6548217237869,None,None,504.6548217237869,None,,1,001,2021_Nov_01_1418,searchDisc4,2021.2.3,60.00805488875046,
images/exp2c_trial_24_colour2_distractors31_l.png,l,f,2c,24,2,31,,,,,0,181,181,837,,,,,,,,,,,,,,,,,,,,,,,,,,,,,,,,,,,,,,,,,,,,,,,,,,,,,,,,,,,,,,,,,,,,,,,,,,,,504.65407068197965,None,space,0.5040522759954911,504.65407068197965,None,505.24029126399546,None,f,1,0.854044237989001,505.24029126399546,None,506.121597687772,None,None,506.121597687772,None,,1,001,2021_Nov_01_1418,searchDisc4,2021.2.3,60.00805488875046,
images/exp2a_trial_181_colour2_distractors4_l.png,l,f,2a,181,2,4,,,,,0,182,182,610,,,,,,,,,,,,,,,,,,,,,,,,,,,,,,,,,,,,,,,,,,,,,,,,,,,,,,,,,,,,,,,,,,,,,,,,,,,,506.1212177569978,None,space,0.4530069720058236,506.1212177569978,None,506.65699982698425,None,f,1,0.5973091449995991,506.65699982698425,None,507.2713018107752,None,None,507.2713018107752,None,,1,001,2021_Nov_01_1418,searchDisc4,2021.2.3,60.00805488875046,
images/exp2b_trial_154_colour3_distractors4_l.png,l,f,2b,154,3,4,,,,,0,183,183,775,,,,,,,,,,,,,,,,,,,,,,,,,,,,,,,,,,,,,,,,,,,,,,,,,,,,,,,,,,,,,,,,,,,,,,,,,,,,507.27143080398673,None,space,0.4789681200054474,507.27143080398673,None,507.82319656398613,None,f,1,0.5831497160252184,507.82319656398613,None,508.4383800677897,None,None,508.4383800677897,None,,1,001,2021_Nov_01_1418,searchDisc4,2021.2.3,60.00805488875046,
images/exp2c_trial_152_colour2_distractors31_l.png,l,f,2c,152,2,31,,,,,0,184,184,5,,,,,,,,,,,,,,,,,,,,,,,,,,,,,,,,,,,,,,,,,,,,,,,,,,,,,,,,,,,,,,,,,,,,,,,,,,,,508.43811159199686,None,space,0.456296468997607,508.43811159199686,None,508.97378128999844,None,f,1,0.6806096030049957,508.97378128999844,None,509.6716730547778,None,None,509.6716730547778,None,,1,001,2021_Nov_01_1418,searchDisc4,2021.2.3,60.00805488875046,
images/exp2c_trial_41_colour2_distractors31_r.png,r,j,2c,41,2,31,,,,,0,185,185,854,,,,,,,,,,,,,,,,,,,,,,,,,,,,,,,,,,,,,,,,,,,,,,,,,,,,,,,,,,,,,,,,,,,,,,,,,,,,509.6715143499896,None,space,0.4790098399971612,509.6715143499896,None,510.2239027339965,None,j,1,0.6386233189841732,510.2239027339965,None,510.888499382796,None,None,510.888499382796,None,,1,001,2021_Nov_01_1418,searchDisc4,2021.2.3,60.00805488875046,
images/exp2b_trial_35_colour1_distractors19_r.png,r,j,2b,35,1,19,,,,,0,186,186,656,,,,,,,,,,,,,,,,,,,,,,,,,,,,,,,,,,,,,,,,,,,,,,,,,,,,,,,,,,,,,,,,,,,,,,,,,,,,510.8881131859962,None,space,0.5663149500032887,510.8881131859962,None,511.5238788519928,None,j,1,0.5467442729859613,511.5238788519928,None,512.0884787667892,None,None,512.0884787667892,None,,1,001,2021_Nov_01_1418,searchDisc4,2021.2.3,60.00805488875046,
images/exp1b_trial_173_colour3_distractors19_r.png,r,j,1b,173,3,19,,,,,0,187,187,410,,,,,,,,,,,,,,,,,,,,,,,,,,,,,,,,,,,,,,,,,,,,,,,,,,,,,,,,,,,,,,,,,,,,,,,,,,,,512.0882888529741,None,space,0.5661827699805144,512.0882888529741,None,512.7239858549729,None,j,1,1.0026747249939945,512.7239858549729,None,513.7552591367858,None,None,513.7552591367858,None,,1,001,2021_Nov_01_1418,searchDisc4,2021.2.3,60.00805488875046,
images/exp2b_trial_33_colour1_distractors4_r.png,r,j,2b,33,1,4,,,,,0,188,188,654,,,,,,,,,,,,,,,,,,,,,,,,,,,,,,,,,,,,,,,,,,,,,,,,,,,,,,,,,,,,,,,,,,,,,,,,,,,,513.7544789259846,None,space,0.35613381001167,513.7544789259846,None,514.1906160499784,None,j,1,0.5360686689964496,514.1906160499784,None,514.7552511537797,None,None,514.7552511537797,None,,1,001,2021_Nov_01_1418,searchDisc4,2021.2.3,60.00805488875046,
images/exp1b_trial_97_colour1_distractors4_r.png,r,j,1b,97,1,4,,,,,0,189,189,334,,,,,,,,,,,,,,,,,,,,,,,,,,,,,,,,,,,,,,,,,,,,,,,,,,,,,,,,,,,,,,,,,,,,,,,,,,,,514.75487040999,None,space,0.39584234898211434,514.75487040999,None,515.2218738369993,None,j,1,0.6327828890061937,515.2218738369993,None,515.8718982117716,None,None,515.8718982117716,None,,1,001,2021_Nov_01_1418,searchDisc4,2021.2.3,60.00805488875046,
images/exp2b_trial_144_colour1_distractors4_l.png,l,f,2b,144,1,4,,,,,0,190,190,765,,,,,,,,,,,,,,,,,,,,,,,,,,,,,,,,,,,,,,,,,,,,,,,,,,,,,,,,,,,,,,,,,,,,,,,,,,,,515.8717623909761,None,space,0.40695814799983054,515.8717623909761,None,516.3572254919854,None,f,1,0.833595879987115,516.3572254919854,None,517.2218529947859,None,None,517.2218529947859,None,,1,001,2021_Nov_01_1418,searchDisc4,2021.2.3,60.00805488875046,
images/exp2c_trial_72_colour2_distractors19_r.png,r,j,2c,72,2,19,,,,,0,191,191,885,,,,,,,,,,,,,,,,,,,,,,,,,,,,,,,,,,,,,,,,,,,,,,,,,,,,,,,,,,,,,,,,,,,,,,,,,,,,517.2215268149739,None,space,0.44920668099075556,517.2215268149739,None,517.7405420699797,None,j,1,0.6583195840066765,517.7405420699797,None,518.4216260767716,None,None,518.4216260767716,None,,1,001,2021_Nov_01_1418,searchDisc4,2021.2.3,60.00805488875046,
images/exp2c_trial_121_colour3_distractors1_l.png,l,f,2c,121,3,1,,,,,0,192,192,934,,,,,,,,,,,,,,,,,,,,,,,,,,,,,,,,,,,,,,,,,,,,,,,,,,,,,,,,,,,,,,,,,,,,,,,,,,,,518.4217334669956,None,space,0.513111428997945,518.4217334669956,None,519.0073861619749,None,f,1,0.8395691110054031,519.0073861619749,None,519.8719831757771,None,None,519.8719831757771,None,,1,001,2021_Nov_01_1418,searchDisc4,2021.2.3,60.00805488875046,
images/exp2c_trial_35_colour1_distractors19_r.png,r,j,2c,35,1,19,,,,,0,193,193,848,,,,,,,,,,,,,,,,,,,,,,,,,,,,,,,,,,,,,,,,,,,,,,,,,,,,,,,,,,,,,,,,,,,,,,,,,,,,519.8717721539724,None,space,0.5591565360082313,519.8717721539724,None,520.5072430269793,None,j,1,0.8677916309970897,520.5072430269793,None,521.4055395567848,None,None,521.4055395567848,None,,1,001,2021_Nov_01_1418,searchDisc4,2021.2.3,60.00805488875046,
images/exp2a_trial_111_colour1_distractors1_l.png,l,f,2a,111,1,1,,,,,0,194,194,540,,,,,,,,,,,,,,,,,,,,,,,,,,,,,,,,,,,,,,,,,,,,,,,,,,,,,,,,,,,,,,,,,,,,,,,,,,,,521.4054584749974,None,space,0.4495277399837505,521.4054584749974,None,521.9241084409878,None,f,1,0.5389873660169542,521.9241084409878,None,522.4888108567975,None,None,522.4888108567975,None,,1,001,2021_Nov_01_1418,searchDisc4,2021.2.3,60.00805488875046,
images/exp1b_trial_31_colour0_distractors0_l.png,l,f,1b,31,0,0,,,,,0,195,195,268,,,,,,,,,,,,,,,,,,,,,,,,,,,,,,,,,,,,,,,,,,,,,,,,,,,,,,,,,,,,,,,,,,,,,,,,,,,,522.4885756179865,None,space,0.5023996150121093,522.4885756179865,None,523.0630720169866,None,f,1,0.6480598350171931,523.0630720169866,None,523.7388008037815,None,None,523.7388008037815,None,,1,001,2021_Nov_01_1418,searchDisc4,2021.2.3,60.00805488875046,
images/exp2a_trial_49_colour1_distractors9_l.png,l,f,2a,49,1,9,,,,,0,196,196,478,,,,,,,,,,,,,,,,,,,,,,,,,,,,,,,,,,,,,,,,,,,,,,,,,,,,,,,,,,,,,,,,,,,,,,,,,,,,523.7387820509903,None,space,0.38831683501484804,523.7387820509903,None,524.2076833389874,None,f,1,0.767508249002276,524.2076833389874,None,525.0056081017829,None,None,525.0056081017829,None,,1,001,2021_Nov_01_1418,searchDisc4,2021.2.3,60.00805488875046,
images/exp1b_trial_144_colour1_distractors4_l.png,l,f,1b,144,1,4,,,,,0,197,197,381,,,,,,,,,,,,,,,,,,,,,,,,,,,,,,,,,,,,,,,,,,,,,,,,,,,,,,,,,,,,,,,,,,,,,,,,,,,,525.0052949819947,None,space,0.5057897209771909,525.0052949819947,None,525.5909775619803,None,f,1,0.720263644005172,525.5909775619803,None,526.3388731807936,None,None,526.3388731807936,None,,1,001,2021_Nov_01_1418,searchDisc4,2021.2.3,60.00805488875046,
images/exp1a_trial_87_colour2_distractors19_l.png,l,f,1a,87,2,19,,,,,0,198,198,132,,,,,,,,,,,,,,,,,,,,,,,,,,,,,,,,,,,,,,,,,,,,,,,,,,,,,,,,,,,,,,,,,,,,,,,,,,,,526.3385072969832,None,space,0.4286978580057621,526.3385072969832,None,526.8409926249878,None,f,1,0.870329100987874,526.8409926249878,None,527.7386613287963,None,None,527.7386613287963,None,,1,001,2021_Nov_01_1418,searchDisc4,2021.2.3,60.00805488875046,
images/exp1b_trial_36_colour1_distractors31_r.png,r,j,1b,36,1,31,,,,,0,199,199,273,,,,,,,,,,,,,,,,,,,,,,,,,,,,,,,,,,,,,,,,,,,,,,,,,,,,,,,,,,,,,,,,,,,,,,,,,,,,527.738529572991,None,space,0.4687542640022002,527.738529572991,None,528.274317242991,None,j,1,0.7090467310044914,528.274317242991,None,529.0048596077831,None,None,529.0048596077831,None,,1,001,2021_Nov_01_1418,searchDisc4,2021.2.3,60.00805488875046,
images/exp2b_trial_122_colour3_distractors4_l.png,l,f,2b,122,3,4,,,,,0,200,200,743,,,,,,,,,,,,,,,,,,,,,,,,,,,,,,,,,,,,,,,,,,,,,,,,,,,,,,,,,,,,,,,,,,,,,,,,,,,,529.0054771659779,None,space,0.49778267001966015,529.0054771659779,None,529.5743589389895,None,f,1,1.201099058991531,529.5743589389895,None,530.805745831778,None,None,530.805745831778,None,,1,001,2021_Nov_01_1418,searchDisc4,2021.2.3,60.00805488875046,
images/exp2c_trial_118_colour2_distractors9_l.png,l,f,2c,118,2,9,,,,,0,201,201,931,,,,,,,,,,,,,,,,,,,,,,,,,,,,,,,,,,,,,,,,,,,,,,,,,,,,,,,,,,,,,,,,,,,,,,,,,,,,530.8055494569999,None,space,0.4258740980003495,530.8055494569999,None,531.3077556449862,None,f,1,0.7717353149782866,531.3077556449862,None,532.1051200887887,None,None,532.1051200887887,None,,1,001,2021_Nov_01_1418,searchDisc4,2021.2.3,60.00805488875046,
images/exp2a_trial_56_colour2_distractors31_l.png,l,f,2a,56,2,31,,,,,0,202,202,485,,,,,,,,,,,,,,,,,,,,,,,,,,,,,,,,,,,,,,,,,,,,,,,,,,,,,,,,,,,,,,,,,,,,,,,,,,,,532.1047552389791,None,space,0.38273409198154695,532.1047552389791,None,532.5607041929907,None,f,1,0.7188602940004785,532.5607041929907,None,533.3058304587903,None,None,533.3058304587903,None,,1,001,2021_Nov_01_1418,searchDisc4,2021.2.3,60.00805488875046,
images/exp1a_trial_119_colour2_distractors19_l.png,l,f,1a,119,2,19,,,,,0,203,203,164,,,,,,,,,,,,,,,,,,,,,,,,,,,,,,,,,,,,,,,,,,,,,,,,,,,,,,,,,,,,,,,,,,,,,,,,,,,,533.3053130149783,None,space,0.3742122960102279,533.3053130149783,None,533.7577691999904,None,f,1,0.7777967779838946,533.7577691999904,None,534.5560711757862,None,None,534.5560711757862,None,,1,001,2021_Nov_01_1418,searchDisc4,2021.2.3,60.00805488875046,
images/exp2a_trial_132_colour1_distractors31_r.png,r,j,2a,132,1,31,,,,,0,204,204,561,,,,,,,,,,,,,,,,,,,,,,,,,,,,,,,,,,,,,,,,,,,,,,,,,,,,,,,,,,,,,,,,,,,,,,,,,,,,534.5551575769787,None,space,0.42843530798563734,534.5551575769787,None,535.0576530469989,None,j,1,0.7340377049986273,535.0576530469989,None,535.8224182557897,None,None,535.8224182557897,None,,1,001,2021_Nov_01_1418,searchDisc4,2021.2.3,60.00805488875046,
images/exp1a_trial_1_colour1_distractors4_r.png,r,j,1a,1,1,4,,,,,0,205,205,46,,,,,,,,,,,,,,,,,,,,,,,,,,,,,,,,,,,,,,,,,,,,,,,,,,,,,,,,,,,,,,,,,,,,,,,,,,,,535.8221730549994,None,space,0.5374802910082508,535.8221730549994,None,536.4412779229751,None,j,1,1.0144754609791562,536.4412779229751,None,537.4727231907891,None,None,537.4727231907891,None,,1,001,2021_Nov_01_1418,searchDisc4,2021.2.3,60.00805488875046,
images/exp2a_trial_8_colour2_distractors19_r.png,r,j,2a,8,2,19,,,,,0,206,206,437,,,,,,,,,,,,,,,,,,,,,,,,,,,,,,,,,,,,,,,,,,,,,,,,,,,,,,,,,,,,,,,,,,,,,,,,,,,,537.4717588749772,None,space,0.41597140399971977,537.4717588749772,None,537.9588248499786,None,j,1,0.5530102329794317,537.9588248499786,None,538.5392807637982,None,None,538.5392807637982,None,,1,001,2021_Nov_01_1418,searchDisc4,2021.2.3,60.00805488875046,
images/exp2a_trial_139_colour3_distractors4_r.png,r,j,2a,139,3,4,,,,,0,207,207,568,,,,,,,,,,,,,,,,,,,,,,,,,,,,,,,,,,,,,,,,,,,,,,,,,,,,,,,,,,,,,,,,,,,,,,,,,,,,538.5387337939756,None,space,0.5090554700000212,538.5387337939756,None,539.1246892749914,None,j,1,0.6191858569800388,539.1246892749914,None,539.7725843427761,None,None,539.7725843427761,None,,1,001,2021_Nov_01_1418,searchDisc4,2021.2.3,60.00805488875046,
images/exp2c_trial_128_colour1_distractors1_r.png,r,j,2c,128,1,1,,,,,0,208,208,941,,,,,,,,,,,,,,,,,,,,,,,,,,,,,,,,,,,,,,,,,,,,,,,,,,,,,,,,,,,,,,,,,,,,,,,,,,,,539.7723423739953,None,space,0.4434804240008816,539.7723423739953,None,540.291346775979,None,j,1,0.8365879799821414,540.291346775979,None,541.1560606567946,None,None,541.1560606567946,None,,1,001,2021_Nov_01_1418,searchDisc4,2021.2.3,60.00805488875046,
images/exp2c_trial_31_colour0_distractors0_l.png,l,f,2c,31,0,0,,,,,0,209,209,844,,,,,,,,,,,,,,,,,,,,,,,,,,,,,,,,,,,,,,,,,,,,,,,,,,,,,,,,,,,,,,,,,,,,,,,,,,,,541.1559711819864,None,space,0.42793329001870006,541.1559711819864,None,541.6580036800005,None,f,1,1.0059951309813187,541.6580036800005,None,542.689053490787,None,None,542.689053490787,None,,1,001,2021_Nov_01_1418,searchDisc4,2021.2.3,60.00805488875046,
images/exp1a_trial_191_colour0_distractors0_l.png,l,f,1a,191,0,0,,,,,0,210,210,236,,,,,,,,,,,,,,,,,,,,,,,,,,,,,,,,,,,,,,,,,,,,,,,,,,,,,,,,,,,,,,,,,,,,,,,,,,,,542.6887845449965,None,space,0.4311701260157861,542.6887845449965,None,543.1908956499828,None,f,1,0.897171012009494,543.1908956499828,None,544.1058641957934,None,None,544.1058641957934,None,,1,001,2021_Nov_01_1418,searchDisc4,2021.2.3,60.00805488875046,
images/exp2b_trial_181_colour2_distractors4_l.png,l,f,2b,181,2,4,,,,,0,211,211,802,,,,,,,,,,,,,,,,,,,,,,,,,,,,,,,,,,,,,,,,,,,,,,,,,,,,,,,,,,,,,,,,,,,,,,,,,,,,544.1059493009816,None,space,0.4220537210057955,544.1059493009816,None,544.6082414269913,None,f,1,0.8238527000066824,544.6082414269913,None,545.456062432786,None,None,545.456062432786,None,,1,001,2021_Nov_01_1418,searchDisc4,2021.2.3,60.00805488875046,
images/exp2c_trial_165_colour2_distractors1_r.png,r,j,2c,165,2,1,,,,,0,212,212,18,,,,,,,,,,,,,,,,,,,,,,,,,,,,,,,,,,,,,,,,,,,,,,,,,,,,,,,,,,,,,,,,,,,,,,,,,,,,545.4558633009729,None,space,0.4881931429845281,545.4558633009729,None,546.0247784239764,None,j,1,0.8313093770120759,546.0247784239764,None,546.8895313737739,None,None,546.8895313737739,None,,1,001,2021_Nov_01_1418,searchDisc4,2021.2.3,60.00805488875046,
images/exp2a_trial_166_colour2_distractors4_r.png,r,j,2a,166,2,4,,,,,0,213,213,595,,,,,,,,,,,,,,,,,,,,,,,,,,,,,,,,,,,,,,,,,,,,,,,,,,,,,,,,,,,,,,,,,,,,,,,,,,,,546.8888115809823,None,space,0.4473315919749439,546.8888115809823,None,547.4082814539724,None,j,1,0.5518782700237352,547.4082814539724,None,547.9894791227707,None,None,547.9894791227707,None,,1,001,2021_Nov_01_1418,searchDisc4,2021.2.3,60.00805488875046,
images/exp2c_trial_82_colour1_distractors19_l.png,l,f,2c,82,1,19,,,,,0,214,214,895,,,,,,,,,,,,,,,,,,,,,,,,,,,,,,,,,,,,,,,,,,,,,,,,,,,,,,,,,,,,,,,,,,,,,,,,,,,,547.9893529679975,None,space,0.402716524025891,547.9893529679975,None,548.4748388009903,None,f,1,0.6134754100057762,548.4748388009903,None,549.1061214037763,None,None,549.1061214037763,None,,1,001,2021_Nov_01_1418,searchDisc4,2021.2.3,60.00805488875046,
images/exp2b_trial_34_colour1_distractors9_r.png,r,j,2b,34,1,9,,,,,0,215,215,655,,,,,,,,,,,,,,,,,,,,,,,,,,,,,,,,,,,,,,,,,,,,,,,,,,,,,,,,,,,,,,,,,,,,,,,,,,,,549.1059676299919,None,space,0.414224154985277,549.1059676299919,None,549.5916477939754,None,j,1,0.7607155439909548,549.5916477939754,None,550.3727701287717,None,None,550.3727701287717,None,,1,001,2021_Nov_01_1418,searchDisc4,2021.2.3,60.00805488875046,
images/exp1b_trial_131_colour1_distractors19_r.png,r,j,1b,131,1,19,,,,,0,216,216,368,,,,,,,,,,,,,,,,,,,,,,,,,,,,,,,,,,,,,,,,,,,,,,,,,,,,,,,,,,,,,,,,,,,,,,,,,,,,550.3727576099918,None,space,0.43544775497866794,550.3727576099918,None,550.891731523996,None,j,1,0.8526954030094203,550.891731523996,None,551.7729892337811,None,None,551.7729892337811,None,,1,001,2021_Nov_01_1418,searchDisc4,2021.2.3,60.00805488875046,
