ImageFile,targ_side,correctAnswer,exp,trial,colour,distNo,trials_2.thisRepN,trials_2.thisTrialN,trials_2.thisN,trials_2.thisIndex,trials.thisRepN,trials.thisTrialN,trials.thisN,trials.thisIndex,X Scale,Y Scale,text_top.started,text_top.stopped,text_bottom.started,text_bottom.stopped,ccimage.started,ccimage.stopped,text_6.started,text_6.stopped,key_resp_10.keys,key_resp_10.rt,key_resp_10.started,key_resp_10.stopped,text_7.started,text_7.stopped,key_resp_11.keys,key_resp_11.rt,key_resp_11.started,key_resp_11.stopped,text_8.started,text_8.stopped,key_resp_12.keys,key_resp_12.rt,key_resp_12.started,key_resp_12.stopped,text_9.started,text_9.stopped,key_resp_13.keys,key_resp_13.rt,key_resp_13.started,key_resp_13.stopped,text_2.started,text_2.stopped,key_resp_5.keys,key_resp_5.rt,key_resp_5.started,key_resp_5.stopped,text_5.started,text_5.stopped,key_resp_8.keys,key_resp_8.rt,key_resp_8.started,key_resp_8.stopped,image_2.started,image_2.stopped,key_resp_6.keys,key_resp_6.rt,key_resp_6.started,key_resp_6.stopped,text_3.started,text_3.stopped,image_3.started,image_3.stopped,fix.started,fix.stopped,key_resp_7.keys,key_resp_7.rt,key_resp_7.started,key_resp_7.stopped,image.started,image.stopped,key_resp_4.keys,key_resp_4.corr,key_resp_4.rt,key_resp_4.started,key_resp_4.stopped,text_4.started,text_4.stopped,text.started,text.stopped,key_resp_3.keys,key_resp_3.rt,key_resp_3.started,key_resp_3.stopped,fix2experiment.started,fix2experiment.stopped,key_resp_9.keys,key_resp_9.rt,key_resp_9.started,key_resp_9.stopped,dispStimuli.started,dispStimuli.stopped,key_resp_2.keys,key_resp_2.corr,key_resp_2.rt,key_resp_2.started,key_resp_2.stopped,breakMessage.started,breakMessage.stopped,key_resp.keys,key_resp.started,key_resp.stopped,key_resp.rt,participant,session,date,expName,psychopyVersion,frameRate,
,,,,,,,,,,,,,,,32.9,32.2,10.833767386997351,None,10.833767386997351,None,10.833767386997351,None,80.40171424401342,None,space,8.071733302000212,80.40171424401342,None,,,,,,,,,,,,,,,,,,,,,,,,,,,,,,,,,,,,,,,,,,,,,,,,,,,,,,,,,,,,,,,,,,,,,,,,,,,,,,,,,2,001,2021_Nov_02_1251,searchDisc4,2021.2.3,59.95755496632252,
,,,,,,,,,,,,,,,,,,,,,,,,,,,,,88.50199052499374,None,space,0.6834295500011649,88.50199052499374,None,,,,,,,,,,,,,,,,,,,,,,,,,,,,,,,,,,,,,,,,,,,,,,,,,,,,,,,,,,,,,,,,,,,,,,,,,,,2,001,2021_Nov_02_1251,searchDisc4,2021.2.3,59.95755496632252,
,,,,,,,,,,,,,,,,,,,,,,,,,,,,,,,,,,,89.20156070799567,None,space,0.6319891159946565,89.20156070799567,None,,,,,,,,,,,,,,,,,,,,,,,,,,,,,,,,,,,,,,,,,,,,,,,,,,,,,,,,,,,,,,,,,,,,,2,001,2021_Nov_02_1251,searchDisc4,2021.2.3,59.95755496632252,
,,,,,,,,,,,,,,,,,,,,,,,,,,,,,,,,,,,,,,,,,89.85203131401795,None,space,0.4215021970157977,89.85203131401795,None,,,,,,,,,,,,,,,,,,,,,,,,,,,,,,,,,,,,,,,,,,,,,,,,,,,,,,,,,,,,,,,2,001,2021_Nov_02_1251,searchDisc4,2021.2.3,59.95755496632252,
,,,,,,,,,,,,,,,,,,,,,,,,,,,,,,,,,,,,,,,,,,,,,,,90.3020259180048,None,space,2.564973917003954,91.26878433700767,None,,,,,,,,,,,,,,,,,,,,,,,,,,,,,,,,,,,,,,,,,,,,,,,,,,,,,,,,,2,001,2021_Nov_02_1251,searchDisc4,2021.2.3,59.95755496632252,
,,,,,,,,,,,,,,,,,,,,,,,,,,,,,,,,,,,,,,,,,,,,,,,,,,,,,93.85231302701868,None,space,12.229892612987896,93.85231302701868,None,,,,,,,,,,,,,,,,,,,,,,,,,,,,,,,,,,,,,,,,,,,,,,,,,,,2,001,2021_Nov_02_1251,searchDisc4,2021.2.3,59.95755496632252,
,,,,,,,,,,,,,,,,,,,,,,,,,,,,,,,,,,,,,,,,,,,,,,,,,,,,,,,,,,,106.10254848800832,None,space,7.300670577998972,107.0858734039939,None,,,,,,,,,,,,,,,,,,,,,,,,,,,,,,,,,,,,,,,,,,,,,2,001,2021_Nov_02_1251,searchDisc4,2021.2.3,59.95755496632252,
Practice arrays/exp1a_trial_7_colour2_distractors9_r.png,r,j,,,,,0,0,0,2,,,,,,,,,,,,,,,,,,,,,,,,,,,,,,,,,,,,,,,,,,,,,,,,,,,,,,,106.10254848800832,None,106.10254848800832,None,114.43347347501549,None,space,8.769451510015642,114.43347347501549,None,123.28647208100301,None,f,0,1.0046175280003808,123.28647208100301,None,124.31675186401117,None,,,,,,,,,,,,,,,,,,,,,,,,,,2,001,2021_Nov_02_1251,searchDisc4,2021.2.3,59.95755496632252,
Practice arrays/exp1a_trial_23_colour2_distractors19_l.png,l,f,,,,,0,1,1,10,,,,,,,,,,,,,,,,,,,,,,,,,,,,,,,,,,,,,,,,,,,,,,,,,,,,,,,,,,,125.3190086579998,None,space,2.436237899994012,125.3190086579998,None,127.83673853901564,None,f,1,0.5824387329921592,127.83673853901564,None,128.45095435500843,None,,,,,,,,,,,,,,,,,,,,,,,,,,2,001,2021_Nov_02_1251,searchDisc4,2021.2.3,59.95755496632252,
Practice arrays/exp1a_trial_27_colour3_distractors9_l.png,l,f,,,,,0,2,2,12,,,,,,,,,,,,,,,,,,,,,,,,,,,,,,,,,,,,,,,,,,,,,,,,,,,,,,,,,,,129.45323606499005,None,space,0.5420751619967632,129.45323606499005,None,130.0700355040026,None,f,1,0.5013108710118104,130.0700355040026,None,130.6010425449931,None,,,,,,,,,,,,,,,,,,,,,,,,,,2,001,2021_Nov_02_1251,searchDisc4,2021.2.3,59.95755496632252,
Practice arrays/exp1a_trial_21_colour2_distractors4_l.png,l,f,,,,,0,3,3,9,,,,,,,,,,,,,,,,,,,,,,,,,,,,,,,,,,,,,,,,,,,,,,,,,,,,,,,,,,,131.60110306099523,None,space,0.5222959140082821,131.60110306099523,None,132.20335448000696,None,f,1,0.480092012003297,132.20335448000696,None,132.7010626870033,None,,,,,,,,,,,,,,,,,,,,,,,,,,2,001,2021_Nov_02_1251,searchDisc4,2021.2.3,59.95755496632252,
Practice arrays/exp1a_trial_18_colour1_distractors19_l.png,l,f,,,,,0,4,4,8,,,,,,,,,,,,,,,,,,,,,,,,,,,,,,,,,,,,,,,,,,,,,,,,,,,,,,,,,,,133.7031081909954,None,space,0.4524204439949244,133.7031081909954,None,134.23689764901064,None,f,1,0.59859676900669,134.23689764901064,None,134.8676718719944,None,,,,,,,,,,,,,,,,,,,,,,,,,,2,001,2021_Nov_02_1251,searchDisc4,2021.2.3,59.95755496632252,
Practice arrays/exp1a_trial_10_colour3_distractors1_r.png,r,j,,,,,0,5,5,4,,,,,,,,,,,,,,,,,,,,,,,,,,,,,,,,,,,,,,,,,,,,,,,,,,,,,,,,,,,135.86997639000765,None,space,0.35764451100840233,135.86997639000765,None,136.3035042110132,None,j,1,0.8361586759856436,136.3035042110132,None,137.16775921700173,None,,,,,,,,,,,,,,,,,,,,,,,,,,2,001,2021_Nov_02_1251,searchDisc4,2021.2.3,59.95755496632252,
Practice arrays/exp1a_trial_30_colour0_distractors0_r.png,r,j,,,,,0,6,6,14,,,,,,,,,,,,,,,,,,,,,,,,,,,,,,,,,,,,,,,,,,,,,,,,,,,,,,,,,,,138.1678578830033,None,space,1.187917496979935,138.1678578830033,None,139.43691638400196,None,j,1,0.6628910970175639,139.43691638400196,None,140.118051611993,None,,,,,,,,,,,,,,,,,,,,,,,,,,2,001,2021_Nov_02_1251,searchDisc4,2021.2.3,59.95755496632252,
Practice arrays/exp1a_trial_12_colour3_distractors9_r.png,r,j,,,,,0,7,7,5,,,,,,,,,,,,,,,,,,,,,,,,,,,,,,,,,,,,,,,,,,,,,,,,,,,,,,,,,,,141.11996987799648,None,space,1.363815874006832,141.11996987799648,None,142.55371910901158,None,j,1,0.7062208740098868,142.55371910901158,None,143.28479895499186,None,,,,,,,,,,,,,,,,,,,,,,,,,,2,001,2021_Nov_02_1251,searchDisc4,2021.2.3,59.95755496632252,
Practice arrays/exp1a_trial_16_colour1_distractors4_l.png,l,f,,,,,0,8,8,13,,,,,,,,,,,,,,,,,,,,,,,,,,,,,,,,,,,,,,,,,,,,,,,,,,,,,,,,,,,144.28675760200713,None,space,0.3492427679884713,144.28675760200713,None,144.7037676339969,None,f,1,0.5481794129882473,144.7037676339969,None,145.28473770001438,None,,,,,,,,,,,,,,,,,,,,,,,,,,2,001,2021_Nov_02_1251,searchDisc4,2021.2.3,59.95755496632252,
Practice arrays/exp1a_trial_14_colour3_distractors31_r.png,r,j,,,,,0,9,9,6,,,,,,,,,,,,,,,,,,,,,,,,,,,,,,,,,,,,,,,,,,,,,,,,,,,,,,,,,,,146.28679726700648,None,space,0.2692648280062713,146.28679726700648,None,146.63705137200304,None,j,1,0.5190734999778215,146.63705137200304,None,147.18475744701573,None,,,,,,,,,,,,,,,,,,,,,,,,,,2,001,2021_Nov_02_1251,searchDisc4,2021.2.3,59.95755496632252,
Practice arrays/exp1a_trial_8_colour2_distractors19_r.png,r,j,,,,,0,10,10,3,,,,,,,,,,,,,,,,,,,,,,,,,,,,,,,,,,,,,,,,,,,,,,,,,,,,,,,,,,,148.1869592659932,None,space,0.43314451901824214,148.1869592659932,None,148.70162941899616,None,f,0,0.6145110049983487,148.70162941899616,None,149.33494560801773,None,,,,,,,,,,,,,,,,,,,,,,,,,,2,001,2021_Nov_02_1251,searchDisc4,2021.2.3,59.95755496632252,
Practice arrays/exp1a_trial_31_colour0_distractors0_l.png,l,f,,,,,0,11,11,15,,,,,,,,,,,,,,,,,,,,,,,,,,,,,,,,,,,,,,,,,,,,,,,,,,,,,,,,,,,150.3370321429975,None,space,0.6112665469991043,150.3370321429975,None,151.00695989301312,None,f,1,0.5413620210019872,151.00695989301312,None,151.56832537299488,None,,,,,,,,,,,,,,,,,,,,,,,,,,2,001,2021_Nov_02_1251,searchDisc4,2021.2.3,59.95755496632252,
Practice arrays/exp1a_trial_1_colour1_distractors4_r.png,r,j,,,,,0,12,12,1,,,,,,,,,,,,,,,,,,,,,,,,,,,,,,,,,,,,,,,,,,,,,,,,,,,,,,,,,,,152.56824093699106,None,space,0.0761986429861281,152.56824093699106,None,152.7205798579962,None,j,1,0.5398356210207567,152.7205798579962,None,153.28488903399557,None,,,,,,,,,,,,,,,,,,,,,,,,,,2,001,2021_Nov_02_1251,searchDisc4,2021.2.3,59.95755496632252,
Practice arrays/exp1a_trial_0_colour1_distractors1_r.png,r,j,,,,,0,13,13,0,,,,,,,,,,,,,,,,,,,,,,,,,,,,,,,,,,,,,,,,,,,,,,,,,,,,,,,,,,,154.28701407200424,None,space,0.2453934200166259,154.28701407200424,None,154.60402128301212,None,f,0,0.51235324901063,154.60402128301212,None,155.1351606780081,None,,,,,,,,,,,,,,,,,,,,,,,,,,2,001,2021_Nov_02_1251,searchDisc4,2021.2.3,59.95755496632252,
Practice arrays/exp1a_trial_17_colour1_distractors9_l.png,l,f,,,,,0,14,14,7,,,,,,,,,,,,,,,,,,,,,,,,,,,,,,,,,,,,,,,,,,,,,,,,,,,,,,,,,,,156.1371256620041,None,space,0.051302252017194405,156.1371256620041,None,156.27059940301115,None,f,1,0.6379565770039335,156.27059940301115,None,156.9350868590118,None,,,,,,,,,,,,,,,,,,,,,,,,,,2,001,2021_Nov_02_1251,searchDisc4,2021.2.3,59.95755496632252,
Practice arrays/exp1a_trial_25_colour3_distractors1_l.png,l,f,,,,,0,15,15,11,,,,,,,,,,,,,,,,,,,,,,,,,,,,,,,,,,,,,,,,,,,,,,,,,,,,,,,,,,,157.93717552401358,None,space,0.5074531669961289,157.93717552401358,None,158.52054489799775,None,f,1,0.6600919799820986,158.52054489799775,None,159.2017172530177,None,,,,,,,,,,,,,,,,,,,,,,,,,,2,001,2021_Nov_02_1251,searchDisc4,2021.2.3,59.95755496632252,
,,,,,,,,,,,,,,,,,,,,,,,,,,,,,,,,,,,,,,,,,,,,,,,,,,,,,,,,,,,,,,,,,,,,,,,,,,,,,,,,,,,,160.2708102100005,None,space,24.592161629989278,163.253847607004,None,,,,,,,,,,,,,,,,,,,,2,001,2021_Nov_02_1251,searchDisc4,2021.2.3,59.95755496632252,
images/exp1b_trial_38_colour2_distractors4_r.png,r,j,1b,38,2,4,,,,,0,0,0,275,,,,,,,,,,,,,,,,,,,,,,,,,,,,,,,,,,,,,,,,,,,,,,,,,,,,,,,,,,,,,,,,,,,,,,,,,,,,188.2546344200091,None,space,1.111406055977568,188.2546344200091,None,189.43645365501288,None,j,1,0.6655416299763601,189.43645365501288,None,190.11951906381583,None,None,190.11951906381583,None,,2,001,2021_Nov_02_1251,searchDisc4,2021.2.3,59.95755496632252,
images/exp2b_trial_30_colour0_distractors0_r.png,r,j,2b,30,0,0,,,,,0,1,1,651,,,,,,,,,,,,,,,,,,,,,,,,,,,,,,,,,,,,,,,,,,,,,,,,,,,,,,,,,,,,,,,,,,,,,,,,,,,,190.1354415770038,None,space,0.5266199799953029,190.1354415770038,None,190.7265597130172,None,j,1,0.44757989299250767,190.7265597130172,None,191.2025586707954,None,None,191.2025586707954,None,,2,001,2021_Nov_02_1251,searchDisc4,2021.2.3,59.95755496632252,
images/exp2c_trial_150_colour2_distractors9_l.png,l,f,2c,150,2,9,,,,,0,2,2,3,,,,,,,,,,,,,,,,,,,,,,,,,,,,,,,,,,,,,,,,,,,,,,,,,,,,,,,,,,,,,,,,,,,,,,,,,,,,191.20249301401782,None,space,0.13962486799573526,191.20249301401782,None,191.40244319901103,None,f,1,0.587736246001441,191.40244319901103,None,192.01929684680945,None,None,192.01929684680945,None,,2,001,2021_Nov_02_1251,searchDisc4,2021.2.3,59.95755496632252,
images/exp2a_trial_29_colour3_distractors31_l.png,l,f,2a,29,3,31,,,,,0,3,3,458,,,,,,,,,,,,,,,,,,,,,,,,,,,,,,,,,,,,,,,,,,,,,,,,,,,,,,,,,,,,,,,,,,,,,,,,,,,,192.01938899699599,None,space,0.1627289459866006,192.01938899699599,None,192.25493765700958,None,f,1,0.543282864993671,192.25493765700958,None,192.8193123588193,None,None,192.8193123588193,None,,2,001,2021_Nov_02_1251,searchDisc4,2021.2.3,59.95755496632252,
images/exp1b_trial_60_colour3_distractors19_l.png,l,f,1b,60,3,19,,,,,0,4,4,297,,,,,,,,,,,,,,,,,,,,,,,,,,,,,,,,,,,,,,,,,,,,,,,,,,,,,,,,,,,,,,,,,,,,,,,,,,,,192.81902480201097,None,space,0.13903504199697636,192.81902480201097,None,193.03616760100704,None,f,1,1.354044055013219,193.03616760100704,None,194.41905489580532,None,None,194.41905489580532,None,,2,001,2021_Nov_02_1251,searchDisc4,2021.2.3,59.95755496632252,
images/exp1a_trial_149_colour2_distractors4_l.png,l,f,1a,149,2,4,,,,,0,5,5,194,,,,,,,,,,,,,,,,,,,,,,,,,,,,,,,,,,,,,,,,,,,,,,,,,,,,,,,,,,,,,,,,,,,,,,,,,,,,194.41921382100554,None,space,0.21093539200956002,194.41921382100554,None,194.70459415699588,None,f,1,0.581647012004396,194.70459415699588,None,195.3192833897978,None,None,195.3192833897978,None,,2,001,2021_Nov_02_1251,searchDisc4,2021.2.3,59.95755496632252,
images/exp2c_trial_162_colour1_distractors9_r.png,r,j,2c,162,1,9,,,,,0,6,6,15,,,,,,,,,,,,,,,,,,,,,,,,,,,,,,,,,,,,,,,,,,,,,,,,,,,,,,,,,,,,,,,,,,,,,,,,,,,,195.31937400100287,None,space,0.2068451469822321,195.31937400100287,None,195.60441914800322,None,j,1,0.5458868420100771,195.60441914800322,None,196.1694065808173,None,None,196.1694065808173,None,,2,001,2021_Nov_02_1251,searchDisc4,2021.2.3,59.95755496632252,
images/exp2a_trial_49_colour1_distractors9_l.png,l,f,2a,49,1,9,,,,,0,7,7,478,,,,,,,,,,,,,,,,,,,,,,,,,,,,,,,,,,,,,,,,,,,,,,,,,,,,,,,,,,,,,,,,,,,,,,,,,,,,196.16864830401028,None,space,0.22155402999487706,196.16864830401028,None,196.47138894500677,None,f,1,0.6309909150004387,196.47138894500677,None,197.1190522808087,None,None,197.1190522808087,None,,2,001,2021_Nov_02_1251,searchDisc4,2021.2.3,59.95755496632252,
images/exp1a_trial_158_colour0_distractors0_r.png,r,j,1a,158,0,0,,,,,0,8,8,203,,,,,,,,,,,,,,,,,,,,,,,,,,,,,,,,,,,,,,,,,,,,,,,,,,,,,,,,,,,,,,,,,,,,,,,,,,,,197.11858326601214,None,space,0.2636958020157181,197.11858326601214,None,197.45268756800215,None,j,1,0.4816880979924463,197.45268756800215,None,197.95201252181724,None,None,197.95201252181724,None,,2,001,2021_Nov_02_1251,searchDisc4,2021.2.3,59.95755496632252,
images/exp2c_trial_76_colour3_distractors9_r.png,r,j,2c,76,3,9,,,,,0,9,9,889,,,,,,,,,,,,,,,,,,,,,,,,,,,,,,,,,,,,,,,,,,,,,,,,,,,,,,,,,,,,,,,,,,,,,,,,,,,,197.95238895501825,None,space,0.3579217480146326,197.95238895501825,None,198.3879891789984,None,j,1,0.7864412210183218,198.3879891789984,None,199.2025343518093,None,None,199.2025343518093,None,,2,001,2021_Nov_02_1251,searchDisc4,2021.2.3,59.95755496632252,
images/exp2b_trial_87_colour2_distractors19_l.png,l,f,2b,87,2,19,,,,,0,10,10,708,,,,,,,,,,,,,,,,,,,,,,,,,,,,,,,,,,,,,,,,,,,,,,,,,,,,,,,,,,,,,,,,,,,,,,,,,,,,199.20297141501214,None,space,0.21141412199358456,199.20297141501214,None,199.48818519400083,None,f,1,0.5422832230105996,199.48818519400083,None,200.0526089518011,None,None,200.0526089518011,None,,2,001,2021_Nov_02_1251,searchDisc4,2021.2.3,59.95755496632252,
images/exp1b_trial_175_colour1_distractors1_l.png,l,f,1b,175,1,1,,,,,0,11,11,412,,,,,,,,,,,,,,,,,,,,,,,,,,,,,,,,,,,,,,,,,,,,,,,,,,,,,,,,,,,,,,,,,,,,,,,,,,,,200.05272494701785,None,space,0.30567443498875946,200.05272494701785,None,200.43810444299015,None,f,1,0.49644572101533413,200.43810444299015,None,200.95236330679327,None,None,200.95236330679327,None,,2,001,2021_Nov_02_1251,searchDisc4,2021.2.3,59.95755496632252,
images/exp1a_trial_153_colour3_distractors1_l.png,l,f,1a,153,3,1,,,,,0,12,12,198,,,,,,,,,,,,,,,,,,,,,,,,,,,,,,,,,,,,,,,,,,,,,,,,,,,,,,,,,,,,,,,,,,,,,,,,,,,,200.95264388501528,None,space,0.23780922600417398,200.95264388501528,None,201.2715825260093,None,f,1,0.6069711339951027,201.2715825260093,None,201.90263071981317,None,None,201.90263071981317,None,,2,001,2021_Nov_02_1251,searchDisc4,2021.2.3,59.95755496632252,
images/exp2b_trial_136_colour2_distractors19_r.png,r,j,2b,136,2,19,,,,,0,13,13,757,,,,,,,,,,,,,,,,,,,,,,,,,,,,,,,,,,,,,,,,,,,,,,,,,,,,,,,,,,,,,,,,,,,,,,,,,,,,201.90288860499277,None,space,0.16760651700315066,201.90288860499277,None,202.13837651899667,None,j,1,0.5721926130063366,202.13837651899667,None,202.7361422247981,None,None,202.7361422247981,None,,2,001,2021_Nov_02_1251,searchDisc4,2021.2.3,59.95755496632252,
images/exp2b_trial_79_colour1_distractors1_l.png,l,f,2b,79,1,1,,,,,0,14,14,700,,,,,,,,,,,,,,,,,,,,,,,,,,,,,,,,,,,,,,,,,,,,,,,,,,,,,,,,,,,,,,,,,,,,,,,,,,,,202.73615582700586,None,space,0.16634400901966728,202.73615582700586,None,202.96943600699888,None,f,1,0.5652207350067329,202.96943600699888,None,203.55223743881507,None,None,203.55223743881507,None,,2,001,2021_Nov_02_1251,searchDisc4,2021.2.3,59.95755496632252,
images/exp2a_trial_37_colour2_distractors1_r.png,r,j,2a,37,2,1,,,,,0,15,15,466,,,,,,,,,,,,,,,,,,,,,,,,,,,,,,,,,,,,,,,,,,,,,,,,,,,,,,,,,,,,,,,,,,,,,,,,,,,,203.5525978319929,None,space,0.10195642698090523,203.5525978319929,None,203.7214924370055,None,j,1,0.46916081398376264,203.7214924370055,None,204.21950025579136,None,None,204.21950025579136,None,,2,001,2021_Nov_02_1251,searchDisc4,2021.2.3,59.95755496632252,
images/exp2a_trial_28_colour3_distractors19_l.png,l,f,2a,28,3,19,,,,,0,16,16,457,,,,,,,,,,,,,,,,,,,,,,,,,,,,,,,,,,,,,,,,,,,,,,,,,,,,,,,,,,,,,,,,,,,,,,,,,,,,204.2197498769965,None,space,0.1388513180136215,204.2197498769965,None,204.4382735370018,None,f,1,0.6164416020037606,204.4382735370018,None,205.0860355007957,None,None,205.0860355007957,None,,2,001,2021_Nov_02_1251,searchDisc4,2021.2.3,59.95755496632252,
images/exp1a_trial_84_colour2_distractors1_l.png,l,f,1a,84,2,1,,,,,0,17,17,129,,,,,,,,,,,,,,,,,,,,,,,,,,,,,,,,,,,,,,,,,,,,,,,,,,,,,,,,,,,,,,,,,,,,,,,,,,,,205.08617230900563,None,space,0.1285095319908578,205.08617230900563,None,205.28828623899608,None,f,1,0.6224351679848041,205.28828623899608,None,205.9362186308048,None,None,205.9362186308048,None,,2,001,2021_Nov_02_1251,searchDisc4,2021.2.3,59.95755496632252,
images/exp2b_trial_155_colour3_distractors9_l.png,l,f,2b,155,3,9,,,,,0,18,18,776,,,,,,,,,,,,,,,,,,,,,,,,,,,,,,,,,,,,,,,,,,,,,,,,,,,,,,,,,,,,,,,,,,,,,,,,,,,,205.9354553479934,None,space,0.14321473499876447,205.9354553479934,None,206.1548611310136,None,f,1,0.6759360810101498,206.1548611310136,None,206.85294500181627,None,None,206.85294500181627,None,,2,001,2021_Nov_02_1251,searchDisc4,2021.2.3,59.95755496632252,
images/exp2a_trial_4_colour1_distractors31_r.png,r,j,2a,4,1,31,,,,,0,19,19,433,,,,,,,,,,,,,,,,,,,,,,,,,,,,,,,,,,,,,,,,,,,,,,,,,,,,,,,,,,,,,,,,,,,,,,,,,,,,206.8524027840176,None,space,0.13830642600078136,206.8524027840176,None,207.07165136400727,None,j,1,0.7271790049853735,207.07165136400727,None,207.81905097181735,None,None,207.81905097181735,None,,2,001,2021_Nov_02_1251,searchDisc4,2021.2.3,59.95755496632252,
images/exp2c_trial_56_colour2_distractors31_l.png,l,f,2c,56,2,31,,,,,0,20,20,869,,,,,,,,,,,,,,,,,,,,,,,,,,,,,,,,,,,,,,,,,,,,,,,,,,,,,,,,,,,,,,,,,,,,,,,,,,,,207.81979877199046,None,space,0.15494929300621152,207.81979877199046,None,208.05502547699143,None,f,1,1.6559036470134743,208.05502547699143,None,209.73633204181388,None,None,209.73633204181388,None,,2,001,2021_Nov_02_1251,searchDisc4,2021.2.3,59.95755496632252,
images/exp1a_trial_109_colour3_distractors19_r.png,r,j,1a,109,3,19,,,,,0,21,21,154,,,,,,,,,,,,,,,,,,,,,,,,,,,,,,,,,,,,,,,,,,,,,,,,,,,,,,,,,,,,,,,,,,,,,,,,,,,,209.735536615015,None,space,0.4713261090219021,209.735536615015,None,210.28632641301374,None,j,1,0.6966496890236158,210.28632641301374,None,211.0030103367957,None,None,211.0030103367957,None,,2,001,2021_Nov_02_1251,searchDisc4,2021.2.3,59.95755496632252,
images/exp2a_trial_45_colour3_distractors19_r.png,r,j,2a,45,3,19,,,,,0,22,22,474,,,,,,,,,,,,,,,,,,,,,,,,,,,,,,,,,,,,,,,,,,,,,,,,,,,,,,,,,,,,,,,,,,,,,,,,,,,,211.00243210300687,None,space,0.19647722301306203,211.00243210300687,None,211.27175194001757,None,j,1,0.615278251003474,211.27175194001757,None,211.9200657768146,None,None,211.9200657768146,None,,2,001,2021_Nov_02_1251,searchDisc4,2021.2.3,59.95755496632252,
images/exp2c_trial_132_colour1_distractors31_r.png,r,j,2c,132,1,31,,,,,0,23,23,945,,,,,,,,,,,,,,,,,,,,,,,,,,,,,,,,,,,,,,,,,,,,,,,,,,,,,,,,,,,,,,,,,,,,,,,,,,,,211.91910772200208,None,space,0.2239382200059481,211.91910772200208,None,212.2049232420104,None,j,1,0.7221401540155057,212.2049232420104,None,212.95312332279573,None,None,212.95312332279573,None,,2,001,2021_Nov_02_1251,searchDisc4,2021.2.3,59.95755496632252,
images/exp2a_trial_167_colour2_distractors9_r.png,r,j,2a,167,2,9,,,,,0,24,24,596,,,,,,,,,,,,,,,,,,,,,,,,,,,,,,,,,,,,,,,,,,,,,,,,,,,,,,,,,,,,,,,,,,,,,,,,,,,,212.95335827901727,None,space,0.36564804799854755,212.95335827901727,None,213.38885057301377,None,j,1,0.8583619789860677,213.38885057301377,None,214.26964536279266,None,None,214.26964536279266,None,,2,001,2021_Nov_02_1251,searchDisc4,2021.2.3,59.95755496632252,
images/exp1b_trial_101_colour2_distractors1_r.png,r,j,1b,101,2,1,,,,,0,25,25,338,,,,,,,,,,,,,,,,,,,,,,,,,,,,,,,,,,,,,,,,,,,,,,,,,,,,,,,,,,,,,,,,,,,,,,,,,,,,214.26958604101674,None,space,0.209562220989028,214.26958604101674,None,214.5444519460143,None,j,1,0.8387941290275194,214.5444519460143,None,215.4035728087969,None,None,215.4035728087969,None,,2,001,2021_Nov_02_1251,searchDisc4,2021.2.3,59.95755496632252,
images/exp2a_trial_157_colour3_distractors31_l.png,l,f,2a,157,3,31,,,,,0,26,26,586,,,,,,,,,,,,,,,,,,,,,,,,,,,,,,,,,,,,,,,,,,,,,,,,,,,,,,,,,,,,,,,,,,,,,,,,,,,,215.40348941201228,None,space,0.08359283799654804,215.40348941201228,None,215.55558070301777,None,f,1,0.7476235009962693,215.55558070301777,None,216.31986623579579,None,None,216.31986623579579,None,,2,001,2021_Nov_02_1251,searchDisc4,2021.2.3,59.95755496632252,
images/exp2a_trial_31_colour0_distractors0_l.png,l,f,2a,31,0,0,,,,,0,27,27,460,,,,,,,,,,,,,,,,,,,,,,,,,,,,,,,,,,,,,,,,,,,,,,,,,,,,,,,,,,,,,,,,,,,,,,,,,,,,216.31981651001843,None,space,0.12742142999195494,216.31981651001843,None,216.51007099999697,None,f,1,0.5771483310090844,216.51007099999697,None,217.11990987779282,None,None,217.11990987779282,None,,2,001,2021_Nov_02_1251,searchDisc4,2021.2.3,59.95755496632252,
images/exp2c_trial_12_colour3_distractors9_r.png,r,j,2c,12,3,9,,,,,0,28,28,825,,,,,,,,,,,,,,,,,,,,,,,,,,,,,,,,,,,,,,,,,,,,,,,,,,,,,,,,,,,,,,,,,,,,,,,,,,,,217.1199923660024,None,space,0.11128105199895799,217.1199923660024,None,217.30535635299748,None,j,1,0.6700479479914065,217.30535635299748,None,218.00279202381208,None,None,218.00279202381208,None,,2,001,2021_Nov_02_1251,searchDisc4,2021.2.3,59.95755496632252,
images/exp2a_trial_115_colour1_distractors31_l.png,l,f,2a,115,1,31,,,,,0,29,29,544,,,,,,,,,,,,,,,,,,,,,,,,,,,,,,,,,,,,,,,,,,,,,,,,,,,,,,,,,,,,,,,,,,,,,,,,,,,,218.00308273499832,None,space,0.0762263520155102,218.00308273499832,None,218.1556579770113,None,f,1,0.5876873329980299,218.1556579770113,None,218.76982478281425,None,None,218.76982478281425,None,,2,001,2021_Nov_02_1251,searchDisc4,2021.2.3,59.95755496632252,
images/exp1a_trial_187_colour3_distractors9_l.png,l,f,1a,187,3,9,,,,,0,30,30,232,,,,,,,,,,,,,,,,,,,,,,,,,,,,,,,,,,,,,,,,,,,,,,,,,,,,,,,,,,,,,,,,,,,,,,,,,,,,218.76989515000605,None,space,0.061378357000648975,218.76989515000605,None,218.9052890210005,None,f,1,0.5341626640001778,218.9052890210005,None,219.46993653981772,None,None,219.46993653981772,None,,2,001,2021_Nov_02_1251,searchDisc4,2021.2.3,59.95755496632252,
images/exp2b_trial_22_colour2_distractors9_l.png,l,f,2b,22,2,9,,,,,0,31,31,643,,,,,,,,,,,,,,,,,,,,,,,,,,,,,,,,,,,,,,,,,,,,,,,,,,,,,,,,,,,,,,,,,,,,,,,,,,,,219.46987343300134,None,space,0.08146642800420523,219.46987343300134,None,219.6102487820026,None,f,1,0.5572196340071969,219.6102487820026,None,220.1866213098023,None,None,220.1866213098023,None,,2,001,2021_Nov_02_1251,searchDisc4,2021.2.3,59.95755496632252,
images/exp1b_trial_104_colour2_distractors19_r.png,r,j,1b,104,2,19,,,,,0,32,32,341,,,,,,,,,,,,,,,,,,,,,,,,,,,,,,,,,,,,,,,,,,,,,,,,,,,,,,,,,,,,,,,,,,,,,,,,,,,,220.18634267200832,None,space,0.07706533998134546,220.18634267200832,None,220.33879570200224,None,f,0,0.6367131540027913,220.33879570200224,None,221.00336281180208,None,None,221.00336281180208,None,,2,001,2021_Nov_02_1251,searchDisc4,2021.2.3,59.95755496632252,
images/exp2a_trial_32_colour1_distractors1_r.png,r,j,2a,32,1,1,,,,,0,33,33,461,,,,,,,,,,,,,,,,,,,,,,,,,,,,,,,,,,,,,,,,,,,,,,,,,,,,,,,,,,,,,,,,,,,,,,,,,,,,221.00321094499668,None,space,0.5882677170156967,221.00321094499668,None,221.67229216199485,None,j,1,0.7511953890207224,221.67229216199485,None,222.45335787781224,None,None,222.45335787781224,None,,2,001,2021_Nov_02_1251,searchDisc4,2021.2.3,59.95755496632252,
images/exp2b_trial_124_colour3_distractors19_l.png,l,f,2b,124,3,19,,,,,0,34,34,745,,,,,,,,,,,,,,,,,,,,,,,,,,,,,,,,,,,,,,,,,,,,,,,,,,,,,,,,,,,,,,,,,,,,,,,,,,,,222.45283252099762,None,space,0.05869438700028695,222.45283252099762,None,222.58910034000291,None,f,1,0.7144270400167443,222.58910034000291,None,223.32026614079078,None,None,223.32026614079078,None,,2,001,2021_Nov_02_1251,searchDisc4,2021.2.3,59.95755496632252,
images/exp2c_trial_23_colour2_distractors19_l.png,l,f,2c,23,2,19,,,,,0,35,35,836,,,,,,,,,,,,,,,,,,,,,,,,,,,,,,,,,,,,,,,,,,,,,,,,,,,,,,,,,,,,,,,,,,,,,,,,,,,,223.32017389399698,None,space,0.0793931939988397,223.32017389399698,None,223.47238599299453,None,f,1,0.6311776300135534,223.47238599299453,None,224.12022257679783,None,None,224.12022257679783,None,,2,001,2021_Nov_02_1251,searchDisc4,2021.2.3,59.95755496632252,
images/exp2b_trial_181_colour2_distractors4_l.png,l,f,2b,181,2,4,,,,,0,36,36,802,,,,,,,,,,,,,,,,,,,,,,,,,,,,,,,,,,,,,,,,,,,,,,,,,,,,,,,,,,,,,,,,,,,,,,,,,,,,224.12018510699272,None,space,0.09542951700859703,224.12018510699272,None,224.28928501199698,None,f,1,0.598315804003505,224.28928501199698,None,224.92010865281046,None,None,224.92010865281046,None,,2,001,2021_Nov_02_1251,searchDisc4,2021.2.3,59.95755496632252,
images/exp1a_trial_103_colour2_distractors9_r.png,r,j,1a,103,2,9,,,,,0,37,37,148,,,,,,,,,,,,,,,,,,,,,,,,,,,,,,,,,,,,,,,,,,,,,,,,,,,,,,,,,,,,,,,,,,,,,,,,,,,,224.91984907601727,None,space,0.06379173599998467,224.91984907601727,None,225.04377386099077,None,j,1,0.6119573379983194,225.04377386099077,None,225.6859137737978,None,None,225.6859137737978,None,,2,001,2021_Nov_02_1251,searchDisc4,2021.2.3,59.95755496632252,
images/exp2b_trial_21_colour2_distractors4_l.png,l,f,2b,21,2,4,,,,,0,38,38,642,,,,,,,,,,,,,,,,,,,,,,,,,,,,,,,,,,,,,,,,,,,,,,,,,,,,,,,,,,,,,,,,,,,,,,,,,,,,225.68688212899724,None,space,0.05681395099963993,225.68688212899724,None,225.82243940999615,None,f,1,0.6893257070041727,225.82243940999615,None,226.53638458280184,None,None,226.53638458280184,None,,2,001,2021_Nov_02_1251,searchDisc4,2021.2.3,59.95755496632252,
images/exp2b_trial_41_colour2_distractors31_r.png,r,j,2b,41,2,31,,,,,0,39,39,662,,,,,,,,,,,,,,,,,,,,,,,,,,,,,,,,,,,,,,,,,,,,,,,,,,,,,,,,,,,,,,,,,,,,,,,,,,,,226.53691985699697,None,space,0.06279211599030532,226.53691985699697,None,226.67263047900633,None,j,1,0.5991356459853705,226.67263047900633,None,227.30360886479903,None,None,227.30360886479903,None,,2,001,2021_Nov_02_1251,searchDisc4,2021.2.3,59.95755496632252,
images/exp2c_trial_178_colour1_distractors19_l.png,l,f,2c,178,1,19,,,,,0,40,40,31,,,,,,,,,,,,,,,,,,,,,,,,,,,,,,,,,,,,,,,,,,,,,,,,,,,,,,,,,,,,,,,,,,,,,,,,,,,,227.3037987209973,None,space,0.08794223799486645,227.3037987209973,None,227.47252192601445,None,f,1,0.6152266790159047,227.47252192601445,None,228.12021901879635,None,None,228.12021901879635,None,,2,001,2021_Nov_02_1251,searchDisc4,2021.2.3,59.95755496632252,
images/exp2b_trial_80_colour1_distractors4_l.png,l,f,2b,80,1,4,,,,,0,41,41,701,,,,,,,,,,,,,,,,,,,,,,,,,,,,,,,,,,,,,,,,,,,,,,,,,,,,,,,,,,,,,,,,,,,,,,,,,,,,228.1201797699905,None,space,0.08761258100275882,228.1201797699905,None,228.28920339801698,None,f,1,0.7746817480074242,228.28920339801698,None,229.08626503481938,None,None,229.08626503481938,None,,2,001,2021_Nov_02_1251,searchDisc4,2021.2.3,59.95755496632252,
images/exp2b_trial_158_colour0_distractors0_r.png,r,j,2b,158,0,0,,,,,0,42,42,779,,,,,,,,,,,,,,,,,,,,,,,,,,,,,,,,,,,,,,,,,,,,,,,,,,,,,,,,,,,,,,,,,,,,,,,,,,,,229.08697435399517,None,space,0.10485885199159384,229.08697435399517,None,229.2727202239912,None,j,1,0.5272168570081703,229.2727202239912,None,229.8201401987957,None,None,229.8201401987957,None,,2,001,2021_Nov_02_1251,searchDisc4,2021.2.3,59.95755496632252,
images/exp2b_trial_180_colour2_distractors1_l.png,l,f,2b,180,2,1,,,,,0,43,43,801,,,,,,,,,,,,,,,,,,,,,,,,,,,,,,,,,,,,,,,,,,,,,,,,,,,,,,,,,,,,,,,,,,,,,,,,,,,,229.8203196680115,None,space,0.09942599100759253,229.8203196680115,None,229.9782476410037,None,f,1,0.5736148699943442,229.9782476410037,None,230.56978941280104,None,None,230.56978941280104,None,,2,001,2021_Nov_02_1251,searchDisc4,2021.2.3,59.95755496632252,
images/exp2a_trial_134_colour2_distractors4_r.png,r,j,2a,134,2,4,,,,,0,44,44,563,,,,,,,,,,,,,,,,,,,,,,,,,,,,,,,,,,,,,,,,,,,,,,,,,,,,,,,,,,,,,,,,,,,,,,,,,,,,230.56953559699468,None,space,0.09438217998831533,230.56953559699468,None,230.7384701470146,None,j,1,0.6615435930143576,230.7384701470146,None,231.42018313280133,None,None,231.42018313280133,None,,2,001,2021_Nov_02_1251,searchDisc4,2021.2.3,59.95755496632252,
images/exp2b_trial_94_colour0_distractors0_r.png,r,j,2b,94,0,0,,,,,0,45,45,715,,,,,,,,,,,,,,,,,,,,,,,,,,,,,,,,,,,,,,,,,,,,,,,,,,,,,,,,,,,,,,,,,,,,,,,,,,,,231.41981265301,None,space,0.07611980600631796,231.41981265301,None,231.57054873200832,None,j,1,0.6134812399977818,231.57054873200832,None,232.2030924587947,None,None,232.2030924587947,None,,2,001,2021_Nov_02_1251,searchDisc4,2021.2.3,59.95755496632252,
images/exp2a_trial_8_colour2_distractors19_r.png,r,j,2a,8,2,19,,,,,0,46,46,437,,,,,,,,,,,,,,,,,,,,,,,,,,,,,,,,,,,,,,,,,,,,,,,,,,,,,,,,,,,,,,,,,,,,,,,,,,,,232.2037413979997,None,space,0.036228912009391934,232.2037413979997,None,232.3222753299924,None,j,1,0.5816619700053707,232.3222753299924,None,232.92055617379665,None,None,232.92055617379665,None,,2,001,2021_Nov_02_1251,searchDisc4,2021.2.3,59.95755496632252,
images/exp1b_trial_73_colour2_distractors31_r.png,r,j,1b,73,2,31,,,,,0,47,47,310,,,,,,,,,,,,,,,,,,,,,,,,,,,,,,,,,,,,,,,,,,,,,,,,,,,,,,,,,,,,,,,,,,,,,,,,,,,,232.92002540401882,None,space,0.07189955899957567,232.92002540401882,None,233.0726535760041,None,j,1,0.7034375669900328,233.0726535760041,None,233.80371176380723,None,None,233.80371176380723,None,,2,001,2021_Nov_02_1251,searchDisc4,2021.2.3,59.95755496632252,
images/exp2c_trial_106_colour3_distractors1_r.png,r,j,2c,106,3,1,,,,,0,48,48,919,,,,,,,,,,,,,,,,,,,,,,,,,,,,,,,,,,,,,,,,,,,,,,,,,,,,,,,,,,,,,,,,,,,,,,,,,,,,233.8038243240153,None,space,0.02022657700581476,233.8038243240153,None,233.8935023189988,None,j,1,0.6666400999820326,233.8935023189988,None,234.58717143080722,None,None,234.58717143080722,None,,2,001,2021_Nov_02_1251,searchDisc4,2021.2.3,59.95755496632252,
images/exp2c_trial_103_colour2_distractors9_r.png,r,j,2c,103,2,9,,,,,0,49,49,916,,,,,,,,,,,,,,,,,,,,,,,,,,,,,,,,,,,,,,,,,,,,,,,,,,,,,,,,,,,,,,,,,,,,,,,,,,,,234.58685467700707,None,space,0.04523157002404332,234.58685467700707,None,234.69414256801247,None,j,1,0.6500331939896569,234.69414256801247,None,235.37004791679502,None,None,235.37004791679502,None,,2,001,2021_Nov_02_1251,searchDisc4,2021.2.3,59.95755496632252,
images/exp1a_trial_106_colour3_distractors1_r.png,r,j,1a,106,3,1,,,,,0,50,50,151,,,,,,,,,,,,,,,,,,,,,,,,,,,,,,,,,,,,,,,,,,,,,,,,,,,,,,,,,,,,,,,,,,,,,,,,,,,,235.370462958992,None,space,0.037643670017132536,235.370462958992,None,235.46998726800666,None,j,1,0.5541916960210074,235.46998726800666,None,236.05393228481117,None,None,236.05393228481117,None,,2,001,2021_Nov_02_1251,searchDisc4,2021.2.3,59.95755496632252,
images/exp2b_trial_56_colour2_distractors31_l.png,l,f,2b,56,2,31,,,,,0,51,51,677,,,,,,,,,,,,,,,,,,,,,,,,,,,,,,,,,,,,,,,,,,,,,,,,,,,,,,,,,,,,,,,,,,,,,,,,,,,,236.05380496301223,None,space,0.09829338997951709,236.05380496301223,None,236.2227744559932,None,f,1,0.6174302989966236,236.2227744559932,None,236.87035274979135,None,None,236.87035274979135,None,,2,001,2021_Nov_02_1251,searchDisc4,2021.2.3,59.95755496632252,
images/exp2c_trial_170_colour3_distractors1_r.png,r,j,2c,170,3,1,,,,,0,52,52,23,,,,,,,,,,,,,,,,,,,,,,,,,,,,,,,,,,,,,,,,,,,,,,,,,,,,,,,,,,,,,,,,,,,,,,,,,,,,236.87051468901336,None,space,0.05762891299673356,236.87051468901336,None,236.99428858299507,None,j,1,0.8059576230007224,236.99428858299507,None,237.8204155047919,None,None,237.8204155047919,None,,2,001,2021_Nov_02_1251,searchDisc4,2021.2.3,59.95755496632252,
images/exp2c_trial_111_colour1_distractors1_l.png,l,f,2c,111,1,1,,,,,0,53,53,924,,,,,,,,,,,,,,,,,,,,,,,,,,,,,,,,,,,,,,,,,,,,,,,,,,,,,,,,,,,,,,,,,,,,,,,,,,,,237.82037985499483,None,space,0.3398458620067686,237.82037985499483,None,238.22344967199024,None,f,1,0.5287796019983944,238.22344967199024,None,238.77014497579367,None,None,238.77014497579367,None,,2,001,2021_Nov_02_1251,searchDisc4,2021.2.3,59.95755496632252,
images/exp1a_trial_34_colour1_distractors9_r.png,r,j,1a,34,1,9,,,,,0,54,54,79,,,,,,,,,,,,,,,,,,,,,,,,,,,,,,,,,,,,,,,,,,,,,,,,,,,,,,,,,,,,,,,,,,,,,,,,,,,,238.77010006800992,None,space,0.11816071698558517,238.77010006800992,None,238.95640458300477,None,f,0,0.6279379170155153,238.95640458300477,None,239.6035110078141,None,None,239.6035110078141,None,,2,001,2021_Nov_02_1251,searchDisc4,2021.2.3,59.95755496632252,
images/exp1a_trial_135_colour2_distractors9_r.png,r,j,1a,135,2,9,,,,,0,55,55,180,,,,,,,,,,,,,,,,,,,,,,,,,,,,,,,,,,,,,,,,,,,,,,,,,,,,,,,,,,,,,,,,,,,,,,,,,,,,239.60367481401772,None,space,0.42062777202227153,239.60367481401772,None,240.10628281300887,None,j,1,0.7021202559990343,240.10628281300887,None,240.83734734081955,None,None,240.83734734081955,None,,2,001,2021_Nov_02_1251,searchDisc4,2021.2.3,59.95755496632252,
images/exp1a_trial_21_colour2_distractors4_l.png,l,f,1a,21,2,4,,,,,0,56,56,66,,,,,,,,,,,,,,,,,,,,,,,,,,,,,,,,,,,,,,,,,,,,,,,,,,,,,,,,,,,,,,,,,,,,,,,,,,,,240.83708753201063,None,space,0.043251852999674156,240.83708753201063,None,240.95632034901064,None,f,1,0.5480224240163807,240.95632034901064,None,241.53732645580604,None,None,241.53732645580604,None,,2,001,2021_Nov_02_1251,searchDisc4,2021.2.3,59.95755496632252,
images/exp1a_trial_24_colour2_distractors31_l.png,l,f,1a,24,2,31,,,,,0,57,57,69,,,,,,,,,,,,,,,,,,,,,,,,,,,,,,,,,,,,,,,,,,,,,,,,,,,,,,,,,,,,,,,,,,,,,,,,,,,,241.53670895899995,None,space,0.047667058010119945,241.53670895899995,None,241.6554154070036,None,f,1,0.8970873180078343,241.6554154070036,None,242.57032846079383,None,None,242.57032846079383,None,,2,001,2021_Nov_02_1251,searchDisc4,2021.2.3,59.95755496632252,
images/exp2a_trial_184_colour2_distractors31_l.png,l,f,2a,184,2,31,,,,,0,58,58,613,,,,,,,,,,,,,,,,,,,,,,,,,,,,,,,,,,,,,,,,,,,,,,,,,,,,,,,,,,,,,,,,,,,,,,,,,,,,242.5700054890185,None,space,0.03843705297913402,242.5700054890185,None,242.68955438100966,None,f,1,0.6550011170038488,242.68955438100966,None,243.37073790281138,None,None,243.37073790281138,None,,2,001,2021_Nov_02_1251,searchDisc4,2021.2.3,59.95755496632252,
images/exp1a_trial_11_colour3_distractors4_r.png,r,j,1a,11,3,4,,,,,0,59,59,56,,,,,,,,,,,,,,,,,,,,,,,,,,,,,,,,,,,,,,,,,,,,,,,,,,,,,,,,,,,,,,,,,,,,,,,,,,,,243.37035201201797,None,space,0.11804824898717925,243.37035201201797,None,243.55631035001716,None,j,1,0.5641866450023372,243.55631035001716,None,244.13735716780357,None,None,244.13735716780357,None,,2,001,2021_Nov_02_1251,searchDisc4,2021.2.3,59.95755496632252,
images/exp2b_trial_98_colour1_distractors9_r.png,r,j,2b,98,1,9,,,,,0,60,60,719,,,,,,,,,,,,,,,,,,,,,,,,,,,,,,,,,,,,,,,,,,,,,,,,,,,,,,,,,,,,,,,,,,,,,,,,,,,,244.1376444910129,None,space,0.046864765987265855,244.1376444910129,None,244.2562645059952,None,j,1,0.5843385689950082,244.2562645059952,None,244.87072617981758,None,None,244.87072617981758,None,,2,001,2021_Nov_02_1251,searchDisc4,2021.2.3,59.95755496632252,
images/exp1b_trial_88_colour2_distractors31_l.png,l,f,1b,88,2,31,,,,,0,61,61,325,,,,,,,,,,,,,,,,,,,,,,,,,,,,,,,,,,,,,,,,,,,,,,,,,,,,,,,,,,,,,,,,,,,,,,,,,,,,244.8706383180106,None,space,0.01780160199268721,244.8706383180106,None,244.9540429369954,None,j,0,0.8706068440224044,244.9540429369954,None,245.85407702181547,None,None,245.85407702181547,None,,2,001,2021_Nov_02_1251,searchDisc4,2021.2.3,59.95755496632252,
images/exp2a_trial_175_colour1_distractors1_l.png,l,f,2a,175,1,1,,,,,0,62,62,604,,,,,,,,,,,,,,,,,,,,,,,,,,,,,,,,,,,,,,,,,,,,,,,,,,,,,,,,,,,,,,,,,,,,,,,,,,,,245.854003053013,None,space,0.02657551201991737,245.854003053013,None,245.94478873800836,None,f,1,0.7597899270185735,245.94478873800836,None,246.73758136480174,None,None,246.73758136480174,None,,2,001,2021_Nov_02_1251,searchDisc4,2021.2.3,59.95755496632252,
images/exp2c_trial_3_colour1_distractors19_r.png,r,j,2c,3,1,19,,,,,0,63,63,816,,,,,,,,,,,,,,,,,,,,,,,,,,,,,,,,,,,,,,,,,,,,,,,,,,,,,,,,,,,,,,,,,,,,,,,,,,,,246.737290657009,None,space,0.07931293299770914,246.737290657009,None,246.88930597199942,None,j,1,0.6473389570019208,246.88930597199942,None,247.55413259681373,None,None,247.55413259681373,None,,2,001,2021_Nov_02_1251,searchDisc4,2021.2.3,59.95755496632252,
images/exp1b_trial_122_colour3_distractors4_l.png,l,f,1b,122,3,4,,,,,0,64,64,359,,,,,,,,,,,,,,,,,,,,,,,,,,,,,,,,,,,,,,,,,,,,,,,,,,,,,,,,,,,,,,,,,,,,,,,,,,,,247.55394047501613,None,space,0.07070877097430639,247.55394047501613,None,247.70642083100392,None,j,0,0.6783484379993752,247.70642083100392,None,248.40399645180733,None,None,248.40399645180733,None,,2,001,2021_Nov_02_1251,searchDisc4,2021.2.3,59.95755496632252,
images/exp2a_trial_11_colour3_distractors4_r.png,r,j,2a,11,3,4,,,,,0,65,65,440,,,,,,,,,,,,,,,,,,,,,,,,,,,,,,,,,,,,,,,,,,,,,,,,,,,,,,,,,,,,,,,,,,,,,,,,,,,,248.40408274400397,None,space,0.14863987499848008,248.40408274400397,None,248.6210283440014,None,j,1,0.707800993026467,248.6210283440014,None,249.35412884479447,None,None,249.35412884479447,None,,2,001,2021_Nov_02_1251,searchDisc4,2021.2.3,59.95755496632252,
images/exp2c_trial_171_colour3_distractors4_r.png,r,j,2c,171,3,4,,,,,0,66,66,24,,,,,,,,,,,,,,,,,,,,,,,,,,,,,,,,,,,,,,,,,,,,,,,,,,,,,,,,,,,,,,,,,,,,,,,,,,,,249.35397763201036,None,space,0.07878454201272689,249.35397763201036,None,249.50649454299128,None,j,1,1.1343681260186713,249.50649454299128,None,250.67097834179586,None,None,250.67097834179586,None,,2,001,2021_Nov_02_1251,searchDisc4,2021.2.3,59.95755496632252,
images/exp1b_trial_28_colour3_distractors19_l.png,l,f,1b,28,3,19,,,,,0,67,67,265,,,,,,,,,,,,,,,,,,,,,,,,,,,,,,,,,,,,,,,,,,,,,,,,,,,,,,,,,,,,,,,,,,,,,,,,,,,,250.6709125910129,None,space,0.11390264800866134,250.6709125910129,None,250.85655874601798,None,f,1,0.6243525840109214,250.85655874601798,None,251.50358809780155,None,None,251.50358809780155,None,,2,001,2021_Nov_02_1251,searchDisc4,2021.2.3,59.95755496632252,
images/exp1a_trial_176_colour1_distractors4_l.png,l,f,1a,176,1,4,,,,,0,68,68,221,,,,,,,,,,,,,,,,,,,,,,,,,,,,,,,,,,,,,,,,,,,,,,,,,,,,,,,,,,,,,,,,,,,,,,,,,,,,251.50424591999035,None,space,0.1126157229882665,251.50424591999035,None,251.68914218401187,None,j,0,0.7678017360158265,251.68914218401187,None,252.48761133880762,None,None,252.48761133880762,None,,2,001,2021_Nov_02_1251,searchDisc4,2021.2.3,59.95755496632252,
images/exp2b_trial_147_colour1_distractors31_l.png,l,f,2b,147,1,31,,,,,0,69,69,768,,,,,,,,,,,,,,,,,,,,,,,,,,,,,,,,,,,,,,,,,,,,,,,,,,,,,,,,,,,,,,,,,,,,,,,,,,,,252.4875534250168,None,space,0.3693010710121598,252.4875534250168,None,252.93983843101887,None,f,1,1.0451220849936362,252.93983843101887,None,254.00395050681837,None,None,254.00395050681837,None,,2,001,2021_Nov_02_1251,searchDisc4,2021.2.3,59.95755496632252,
images/exp1a_trial_14_colour3_distractors31_r.png,r,j,1a,14,3,31,,,,,0,70,70,59,,,,,,,,,,,,,,,,,,,,,,,,,,,,,,,,,,,,,,,,,,,,,,,,,,,,,,,,,,,,,,,,,,,,,,,,,,,,254.00428262201604,None,space,0.12464951901347376,254.00428262201604,None,254.22320568701252,None,j,1,0.6097906570066698,254.22320568701252,None,254.85406381181966,None,None,254.85406381181966,None,,2,001,2021_Nov_02_1251,searchDisc4,2021.2.3,59.95755496632252,
images/exp1a_trial_73_colour2_distractors31_r.png,r,j,1a,73,2,31,,,,,0,71,71,118,,,,,,,,,,,,,,,,,,,,,,,,,,,,,,,,,,,,,,,,,,,,,,,,,,,,,,,,,,,,,,,,,,,,,,,,,,,,254.85363640400465,None,space,0.07527370899333619,254.85363640400465,None,255.00661445900914,None,j,1,1.794429490022594,255.00661445900914,None,256.82014306080816,None,None,256.82014306080816,None,,2,001,2021_Nov_02_1251,searchDisc4,2021.2.3,59.95755496632252,
images/exp2a_trial_124_colour3_distractors19_l.png,l,f,2a,124,3,19,,,,,0,72,72,553,,,,,,,,,,,,,,,,,,,,,,,,,,,,,,,,,,,,,,,,,,,,,,,,,,,,,,,,,,,,,,,,,,,,,,,,,,,,256.8208988700062,None,space,0.06011353700887412,256.8208988700062,None,256.95671060399036,None,f,1,0.7164026900136378,256.95671060399036,None,257.70432243879475,None,None,257.70432243879475,None,,2,001,2021_Nov_02_1251,searchDisc4,2021.2.3,59.95755496632252,
images/exp2a_trial_173_colour3_distractors19_r.png,r,j,2a,173,3,19,,,,,0,73,73,602,,,,,,,,,,,,,,,,,,,,,,,,,,,,,,,,,,,,,,,,,,,,,,,,,,,,,,,,,,,,,,,,,,,,,,,,,,,,257.7037606690137,None,space,0.06525913902441971,257.7037606690137,None,257.83974601799855,None,j,1,1.0175032240222208,257.83974601799855,None,258.88801886079307,None,None,258.88801886079307,None,,2,001,2021_Nov_02_1251,searchDisc4,2021.2.3,59.95755496632252,
images/exp2b_trial_7_colour2_distractors9_r.png,r,j,2b,7,2,9,,,,,0,74,74,628,,,,,,,,,,,,,,,,,,,,,,,,,,,,,,,,,,,,,,,,,,,,,,,,,,,,,,,,,,,,,,,,,,,,,,,,,,,,258.8877903590037,None,space,4.233483365998836,258.8877903590037,None,263.19075979301124,None,j,1,0.6666941859875806,263.19075979301124,None,263.88790376081886,None,None,263.88790376081886,None,,2,001,2021_Nov_02_1251,searchDisc4,2021.2.3,59.95755496632252,
images/exp1a_trial_87_colour2_distractors19_l.png,l,f,1a,87,2,19,,,,,0,75,75,132,,,,,,,,,,,,,,,,,,,,,,,,,,,,,,,,,,,,,,,,,,,,,,,,,,,,,,,,,,,,,,,,,,,,,,,,,,,,263.8884060400014,None,space,0.0809004949987866,263.8884060400014,None,264.0403106860176,None,f,1,0.6651209859992377,264.0403106860176,None,264.73789213480484,None,None,264.73789213480484,None,,2,001,2021_Nov_02_1251,searchDisc4,2021.2.3,59.95755496632252,
images/exp1b_trial_162_colour1_distractors9_r.png,r,j,1b,162,1,9,,,,,0,76,76,399,,,,,,,,,,,,,,,,,,,,,,,,,,,,,,,,,,,,,,,,,,,,,,,,,,,,,,,,,,,,,,,,,,,,,,,,,,,,264.73765431300853,None,space,0.06377150700427592,264.73765431300853,None,264.8729068179964,None,j,1,0.8325651040067896,264.8729068179964,None,265.7379435348179,None,None,265.7379435348179,None,,2,001,2021_Nov_02_1251,searchDisc4,2021.2.3,59.95755496632252,
images/exp1b_trial_190_colour0_distractors0_r.png,r,j,1b,190,0,0,,,,,0,77,77,427,,,,,,,,,,,,,,,,,,,,,,,,,,,,,,,,,,,,,,,,,,,,,,,,,,,,,,,,,,,,,,,,,,,,,,,,,,,,265.73803030201816,None,space,0.07144370599417016,265.73803030201816,None,265.8791496329941,None,j,1,0.45833811702323146,265.8791496329941,None,266.35476040079664,None,None,266.35476040079664,None,,2,001,2021_Nov_02_1251,searchDisc4,2021.2.3,59.95755496632252,
images/exp2c_trial_184_colour2_distractors31_l.png,l,f,2c,184,2,31,,,,,0,78,78,37,,,,,,,,,,,,,,,,,,,,,,,,,,,,,,,,,,,,,,,,,,,,,,,,,,,,,,,,,,,,,,,,,,,,,,,,,,,,266.35473174700746,None,space,0.06278842798201367,266.35473174700746,None,266.4898424849962,None,f,1,0.7597584509931039,266.4898424849962,None,267.2710243998066,None,None,267.2710243998066,None,,2,001,2021_Nov_02_1251,searchDisc4,2021.2.3,59.95755496632252,
images/exp2b_trial_129_colour1_distractors4_r.png,r,j,2b,129,1,4,,,,,0,79,79,750,,,,,,,,,,,,,,,,,,,,,,,,,,,,,,,,,,,,,,,,,,,,,,,,,,,,,,,,,,,,,,,,,,,,,,,,,,,,267.27089469201746,None,space,0.07468475500354543,267.27089469201746,None,267.4235387770168,None,j,1,0.6661089080153033,267.4235387770168,None,268.1214645687927,None,None,268.1214645687927,None,,2,001,2021_Nov_02_1251,searchDisc4,2021.2.3,59.95755496632252,
images/exp1a_trial_167_colour2_distractors9_r.png,r,j,1a,167,2,9,,,,,0,80,80,212,,,,,,,,,,,,,,,,,,,,,,,,,,,,,,,,,,,,,,,,,,,,,,,,,,,,,,,,,,,,,,,,,,,,,,,,,,,,268.121246041992,None,space,0.04036822300986387,268.121246041992,None,268.239950031013,None,j,1,0.5617847410030663,268.239950031013,None,268.82123214980527,None,None,268.82123214980527,None,,2,001,2021_Nov_02_1251,searchDisc4,2021.2.3,59.95755496632252,
images/exp2c_trial_151_colour2_distractors19_l.png,l,f,2c,151,2,19,,,,,0,81,81,4,,,,,,,,,,,,,,,,,,,,,,,,,,,,,,,,,,,,,,,,,,,,,,,,,,,,,,,,,,,,,,,,,,,,,,,,,,,,268.8216821899987,None,space,0.09195706702303141,268.8216821899987,None,268.99047869900824,None,j,0,0.619266350986436,268.99047869900824,None,269.63813777080793,None,None,269.63813777080793,None,,2,001,2021_Nov_02_1251,searchDisc4,2021.2.3,59.95755496632252,
images/exp2c_trial_36_colour1_distractors31_r.png,r,j,2c,36,1,31,,,,,0,82,82,849,,,,,,,,,,,,,,,,,,,,,,,,,,,,,,,,,,,,,,,,,,,,,,,,,,,,,,,,,,,,,,,,,,,,,,,,,,,,269.6381396650104,None,space,0.04355435899924487,269.6381396650104,None,269.757135257998,None,j,1,0.7166228760033846,269.757135257998,None,270.5048532808054,None,None,270.5048532808054,None,,2,001,2021_Nov_02_1251,searchDisc4,2021.2.3,59.95755496632252,
images/exp2a_trial_106_colour3_distractors1_r.png,r,j,2a,106,3,1,,,,,0,83,83,535,,,,,,,,,,,,,,,,,,,,,,,,,,,,,,,,,,,,,,,,,,,,,,,,,,,,,,,,,,,,,,,,,,,,,,,,,,,,270.5047151519975,None,space,0.0809853539976757,270.5047151519975,None,270.6570203799929,None,j,1,0.6567900619993452,270.6570203799929,None,271.3381820128037,None,None,271.3381820128037,None,,2,001,2021_Nov_02_1251,searchDisc4,2021.2.3,59.95755496632252,
images/exp2b_trial_70_colour2_distractors4_r.png,r,j,2b,70,2,4,,,,,0,84,84,691,,,,,,,,,,,,,,,,,,,,,,,,,,,,,,,,,,,,,,,,,,,,,,,,,,,,,,,,,,,,,,,,,,,,,,,,,,,,271.337320688006,None,space,0.04044535098364577,271.337320688006,None,271.45703807100654,None,j,1,0.6486967359960545,271.45703807100654,None,272.13818005081555,None,None,272.13818005081555,None,,2,001,2021_Nov_02_1251,searchDisc4,2021.2.3,59.95755496632252,
images/exp2a_trial_74_colour3_distractors1_r.png,r,j,2a,74,3,1,,,,,0,85,85,503,,,,,,,,,,,,,,,,,,,,,,,,,,,,,,,,,,,,,,,,,,,,,,,,,,,,,,,,,,,,,,,,,,,,,,,,,,,,272.13812369899824,None,space,0.1036298840190284,272.13812369899824,None,272.3236682660063,None,j,1,0.49421137699391693,272.3236682660063,None,272.83816174780657,None,None,272.83816174780657,None,,2,001,2021_Nov_02_1251,searchDisc4,2021.2.3,59.95755496632252,
images/exp1a_trial_151_colour2_distractors19_l.png,l,f,1a,151,2,19,,,,,0,86,86,196,,,,,,,,,,,,,,,,,,,,,,,,,,,,,,,,,,,,,,,,,,,,,,,,,,,,,,,,,,,,,,,,,,,,,,,,,,,,272.837819605018,None,space,0.05200464100926183,272.837819605018,None,272.95715955700143,None,f,1,0.64475500700064,272.95715955700143,None,273.62106965379496,None,None,273.62106965379496,None,,2,001,2021_Nov_02_1251,searchDisc4,2021.2.3,59.95755496632252,
images/exp1b_trial_80_colour1_distractors4_l.png,l,f,1b,80,1,4,,,,,0,87,87,317,,,,,,,,,,,,,,,,,,,,,,,,,,,,,,,,,,,,,,,,,,,,,,,,,,,,,,,,,,,,,,,,,,,,,,,,,,,,273.6207702640095,None,space,0.01308560199686326,273.6207702640095,None,273.6936208650004,None,f,1,0.9723438099899795,273.6936208650004,None,274.68739918679637,None,None,274.68739918679637,None,,2,001,2021_Nov_02_1251,searchDisc4,2021.2.3,59.95755496632252,
images/exp2a_trial_88_colour2_distractors31_l.png,l,f,2a,88,2,31,,,,,0,88,88,517,,,,,,,,,,,,,,,,,,,,,,,,,,,,,,,,,,,,,,,,,,,,,,,,,,,,,,,,,,,,,,,,,,,,,,,,,,,,274.68822919699596,None,space,0.08968672400806099,274.68822919699596,None,274.85854737099726,None,f,1,1.2234756250109058,274.85854737099726,None,276.10461902480745,None,None,276.10461902480745,None,,2,001,2021_Nov_02_1251,searchDisc4,2021.2.3,59.95755496632252,
images/exp1a_trial_5_colour2_distractors1_r.png,r,j,1a,5,2,1,,,,,0,89,89,50,,,,,,,,,,,,,,,,,,,,,,,,,,,,,,,,,,,,,,,,,,,,,,,,,,,,,,,,,,,,,,,,,,,,,,,,,,,,276.1046178260003,None,space,0.04923996399156749,276.1046178260003,None,276.2239963400061,None,j,1,0.6500747730024159,276.2239963400061,None,276.90490673580496,None,None,276.90490673580496,None,,2,001,2021_Nov_02_1251,searchDisc4,2021.2.3,59.95755496632252,
images/exp2c_trial_61_colour3_distractors31_l.png,l,f,2c,61,3,31,,,,,0,90,90,874,,,,,,,,,,,,,,,,,,,,,,,,,,,,,,,,,,,,,,,,,,,,,,,,,,,,,,,,,,,,,,,,,,,,,,,,,,,,276.9041743199923,None,space,0.8577931030013133,276.9041743199923,None,277.8405873760057,None,f,1,0.6095531610189937,277.8405873760057,None,278.4716121198056,None,None,278.4716121198056,None,,2,001,2021_Nov_02_1251,searchDisc4,2021.2.3,59.95755496632252,
images/exp1a_trial_80_colour1_distractors4_l.png,l,f,1a,80,1,4,,,,,0,91,91,125,,,,,,,,,,,,,,,,,,,,,,,,,,,,,,,,,,,,,,,,,,,,,,,,,,,,,,,,,,,,,,,,,,,,,,,,,,,,278.4718190639978,None,space,0.07427080499473959,278.4718190639978,None,278.62362193799345,None,f,1,0.6905600210011471,278.62362193799345,None,279.33804607480704,None,None,279.33804607480704,None,,2,001,2021_Nov_02_1251,searchDisc4,2021.2.3,59.95755496632252,
images/exp1b_trial_127_colour0_distractors0_l.png,l,f,1b,127,0,0,,,,,0,92,92,364,,,,,,,,,,,,,,,,,,,,,,,,,,,,,,,,,,,,,,,,,,,,,,,,,,,,,,,,,,,,,,,,,,,,,,,,,,,,279.33800869600964,None,space,0.05610707402229309,279.33800869600964,None,279.46016134301317,None,f,1,0.6860775840177666,279.46016134301317,None,280.1718009668024,None,None,280.1718009668024,None,,2,001,2021_Nov_02_1251,searchDisc4,2021.2.3,59.95755496632252,
images/exp1a_trial_42_colour3_distractors1_r.png,r,j,1a,42,3,1,,,,,0,93,93,87,,,,,,,,,,,,,,,,,,,,,,,,,,,,,,,,,,,,,,,,,,,,,,,,,,,,,,,,,,,,,,,,,,,,,,,,,,,,280.17169897499844,None,space,0.0624585309997201,280.17169897499844,None,280.296108954004,None,f,0,0.6660877549729776,280.296108954004,None,280.98833349381164,None,None,280.98833349381164,None,,2,001,2021_Nov_02_1251,searchDisc4,2021.2.3,59.95755496632252,
images/exp1b_trial_165_colour2_distractors1_r.png,r,j,1b,165,2,1,,,,,0,94,94,402,,,,,,,,,,,,,,,,,,,,,,,,,,,,,,,,,,,,,,,,,,,,,,,,,,,,,,,,,,,,,,,,,,,,,,,,,,,,280.9885282840114,None,space,0.08558339299634099,280.9885282840114,None,281.14445208001416,None,j,1,0.7858453429944348,281.14445208001416,None,281.9551665618113,None,None,281.9551665618113,None,,2,001,2021_Nov_02_1251,searchDisc4,2021.2.3,59.95755496632252,
images/exp2b_trial_169_colour2_distractors31_r.png,r,j,2b,169,2,31,,,,,0,95,95,790,,,,,,,,,,,,,,,,,,,,,,,,,,,,,,,,,,,,,,,,,,,,,,,,,,,,,,,,,,,,,,,,,,,,,,,,,,,,281.95427431201097,None,space,0.07198192001669668,281.95427431201097,None,282.1077672910178,None,j,1,0.6465135129983537,282.1077672910178,None,282.77178587679225,None,None,282.77178587679225,None,,2,001,2021_Nov_02_1251,searchDisc4,2021.2.3,59.95755496632252,
images/exp2c_trial_122_colour3_distractors4_l.png,l,f,2c,122,3,4,,,,,0,96,96,935,,,,,,,,,,,,,,,,,,,,,,,,,,,,,,,,,,,,,,,,,,,,,,,,,,,,,,,,,,,,,,,,,,,,,,,,,,,,282.77180012501776,None,space,0.1023911360243801,282.77180012501776,None,282.94654362401343,None,f,1,0.5838472679897677,282.94654362401343,None,283.5551362247992,None,None,283.5551362247992,None,,2,001,2021_Nov_02_1251,searchDisc4,2021.2.3,59.95755496632252,
images/exp1a_trial_30_colour0_distractors0_r.png,r,j,1a,30,0,0,,,,,0,97,97,75,,,,,,,,,,,,,,,,,,,,,,,,,,,,,,,,,,,,,,,,,,,,,,,,,,,,,,,,,,,,,,,,,,,,,,,,,,,,283.5546659270185,None,space,0.08764717698795721,283.5546659270185,None,283.705368223018,None,j,1,0.5530608349945396,283.705368223018,None,284.2885195918119,None,None,284.2885195918119,None,,2,001,2021_Nov_02_1251,searchDisc4,2021.2.3,59.95755496632252,
images/exp2b_trial_35_colour1_distractors19_r.png,r,j,2b,35,1,19,,,,,0,98,98,656,,,,,,,,,,,,,,,,,,,,,,,,,,,,,,,,,,,,,,,,,,,,,,,,,,,,,,,,,,,,,,,,,,,,,,,,,,,,284.2878010510176,None,space,0.04255764602567069,284.2878010510176,None,284.4074193650158,None,j,1,0.5390279669954907,284.4074193650158,None,284.97186477280627,None,None,284.97186477280627,None,,2,001,2021_Nov_02_1251,searchDisc4,2021.2.3,59.95755496632252,
images/exp2a_trial_154_colour3_distractors4_l.png,l,f,2a,154,3,4,,,,,0,99,99,583,,,,,,,,,,,,,,,,,,,,,,,,,,,,,,,,,,,,,,,,,,,,,,,,,,,,,,,,,,,,,,,,,,,,,,,,,,,,284.9715875260008,None,space,0.038736057991627604,284.9715875260008,None,285.0907526590163,None,f,1,0.5917234770022333,285.0907526590163,None,285.70518589280834,None,None,285.70518589280834,None,,2,001,2021_Nov_02_1251,searchDisc4,2021.2.3,59.95755496632252,
images/exp2b_trial_36_colour1_distractors31_r.png,r,j,2b,36,1,31,,,,,0,100,100,657,,,,,,,,,,,,,,,,,,,,,,,,,,,,,,,,,,,,,,,,,,,,,,,,,,,,,,,,,,,,,,,,,,,,,,,,,,,,285.70519309301744,None,space,0.08930490800412372,285.70519309301744,None,285.8720071410062,None,j,1,0.7305324680055492,285.8720071410062,None,286.6216581787943,None,None,286.6216581787943,None,,2,001,2021_Nov_02_1251,searchDisc4,2021.2.3,59.95755496632252,
images/exp2a_trial_68_colour1_distractors31_r.png,r,j,2a,68,1,31,,,,,0,101,101,497,,,,,,,,,,,,,,,,,,,,,,,,,,,,,,,,,,,,,,,,,,,,,,,,,,,,,,,,,,,,,,,,,,,,,,,,,,,,286.62151716600056,None,space,0.028944839985342696,286.62151716600056,None,286.72413887499715,None,j,1,0.6144569379976019,286.72413887499715,None,287.3553065718064,None,None,287.3553065718064,None,,2,001,2021_Nov_02_1251,searchDisc4,2021.2.3,59.95755496632252,
images/exp2c_trial_109_colour3_distractors19_r.png,r,j,2c,109,3,19,,,,,0,102,102,922,,,,,,,,,,,,,,,,,,,,,,,,,,,,,,,,,,,,,,,,,,,,,,,,,,,,,,,,,,,,,,,,,,,,,,,,,,,,287.35673851001775,None,space,0.08572489998186938,287.35673851001775,None,287.5218808950158,None,j,1,0.8247202330094296,287.5218808950158,None,288.37220879081576,None,None,288.37220879081576,None,,2,001,2021_Nov_02_1251,searchDisc4,2021.2.3,59.95755496632252,
images/exp2b_trial_184_colour2_distractors31_l.png,l,f,2b,184,2,31,,,,,0,103,103,805,,,,,,,,,,,,,,,,,,,,,,,,,,,,,,,,,,,,,,,,,,,,,,,,,,,,,,,,,,,,,,,,,,,,,,,,,,,,288.37120001000585,None,space,0.05534797298605554,288.37120001000585,None,288.50748603700777,None,f,1,0.6550594439904671,288.50748603700777,None,289.1885752488073,None,None,289.1885752488073,None,,2,001,2021_Nov_02_1251,searchDisc4,2021.2.3,59.95755496632252,
images/exp2a_trial_39_colour2_distractors9_r.png,r,j,2a,39,2,9,,,,,0,104,104,468,,,,,,,,,,,,,,,,,,,,,,,,,,,,,,,,,,,,,,,,,,,,,,,,,,,,,,,,,,,,,,,,,,,,,,,,,,,,289.188643047004,None,space,0.06186450499808416,289.188643047004,None,289.3243632270023,None,j,1,0.6463329399994109,289.3243632270023,None,289.98831368981917,None,None,289.98831368981917,None,,2,001,2021_Nov_02_1251,searchDisc4,2021.2.3,59.95755496632252,
images/exp1b_trial_4_colour1_distractors31_r.png,r,j,1b,4,1,31,,,,,0,105,105,241,,,,,,,,,,,,,,,,,,,,,,,,,,,,,,,,,,,,,,,,,,,,,,,,,,,,,,,,,,,,,,,,,,,,,,,,,,,,289.9883443519939,None,space,0.08620587200857699,289.9883443519939,None,290.1575070580002,None,j,1,1.2372605769778602,290.1575070580002,None,291.42221946480856,None,None,291.42221946480856,None,,2,001,2021_Nov_02_1251,searchDisc4,2021.2.3,59.95755496632252,
images/exp1a_trial_29_colour3_distractors31_l.png,l,f,1a,29,3,31,,,,,0,106,106,74,,,,,,,,,,,,,,,,,,,,,,,,,,,,,,,,,,,,,,,,,,,,,,,,,,,,,,,,,,,,,,,,,,,,,,,,,,,,291.42209017300047,None,space,0.028565107990289107,291.42209017300047,None,291.52431563899154,None,f,1,0.8864326910115778,291.52431563899154,None,292.4386934238049,None,None,292.4386934238049,None,,2,001,2021_Nov_02_1251,searchDisc4,2021.2.3,59.95755496632252,
images/exp2b_trial_146_colour1_distractors19_l.png,l,f,2b,146,1,19,,,,,0,107,107,767,,,,,,,,,,,,,,,,,,,,,,,,,,,,,,,,,,,,,,,,,,,,,,,,,,,,,,,,,,,,,,,,,,,,,,,,,,,,292.43848538800376,None,space,0.05223773201578297,292.43848538800376,None,292.5576039389998,None,f,1,0.7091848219861276,292.5576039389998,None,293.2881806258141,None,None,293.2881806258141,None,,2,001,2021_Nov_02_1251,searchDisc4,2021.2.3,59.95755496632252,
images/exp2a_trial_83_colour1_distractors31_l.png,l,f,2a,83,1,31,,,,,0,108,108,512,,,,,,,,,,,,,,,,,,,,,,,,,,,,,,,,,,,,,,,,,,,,,,,,,,,,,,,,,,,,,,,,,,,,,,,,,,,,293.2887928879936,None,space,0.0819336669810582,293.2887928879936,None,293.4410159199906,None,f,1,0.6977825649955776,293.4410159199906,None,294.1556237887911,None,None,294.1556237887911,None,,2,001,2021_Nov_02_1251,searchDisc4,2021.2.3,59.95755496632252,
images/exp2a_trial_182_colour2_distractors9_l.png,l,f,2a,182,2,9,,,,,0,109,109,611,,,,,,,,,,,,,,,,,,,,,,,,,,,,,,,,,,,,,,,,,,,,,,,,,,,,,,,,,,,,,,,,,,,,,,,,,,,,294.15542926301714,None,space,0.07937345100799575,294.15542926301714,None,294.3075989280187,None,f,1,0.5672845049994066,294.3075989280187,None,294.90547232681126,None,None,294.90547232681126,None,,2,001,2021_Nov_02_1251,searchDisc4,2021.2.3,59.95755496632252,
images/exp1a_trial_117_colour2_distractors4_l.png,l,f,1a,117,2,4,,,,,0,110,110,162,,,,,,,,,,,,,,,,,,,,,,,,,,,,,,,,,,,,,,,,,,,,,,,,,,,,,,,,,,,,,,,,,,,,,,,,,,,,294.90577820001636,None,space,0.05704821101971902,294.90577820001636,None,295.04102510301163,None,f,1,0.6578858589928132,295.04102510301163,None,295.72235465779374,None,None,295.72235465779374,None,,2,001,2021_Nov_02_1251,searchDisc4,2021.2.3,59.95755496632252,
images/exp2a_trial_42_colour3_distractors1_r.png,r,j,2a,42,3,1,,,,,0,111,111,471,,,,,,,,,,,,,,,,,,,,,,,,,,,,,,,,,,,,,,,,,,,,,,,,,,,,,,,,,,,,,,,,,,,,,,,,,,,,295.72157250199234,None,space,0.07336916701751761,295.72157250199234,None,295.8631813650136,None,j,1,0.8277909099997487,295.8631813650136,None,296.7221400578186,None,None,296.7221400578186,None,,2,001,2021_Nov_02_1251,searchDisc4,2021.2.3,59.95755496632252,
images/exp1a_trial_62_colour0_distractors0_r.png,r,j,1a,62,0,0,,,,,0,112,112,107,,,,,,,,,,,,,,,,,,,,,,,,,,,,,,,,,,,,,,,,,,,,,,,,,,,,,,,,,,,,,,,,,,,,,,,,,,,,296.72199374300544,None,space,0.04089989900239743,296.72199374300544,None,296.8286763179931,None,j,1,0.582321524998406,296.8286763179931,None,297.4389301948162,None,None,297.4389301948162,None,,2,001,2021_Nov_02_1251,searchDisc4,2021.2.3,59.95755496632252,
images/exp2c_trial_27_colour3_distractors9_l.png,l,f,2c,27,3,9,,,,,0,113,113,840,,,,,,,,,,,,,,,,,,,,,,,,,,,,,,,,,,,,,,,,,,,,,,,,,,,,,,,,,,,,,,,,,,,,,,,,,,,,297.4388095950126,None,space,0.012133966985857114,297.4388095950126,None,297.52231058100006,None,f,1,0.7687150779820513,297.52231058100006,None,298.3223370748077,None,None,298.3223370748077,None,,2,001,2021_Nov_02_1251,searchDisc4,2021.2.3,59.95755496632252,
images/exp2c_trial_156_colour3_distractors19_l.png,l,f,2c,156,3,19,,,,,0,114,114,9,,,,,,,,,,,,,,,,,,,,,,,,,,,,,,,,,,,,,,,,,,,,,,,,,,,,,,,,,,,,,,,,,,,,,,,,,,,,298.32222612199257,None,space,0.04076642799191177,298.32222612199257,None,298.44122100798995,None,f,1,0.6578616329934448,298.44122100798995,None,299.1215452047967,None,None,299.1215452047967,None,,2,001,2021_Nov_02_1251,searchDisc4,2021.2.3,59.95755496632252,
images/exp2b_trial_143_colour1_distractors1_l.png,l,f,2b,143,1,1,,,,,0,115,115,764,,,,,,,,,,,,,,,,,,,,,,,,,,,,,,,,,,,,,,,,,,,,,,,,,,,,,,,,,,,,,,,,,,,,,,,,,,,,299.1223062580102,None,space,0.07279203101643361,299.1223062580102,None,299.273880852008,None,f,1,0.5612408889865037,299.273880852008,None,299.85557344281403,None,None,299.85557344281403,None,,2,001,2021_Nov_02_1251,searchDisc4,2021.2.3,59.95755496632252,
images/exp1b_trial_34_colour1_distractors9_r.png,r,j,1b,34,1,9,,,,,0,116,116,271,,,,,,,,,,,,,,,,,,,,,,,,,,,,,,,,,,,,,,,,,,,,,,,,,,,,,,,,,,,,,,,,,,,,,,,,,,,,299.8558976869972,None,space,0.05116056100814603,299.8558976869972,None,299.9744853970187,None,j,1,0.6446610739803873,299.9744853970187,None,300.63836037881845,None,None,300.63836037881845,None,,2,001,2021_Nov_02_1251,searchDisc4,2021.2.3,59.95755496632252,
images/exp1b_trial_87_colour2_distractors19_l.png,l,f,1b,87,2,19,,,,,0,117,117,324,,,,,,,,,,,,,,,,,,,,,,,,,,,,,,,,,,,,,,,,,,,,,,,,,,,,,,,,,,,,,,,,,,,,,,,,,,,,300.63876345800236,None,space,0.06832787400344387,300.63876345800236,None,300.77455442000064,None,f,1,0.6286552569945343,300.77455442000064,None,301.42253971381285,None,None,301.42253971381285,None,,2,001,2021_Nov_02_1251,searchDisc4,2021.2.3,59.95755496632252,
images/exp2a_trial_22_colour2_distractors9_l.png,l,f,2a,22,2,9,,,,,0,118,118,451,,,,,,,,,,,,,,,,,,,,,,,,,,,,,,,,,,,,,,,,,,,,,,,,,,,,,,,,,,,,,,,,,,,,,,,,,,,,301.4225569659902,None,space,0.06056253198767081,301.4225569659902,None,301.557888618001,None,f,1,0.6293358030088712,301.557888618001,None,302.2048483358143,None,None,302.2048483358143,None,,2,001,2021_Nov_02_1251,searchDisc4,2021.2.3,59.95755496632252,
images/exp1b_trial_54_colour2_distractors9_l.png,l,f,1b,54,2,9,,,,,0,119,119,291,,,,,,,,,,,,,,,,,,,,,,,,,,,,,,,,,,,,,,,,,,,,,,,,,,,,,,,,,,,,,,,,,,,,,,,,,,,,302.2056895610003,None,space,0.07747624299372546,302.2056895610003,None,302.35719276199234,None,f,1,0.8381240330054425,302.35719276199234,None,303.2218694149924,None,c,303.2218694149924,None,11.813968965987442,2,001,2021_Nov_02_1251,searchDisc4,2021.2.3,59.95755496632252,
images/exp2c_trial_32_colour1_distractors1_r.png,r,j,2c,32,1,1,,,,,0,120,120,845,,,,,,,,,,,,,,,,,,,,,,,,,,,,,,,,,,,,,,,,,,,,,,,,,,,,,,,,,,,,,,,,,,,,,,,,,,,,315.05609575801645,None,space,1.1637841170013417,315.05609575801645,None,316.28029419400264,None,j,1,0.5476167979941238,316.28029419400264,None,316.85632337279674,None,None,316.85632337279674,None,,2,001,2021_Nov_02_1251,searchDisc4,2021.2.3,59.95755496632252,
images/exp2c_trial_182_colour2_distractors9_l.png,l,f,2c,182,2,9,,,,,0,121,121,35,,,,,,,,,,,,,,,,,,,,,,,,,,,,,,,,,,,,,,,,,,,,,,,,,,,,,,,,,,,,,,,,,,,,,,,,,,,,316.85579758300446,None,space,0.059986665000906214,316.85579758300446,None,316.9916690789978,None,f,1,0.5641955180035438,316.9916690789978,None,317.57270168980756,None,None,317.57270168980756,None,,2,001,2021_Nov_02_1251,searchDisc4,2021.2.3,59.95755496632252,
images/exp2b_trial_84_colour2_distractors1_l.png,l,f,2b,84,2,1,,,,,0,122,122,705,,,,,,,,,,,,,,,,,,,,,,,,,,,,,,,,,,,,,,,,,,,,,,,,,,,,,,,,,,,,,,,,,,,,,,,,,,,,317.5728367010015,None,space,0.07104945197352208,317.5728367010015,None,317.7245615150023,None,f,1,0.5194015180168208,317.7245615150023,None,318.2723511838034,None,None,318.2723511838034,None,,2,001,2021_Nov_02_1251,searchDisc4,2021.2.3,59.95755496632252,
images/exp1a_trial_111_colour1_distractors1_l.png,l,f,1a,111,1,1,,,,,0,123,123,156,,,,,,,,,,,,,,,,,,,,,,,,,,,,,,,,,,,,,,,,,,,,,,,,,,,,,,,,,,,,,,,,,,,,,,,,,,,,318.2723766010022,None,space,0.08349380799336359,318.2723766010022,None,318.4138667919906,None,f,1,0.7821290669962764,318.4138667919906,None,319.22257889180617,None,None,319.22257889180617,None,,2,001,2021_Nov_02_1251,searchDisc4,2021.2.3,59.95755496632252,
images/exp2b_trial_0_colour1_distractors1_r.png,r,j,2b,0,1,1,,,,,0,124,124,621,,,,,,,,,,,,,,,,,,,,,,,,,,,,,,,,,,,,,,,,,,,,,,,,,,,,,,,,,,,,,,,,,,,,,,,,,,,,319.2224105130008,None,space,0.06152922598994337,319.2224105130008,None,319.35795299799065,None,j,1,0.5100635419948958,319.35795299799065,None,319.88948151779766,None,None,319.88948151779766,None,,2,001,2021_Nov_02_1251,searchDisc4,2021.2.3,59.95755496632252,
images/exp2a_trial_148_colour2_distractors1_l.png,l,f,2a,148,2,1,,,,,0,125,125,577,,,,,,,,,,,,,,,,,,,,,,,,,,,,,,,,,,,,,,,,,,,,,,,,,,,,,,,,,,,,,,,,,,,,,,,,,,,,319.8895153189951,None,space,0.08234137299587019,319.8895153189951,None,320.0418020810175,None,f,1,0.5702438830048777,320.0418020810175,None,320.6391633408115,None,None,320.6391633408115,None,,2,001,2021_Nov_02_1251,searchDisc4,2021.2.3,59.95755496632252,
images/exp1b_trial_93_colour3_distractors31_l.png,l,f,1b,93,3,31,,,,,0,126,126,330,,,,,,,,,,,,,,,,,,,,,,,,,,,,,,,,,,,,,,,,,,,,,,,,,,,,,,,,,,,,,,,,,,,,,,,,,,,,320.6391482980107,None,space,0.06085388801875524,320.6391482980107,None,320.77500388098997,None,f,1,0.9331206889764871,320.77500388098997,None,321.7395545918174,None,None,321.7395545918174,None,,2,001,2021_Nov_02_1251,searchDisc4,2021.2.3,59.95755496632252,
images/exp1a_trial_64_colour1_distractors1_r.png,r,j,1a,64,1,1,,,,,0,127,127,109,,,,,,,,,,,,,,,,,,,,,,,,,,,,,,,,,,,,,,,,,,,,,,,,,,,,,,,,,,,,,,,,,,,,,,,,,,,,321.73921992300893,None,space,0.0728370499855373,321.73921992300893,None,321.89187624299666,None,j,1,0.8482154879893642,321.89187624299666,None,322.7728764158004,None,None,322.7728764158004,None,,2,001,2021_Nov_02_1251,searchDisc4,2021.2.3,59.95755496632252,
images/exp2c_trial_125_colour3_distractors31_l.png,l,f,2c,125,3,31,,,,,0,128,128,938,,,,,,,,,,,,,,,,,,,,,,,,,,,,,,,,,,,,,,,,,,,,,,,,,,,,,,,,,,,,,,,,,,,,,,,,,,,,322.77255398299894,None,space,0.03954534599324688,322.77255398299894,None,322.89165080399835,None,f,1,0.7605401279870421,322.89165080399835,None,323.6723939737916,None,None,323.6723939737916,None,,2,001,2021_Nov_02_1251,searchDisc4,2021.2.3,59.95755496632252,
images/exp2c_trial_60_colour3_distractors19_l.png,l,f,2c,60,3,19,,,,,0,129,129,873,,,,,,,,,,,,,,,,,,,,,,,,,,,,,,,,,,,,,,,,,,,,,,,,,,,,,,,,,,,,,,,,,,,,,,,,,,,,323.6728481290047,None,space,0.12330263599869795,323.6728481290047,None,323.8753783320135,None,f,1,0.7128624900069553,323.8753783320135,None,324.60590688580703,None,None,324.60590688580703,None,,2,001,2021_Nov_02_1251,searchDisc4,2021.2.3,59.95755496632252,
images/exp1a_trial_127_colour0_distractors0_l.png,l,f,1a,127,0,0,,,,,0,130,130,172,,,,,,,,,,,,,,,,,,,,,,,,,,,,,,,,,,,,,,,,,,,,,,,,,,,,,,,,,,,,,,,,,,,,,,,,,,,,324.6059950700146,None,space,0.07820078200893477,324.6059950700146,None,324.7471457160136,None,f,1,0.47312366499681957,324.7471457160136,None,325.2394568397925,None,None,325.2394568397925,None,,2,001,2021_Nov_02_1251,searchDisc4,2021.2.3,59.95755496632252,
images/exp2c_trial_130_colour1_distractors9_r.png,r,j,2c,130,1,9,,,,,0,131,131,943,,,,,,,,,,,,,,,,,,,,,,,,,,,,,,,,,,,,,,,,,,,,,,,,,,,,,,,,,,,,,,,,,,,,,,,,,,,,325.23958372999914,None,space,0.07664850799483247,325.23958372999914,None,325.39208872200106,None,j,1,0.6362310650001746,325.39208872200106,None,326.0563568938145,None,None,326.0563568938145,None,,2,001,2021_Nov_02_1251,searchDisc4,2021.2.3,59.95755496632252,
images/exp2b_trial_190_colour0_distractors0_r.png,r,j,2b,190,0,0,,,,,0,132,132,811,,,,,,,,,,,,,,,,,,,,,,,,,,,,,,,,,,,,,,,,,,,,,,,,,,,,,,,,,,,,,,,,,,,,,,,,,,,,326.05630103801377,None,space,0.05996883599436842,326.05630103801377,None,326.1918921750039,None,j,1,0.45252673799404874,326.1918921750039,None,326.67300125379404,None,None,326.67300125379404,None,,2,001,2021_Nov_02_1251,searchDisc4,2021.2.3,59.95755496632252,
images/exp1b_trial_98_colour1_distractors9_r.png,r,j,1b,98,1,9,,,,,0,133,133,335,,,,,,,,,,,,,,,,,,,,,,,,,,,,,,,,,,,,,,,,,,,,,,,,,,,,,,,,,,,,,,,,,,,,,,,,,,,,326.6728461080056,None,space,0.06744168497971259,326.6728461080056,None,326.80856266300543,None,j,1,0.6278133090236224,326.80856266300543,None,327.45547150479103,None,None,327.45547150479103,None,,2,001,2021_Nov_02_1251,searchDisc4,2021.2.3,59.95755496632252,
images/exp2c_trial_17_colour1_distractors9_l.png,l,f,2c,17,1,9,,,,,0,134,134,830,,,,,,,,,,,,,,,,,,,,,,,,,,,,,,,,,,,,,,,,,,,,,,,,,,,,,,,,,,,,,,,,,,,,,,,,,,,,327.4563419620099,None,space,0.05198841099627316,327.4563419620099,None,327.59203556200373,None,f,1,0.6123350920097437,327.59203556200373,None,328.2222958117985,None,None,328.2222958117985,None,,2,001,2021_Nov_02_1251,searchDisc4,2021.2.3,59.95755496632252,
images/exp2b_trial_102_colour2_distractors4_r.png,r,j,2b,102,2,4,,,,,0,135,135,723,,,,,,,,,,,,,,,,,,,,,,,,,,,,,,,,,,,,,,,,,,,,,,,,,,,,,,,,,,,,,,,,,,,,,,,,,,,,328.2231462660129,None,space,0.05323864601086825,328.2231462660129,None,328.35866033201455,None,j,1,0.493781217985088,328.35866033201455,None,328.8727611318085,None,None,328.8727611318085,None,,2,001,2021_Nov_02_1251,searchDisc4,2021.2.3,59.95755496632252,
images/exp2a_trial_76_colour3_distractors9_r.png,r,j,2a,76,3,9,,,,,0,136,136,505,,,,,,,,,,,,,,,,,,,,,,,,,,,,,,,,,,,,,,,,,,,,,,,,,,,,,,,,,,,,,,,,,,,,,,,,,,,,328.8730036280176,None,space,0.051407899998594075,328.8730036280176,None,328.99173307200545,None,j,1,0.6447640119877178,328.99173307200545,None,329.65580235281084,None,None,329.65580235281084,None,,2,001,2021_Nov_02_1251,searchDisc4,2021.2.3,59.95755496632252,
images/exp2b_trial_99_colour1_distractors19_r.png,r,j,2b,99,1,19,,,,,0,137,137,720,,,,,,,,,,,,,,,,,,,,,,,,,,,,,,,,,,,,,,,,,,,,,,,,,,,,,,,,,,,,,,,,,,,,,,,,,,,,329.6561827660189,None,space,0.052253936999477446,329.6561827660189,None,329.77567748201545,None,j,1,0.644835362007143,329.77567748201545,None,330.4397811987932,None,None,330.4397811987932,None,,2,001,2021_Nov_02_1251,searchDisc4,2021.2.3,59.95755496632252,
images/exp1a_trial_110_colour3_distractors31_r.png,r,j,1a,110,3,31,,,,,0,138,138,155,,,,,,,,,,,,,,,,,,,,,,,,,,,,,,,,,,,,,,,,,,,,,,,,,,,,,,,,,,,,,,,,,,,,,,,,,,,,330.43957612401573,None,space,0.05279886399512179,330.43957612401573,None,330.5755364240031,None,f,0,0.645014067995362,330.5755364240031,None,331.2397948687925,None,None,331.2397948687925,None,,2,001,2021_Nov_02_1251,searchDisc4,2021.2.3,59.95755496632252,
images/exp2c_trial_11_colour3_distractors4_r.png,r,j,2c,11,3,4,,,,,0,139,139,824,,,,,,,,,,,,,,,,,,,,,,,,,,,,,,,,,,,,,,,,,,,,,,,,,,,,,,,,,,,,,,,,,,,,,,,,,,,,331.2396233699983,None,space,0.0367693199950736,331.2396233699983,None,331.3586122209963,None,j,1,0.7259892000001855,331.3586122209963,None,332.10592251281776,None,None,332.10592251281776,None,,2,001,2021_Nov_02_1251,searchDisc4,2021.2.3,59.95755496632252,
images/exp2b_trial_59_colour3_distractors9_l.png,l,f,2b,59,3,9,,,,,0,140,140,680,,,,,,,,,,,,,,,,,,,,,,,,,,,,,,,,,,,,,,,,,,,,,,,,,,,,,,,,,,,,,,,,,,,,,,,,,,,,332.10568029101705,None,space,0.05077865702332929,332.10568029101705,None,332.22551504999865,None,f,1,0.6271137800067663,332.22551504999865,None,332.87288779479275,None,None,332.87288779479275,None,,2,001,2021_Nov_02_1251,searchDisc4,2021.2.3,59.95755496632252,
images/exp1b_trial_183_colour2_distractors19_l.png,l,f,1b,183,2,19,,,,,0,141,141,420,,,,,,,,,,,,,,,,,,,,,,,,,,,,,,,,,,,,,,,,,,,,,,,,,,,,,,,,,,,,,,,,,,,,,,,,,,,,332.87276341201505,None,space,0.04375082399928942,332.87276341201505,None,332.9921092620061,None,f,1,0.8045930160151329,332.9921092620061,None,333.8233708478132,None,None,333.8233708478132,None,,2,001,2021_Nov_02_1251,searchDisc4,2021.2.3,59.95755496632252,
images/exp2c_trial_105_colour2_distractors31_r.png,r,j,2c,105,2,31,,,,,0,142,142,918,,,,,,,,,,,,,,,,,,,,,,,,,,,,,,,,,,,,,,,,,,,,,,,,,,,,,,,,,,,,,,,,,,,,,,,,,,,,333.8232097529981,None,space,0.021460948017193004,333.8232097529981,None,333.92531804999453,None,j,1,0.4874091959791258,333.92531804999453,None,334.43976214879365,None,None,334.43976214879365,None,,2,001,2021_Nov_02_1251,searchDisc4,2021.2.3,59.95755496632252,
images/exp1b_trial_77_colour3_distractors19_r.png,r,j,1b,77,3,19,,,,,0,143,143,314,,,,,,,,,,,,,,,,,,,,,,,,,,,,,,,,,,,,,,,,,,,,,,,,,,,,,,,,,,,,,,,,,,,,,,,,,,,,334.43989771901397,None,space,0.05269524399773218,334.43989771901397,None,334.57520829499117,None,j,1,1.5654971129843034,334.57520829499117,None,336.17335946481614,None,None,336.17335946481614,None,,2,001,2021_Nov_02_1251,searchDisc4,2021.2.3,59.95755496632252,
images/exp1a_trial_40_colour2_distractors19_r.png,r,j,1a,40,2,19,,,,,0,144,144,85,,,,,,,,,,,,,,,,,,,,,,,,,,,,,,,,,,,,,,,,,,,,,,,,,,,,,,,,,,,,,,,,,,,,,,,,,,,,336.1727104689926,None,space,0.04801518499152735,336.1727104689926,None,336.29223679500865,None,j,1,0.816598236997379,336.29223679500865,None,337.1400542278046,None,None,337.1400542278046,None,,2,001,2021_Nov_02_1251,searchDisc4,2021.2.3,59.95755496632252,
images/exp2c_trial_84_colour2_distractors1_l.png,l,f,2c,84,2,1,,,,,0,145,145,897,,,,,,,,,,,,,,,,,,,,,,,,,,,,,,,,,,,,,,,,,,,,,,,,,,,,,,,,,,,,,,,,,,,,,,,,,,,,337.1400191010034,None,space,0.04877236299216747,337.1400191010034,None,337.25893662899034,None,f,1,0.5539489779912401,337.25893662899034,None,337.84001926780036,None,None,337.84001926780036,None,,2,001,2021_Nov_02_1251,searchDisc4,2021.2.3,59.95755496632252,
images/exp1a_trial_28_colour3_distractors19_l.png,l,f,1a,28,3,19,,,,,0,146,146,73,,,,,,,,,,,,,,,,,,,,,,,,,,,,,,,,,,,,,,,,,,,,,,,,,,,,,,,,,,,,,,,,,,,,,,,,,,,,337.8397812579933,None,space,0.10902591102058068,337.8397812579933,None,338.02555520500755,None,f,1,0.5312443459988572,338.02555520500755,None,338.59004398780814,None,None,338.59004398780814,None,,2,001,2021_Nov_02_1251,searchDisc4,2021.2.3,59.95755496632252,
images/exp2a_trial_79_colour1_distractors1_l.png,l,f,2a,79,1,1,,,,,0,147,147,508,,,,,,,,,,,,,,,,,,,,,,,,,,,,,,,,,,,,,,,,,,,,,,,,,,,,,,,,,,,,,,,,,,,,,,,,,,,,338.58949079201557,None,space,0.07935770400217734,338.58949079201557,None,338.7422627439955,None,f,1,0.6386611539928708,338.7422627439955,None,339.406973358817,None,None,339.406973358817,None,,2,001,2021_Nov_02_1251,searchDisc4,2021.2.3,59.95755496632252,
images/exp1b_trial_72_colour2_distractors19_r.png,r,j,1b,72,2,19,,,,,0,148,148,309,,,,,,,,,,,,,,,,,,,,,,,,,,,,,,,,,,,,,,,,,,,,,,,,,,,,,,,,,,,,,,,,,,,,,,,,,,,,339.40672657001414,None,space,0.0781541210017167,339.40672657001414,None,339.558936824993,None,j,1,0.8620660930173472,339.558936824993,None,340.4402143628016,None,None,340.4402143628016,None,,2,001,2021_Nov_02_1251,searchDisc4,2021.2.3,59.95755496632252,
images/exp2c_trial_55_colour2_distractors19_l.png,l,f,2c,55,2,19,,,,,0,149,149,868,,,,,,,,,,,,,,,,,,,,,,,,,,,,,,,,,,,,,,,,,,,,,,,,,,,,,,,,,,,,,,,,,,,,,,,,,,,,340.43936062499415,None,space,0.04556987201794982,340.43936062499415,None,340.559154513001,None,f,1,0.7018820469966158,340.559154513001,None,341.2902699368045,None,None,341.2902699368045,None,,2,001,2021_Nov_02_1251,searchDisc4,2021.2.3,59.95755496632252,
images/exp1b_trial_181_colour2_distractors4_l.png,l,f,1b,181,2,4,,,,,0,150,150,418,,,,,,,,,,,,,,,,,,,,,,,,,,,,,,,,,,,,,,,,,,,,,,,,,,,,,,,,,,,,,,,,,,,,,,,,,,,,341.29035853999085,None,space,0.05862695400719531,341.29035853999085,None,341.42560976100503,None,f,1,0.7954681680130307,341.42560976100503,None,342.24026942979833,None,None,342.24026942979833,None,,2,001,2021_Nov_02_1251,searchDisc4,2021.2.3,59.95755496632252,
images/exp2a_trial_147_colour1_distractors31_l.png,l,f,2a,147,1,31,,,,,0,151,151,576,,,,,,,,,,,,,,,,,,,,,,,,,,,,,,,,,,,,,,,,,,,,,,,,,,,,,,,,,,,,,,,,,,,,,,,,,,,,342.2401021400001,None,space,0.08488418700289913,342.2401021400001,None,342.3902512520144,None,f,1,0.6468629039882217,342.3902512520144,None,343.0562358767987,None,None,343.0562358767987,None,,2,001,2021_Nov_02_1251,searchDisc4,2021.2.3,59.95755496632252,
images/exp1a_trial_165_colour2_distractors1_r.png,r,j,1a,165,2,1,,,,,0,152,152,210,,,,,,,,,,,,,,,,,,,,,,,,,,,,,,,,,,,,,,,,,,,,,,,,,,,,,,,,,,,,,,,,,,,,,,,,,,,,343.0564378570125,None,space,0.10069097799714655,343.0564378570125,None,343.214446227008,None,j,1,0.5826991939975414,343.214446227008,None,343.82360660379925,None,None,343.82360660379925,None,,2,001,2021_Nov_02_1251,searchDisc4,2021.2.3,59.95755496632252,
images/exp1b_trial_102_colour2_distractors4_r.png,r,j,1b,102,2,4,,,,,0,153,153,339,,,,,,,,,,,,,,,,,,,,,,,,,,,,,,,,,,,,,,,,,,,,,,,,,,,,,,,,,,,,,,,,,,,,,,,,,,,,343.8233819339948,None,space,0.05371908299275674,343.8233819339948,None,343.94766843901016,None,j,1,0.5615296439791564,343.94766843901016,None,344.54036465079696,None,None,344.54036465079696,None,,2,001,2021_Nov_02_1251,searchDisc4,2021.2.3,59.95755496632252,
images/exp2c_trial_161_colour1_distractors4_r.png,r,j,2c,161,1,4,,,,,0,154,154,14,,,,,,,,,,,,,,,,,,,,,,,,,,,,,,,,,,,,,,,,,,,,,,,,,,,,,,,,,,,,,,,,,,,,,,,,,,,,344.5395371800114,None,space,0.049585361004574224,344.5395371800114,None,344.65907148399856,None,j,1,0.5301108499988914,344.65907148399856,None,345.20677693580217,None,None,345.20677693580217,None,,2,001,2021_Nov_02_1251,searchDisc4,2021.2.3,59.95755496632252,
images/exp2a_trial_176_colour1_distractors4_l.png,l,f,2a,176,1,4,,,,,0,155,155,605,,,,,,,,,,,,,,,,,,,,,,,,,,,,,,,,,,,,,,,,,,,,,,,,,,,,,,,,,,,,,,,,,,,,,,,,,,,,345.20694233701215,None,space,0.06221425498370081,345.20694233701215,None,345.3305453149951,None,f,1,0.6187104099954013,345.3305453149951,None,345.9736408658122,None,None,345.9736408658122,None,,2,001,2021_Nov_02_1251,searchDisc4,2021.2.3,59.95755496632252,
images/exp2b_trial_72_colour2_distractors19_r.png,r,j,2b,72,2,19,,,,,0,156,156,693,,,,,,,,,,,,,,,,,,,,,,,,,,,,,,,,,,,,,,,,,,,,,,,,,,,,,,,,,,,,,,,,,,,,,,,,,,,,345.97338390600635,None,space,0.08779287201468833,345.97338390600635,None,346.1425741419953,None,j,1,0.5186852820042986,346.1425741419953,None,346.6903429048165,None,None,346.6903429048165,None,,2,001,2021_Nov_02_1251,searchDisc4,2021.2.3,59.95755496632252,
images/exp2a_trial_5_colour2_distractors1_r.png,r,j,2a,5,2,1,,,,,0,157,157,434,,,,,,,,,,,,,,,,,,,,,,,,,,,,,,,,,,,,,,,,,,,,,,,,,,,,,,,,,,,,,,,,,,,,,,,,,,,,346.68964649600093,None,space,0.06757326002116315,346.68964649600093,None,346.82493364601396,None,j,1,0.4683397180051543,346.82493364601396,None,347.3238030687993,None,None,347.3238030687993,None,,2,001,2021_Nov_02_1251,searchDisc4,2021.2.3,59.95755496632252,
images/exp1a_trial_184_colour2_distractors31_l.png,l,f,1a,184,2,31,,,,,0,158,158,229,,,,,,,,,,,,,,,,,,,,,,,,,,,,,,,,,,,,,,,,,,,,,,,,,,,,,,,,,,,,,,,,,,,,,,,,,,,,347.32362152499263,None,space,0.06552387197734788,347.32362152499263,None,347.45922326800064,None,f,1,0.6100756179948803,347.45922326800064,None,348.0895925027929,None,None,348.0895925027929,None,,2,001,2021_Nov_02_1251,searchDisc4,2021.2.3,59.95755496632252,
images/exp2b_trial_138_colour3_distractors1_r.png,r,j,2b,138,3,1,,,,,0,159,159,759,,,,,,,,,,,,,,,,,,,,,,,,,,,,,,,,,,,,,,,,,,,,,,,,,,,,,,,,,,,,,,,,,,,,,,,,,,,,348.0900276240136,None,space,0.7392509460041765,348.0900276240136,None,348.90949378101504,None,j,1,0.5038810750120319,348.90949378101504,None,349.44055421879455,None,None,349.44055421879455,None,,2,001,2021_Nov_02_1251,searchDisc4,2021.2.3,59.95755496632252,
images/exp1b_trial_7_colour2_distractors9_r.png,r,j,1b,7,2,9,,,,,0,160,160,244,,,,,,,,,,,,,,,,,,,,,,,,,,,,,,,,,,,,,,,,,,,,,,,,,,,,,,,,,,,,,,,,,,,,,,,,,,,,349.43961685700924,None,space,0.04568722101976164,349.43961685700924,None,349.5487182160141,None,j,1,0.4966159960022196,349.5487182160141,None,350.07388375381413,None,None,350.07388375381413,None,,2,001,2021_Nov_02_1251,searchDisc4,2021.2.3,59.95755496632252,
images/exp1a_trial_96_colour1_distractors1_r.png,r,j,1a,96,1,1,,,,,0,161,161,141,,,,,,,,,,,,,,,,,,,,,,,,,,,,,,,,,,,,,,,,,,,,,,,,,,,,,,,,,,,,,,,,,,,,,,,,,,,,350.07391285701306,None,space,0.05137800201191567,350.07391285701306,None,350.1975160900038,None,j,1,0.8319192409981042,350.1975160900038,None,351.0571860468102,None,None,351.0571860468102,None,,2,001,2021_Nov_02_1251,searchDisc4,2021.2.3,59.95755496632252,
images/exp2a_trial_178_colour1_distractors19_l.png,l,f,2a,178,1,19,,,,,0,162,162,607,,,,,,,,,,,,,,,,,,,,,,,,,,,,,,,,,,,,,,,,,,,,,,,,,,,,,,,,,,,,,,,,,,,,,,,,,,,,351.0562092140026,None,space,0.02917846798663959,351.0562092140026,None,351.1594539840007,None,f,1,0.6620751150185242,351.1594539840007,None,351.8395543128048,None,None,351.8395543128048,None,,2,001,2021_Nov_02_1251,searchDisc4,2021.2.3,59.95755496632252,
images/exp2b_trial_8_colour2_distractors19_r.png,r,j,2b,8,2,19,,,,,0,163,163,629,,,,,,,,,,,,,,,,,,,,,,,,,,,,,,,,,,,,,,,,,,,,,,,,,,,,,,,,,,,,,,,,,,,,,,,,,,,,351.8404321350099,None,space,0.060997247986961156,351.8404321350099,None,351.97605251299683,None,j,1,0.5413947649940383,351.97605251299683,None,352.54006510081524,None,None,352.54006510081524,None,,2,001,2021_Nov_02_1251,searchDisc4,2021.2.3,59.95755496632252,
images/exp1a_trial_76_colour3_distractors9_r.png,r,j,1a,76,3,9,,,,,0,164,164,121,,,,,,,,,,,,,,,,,,,,,,,,,,,,,,,,,,,,,,,,,,,,,,,,,,,,,,,,,,,,,,,,,,,,,,,,,,,,352.53989104999346,None,space,0.033531838009366766,352.53989104999346,None,352.64256340501015,None,f,0,0.5148823619820178,352.64256340501015,None,353.1904996768193,None,None,353.1904996768193,None,,2,001,2021_Nov_02_1251,searchDisc4,2021.2.3,59.95755496632252,
images/exp1a_trial_101_colour2_distractors1_r.png,r,j,1a,101,2,1,,,,,0,165,165,146,,,,,,,,,,,,,,,,,,,,,,,,,,,,,,,,,,,,,,,,,,,,,,,,,,,,,,,,,,,,,,,,,,,,,,,,,,,,353.1899771070166,None,space,0.07953421300044283,353.1899771070166,None,353.33091028401395,None,j,1,0.6265690880245529,353.33091028401395,None,353.9904984898079,None,None,353.9904984898079,None,,2,001,2021_Nov_02_1251,searchDisc4,2021.2.3,59.95755496632252,
images/exp2a_trial_0_colour1_distractors1_r.png,r,j,2a,0,1,1,,,,,0,166,166,429,,,,,,,,,,,,,,,,,,,,,,,,,,,,,,,,,,,,,,,,,,,,,,,,,,,,,,,,,,,,,,,,,,,,,,,,,,,,353.98995168399415,None,space,0.03161777902278118,353.98995168399415,None,354.09265095199225,None,j,1,0.6570041759987362,354.09265095199225,None,354.7738555038144,None,None,354.7738555038144,None,,2,001,2021_Nov_02_1251,searchDisc4,2021.2.3,59.95755496632252,
images/exp2c_trial_168_colour2_distractors19_r.png,r,j,2c,168,2,19,,,,,0,167,167,21,,,,,,,,,,,,,,,,,,,,,,,,,,,,,,,,,,,,,,,,,,,,,,,,,,,,,,,,,,,,,,,,,,,,,,,,,,,,354.7737984510022,None,space,0.03179843901307322,354.7737984510022,None,354.87533777501085,None,j,1,0.6343381939805113,354.87533777501085,None,355.5405080158001,None,None,355.5405080158001,None,,2,001,2021_Nov_02_1251,searchDisc4,2021.2.3,59.95755496632252,
images/exp2c_trial_176_colour1_distractors4_l.png,l,f,2c,176,1,4,,,,,0,168,168,29,,,,,,,,,,,,,,,,,,,,,,,,,,,,,,,,,,,,,,,,,,,,,,,,,,,,,,,,,,,,,,,,,,,,,,,,,,,,355.5402364410111,None,space,0.04930562499794178,355.5402364410111,None,355.65928119499586,None,f,1,0.5784291790041607,355.65928119499586,None,356.25680136580775,None,None,356.25680136580775,None,,2,001,2021_Nov_02_1251,searchDisc4,2021.2.3,59.95755496632252,
images/exp1b_trial_5_colour2_distractors1_r.png,r,j,1b,5,2,1,,,,,0,169,169,242,,,,,,,,,,,,,,,,,,,,,,,,,,,,,,,,,,,,,,,,,,,,,,,,,,,,,,,,,,,,,,,,,,,,,,,,,,,,356.25703825999517,None,space,0.028613914997549728,356.25703825999517,None,356.3482373190054,None,j,1,0.7375153029861394,356.3482373190054,None,357.1072080888174,None,None,357.1072080888174,None,,2,001,2021_Nov_02_1251,searchDisc4,2021.2.3,59.95755496632252,
images/exp2c_trial_118_colour2_distractors9_l.png,l,f,2c,118,2,9,,,,,0,170,170,931,,,,,,,,,,,,,,,,,,,,,,,,,,,,,,,,,,,,,,,,,,,,,,,,,,,,,,,,,,,,,,,,,,,,,,,,,,,,357.1064496609906,None,space,0.04322297000908293,357.1064496609906,None,357.22641233101604,None,f,1,0.5793343299883418,357.22641233101604,None,357.82363360179295,None,None,357.82363360179295,None,,2,001,2021_Nov_02_1251,searchDisc4,2021.2.3,59.95755496632252,
images/exp1b_trial_37_colour2_distractors1_r.png,r,j,1b,37,2,1,,,,,0,171,171,274,,,,,,,,,,,,,,,,,,,,,,,,,,,,,,,,,,,,,,,,,,,,,,,,,,,,,,,,,,,,,,,,,,,,,,,,,,,,357.8235269750003,None,space,0.07011854799930006,357.8235269750003,None,357.9650956870173,None,j,1,0.7367247359943576,357.9650956870173,None,358.72342867080295,None,None,358.72342867080295,None,,2,001,2021_Nov_02_1251,searchDisc4,2021.2.3,59.95755496632252,
images/exp2a_trial_91_colour3_distractors9_l.png,l,f,2a,91,3,9,,,,,0,172,172,520,,,,,,,,,,,,,,,,,,,,,,,,,,,,,,,,,,,,,,,,,,,,,,,,,,,,,,,,,,,,,,,,,,,,,,,,,,,,358.72331656399183,None,space,0.6264674130070489,358.72331656399183,None,359.4261511650111,None,f,1,0.5476658339903224,359.4261511650111,None,359.990877437804,None,None,359.990877437804,None,,2,001,2021_Nov_02_1251,searchDisc4,2021.2.3,59.95755496632252,
images/exp1b_trial_120_colour2_distractors31_l.png,l,f,1b,120,2,31,,,,,0,173,173,357,,,,,,,,,,,,,,,,,,,,,,,,,,,,,,,,,,,,,,,,,,,,,,,,,,,,,,,,,,,,,,,,,,,,,,,,,,,,359.9908551709959,None,space,0.054977516003418714,359.9908551709959,None,360.1261606650078,None,f,1,0.7357752329844516,360.1261606650078,None,360.89063837180436,None,None,360.89063837180436,None,,2,001,2021_Nov_02_1251,searchDisc4,2021.2.3,59.95755496632252,
images/exp2b_trial_54_colour2_distractors9_l.png,l,f,2b,54,2,9,,,,,0,174,174,675,,,,,,,,,,,,,,,,,,,,,,,,,,,,,,,,,,,,,,,,,,,,,,,,,,,,,,,,,,,,,,,,,,,,,,,,,,,,360.8905416020134,None,space,0.05934328300645575,360.8905416020134,None,361.02596578601515,None,f,1,0.5399931989959441,361.02596578601515,None,361.59078890980743,None,None,361.59078890980743,None,,2,001,2021_Nov_02_1251,searchDisc4,2021.2.3,59.95755496632252,
images/exp1a_trial_141_colour3_distractors19_r.png,r,j,1a,141,3,19,,,,,0,175,175,186,,,,,,,,,,,,,,,,,,,,,,,,,,,,,,,,,,,,,,,,,,,,,,,,,,,,,,,,,,,,,,,,,,,,,,,,,,,,361.59013793600025,None,space,0.03975796501617879,361.59013793600025,None,361.70953317699605,None,j,1,0.6404726600158028,361.70953317699605,None,362.3736996847932,None,None,362.3736996847932,None,,2,001,2021_Nov_02_1251,searchDisc4,2021.2.3,59.95755496632252,
images/exp2b_trial_24_colour2_distractors31_l.png,l,f,2b,24,2,31,,,,,0,176,176,645,,,,,,,,,,,,,,,,,,,,,,,,,,,,,,,,,,,,,,,,,,,,,,,,,,,,,,,,,,,,,,,,,,,,,,,,,,,,362.3735678399971,None,space,0.05635976302437484,362.3735678399971,None,362.50946772200405,None,j,0,0.6804923909949139,362.50946772200405,None,363.20755030379803,None,None,363.20755030379803,None,,2,001,2021_Nov_02_1251,searchDisc4,2021.2.3,59.95755496632252,
images/exp2a_trial_101_colour2_distractors1_r.png,r,j,2a,101,2,1,,,,,0,177,177,530,,,,,,,,,,,,,,,,,,,,,,,,,,,,,,,,,,,,,,,,,,,,,,,,,,,,,,,,,,,,,,,,,,,,,,,,,,,,363.20773388899397,None,space,0.06223757698899135,363.20773388899397,None,363.3309074160061,None,j,1,0.8111114170169458,363.3309074160061,None,364.1741389788134,None,None,364.1741389788134,None,,2,001,2021_Nov_02_1251,searchDisc4,2021.2.3,59.95755496632252,
images/exp2b_trial_88_colour2_distractors31_l.png,l,f,2b,88,2,31,,,,,0,178,178,709,,,,,,,,,,,,,,,,,,,,,,,,,,,,,,,,,,,,,,,,,,,,,,,,,,,,,,,,,,,,,,,,,,,,,,,,,,,,364.17400368701783,None,space,0.015931854984955862,364.17400368701783,None,364.25760247799917,None,f,1,0.5644461310002953,364.25760247799917,None,364.83997311680866,None,None,364.83997311680866,None,,2,001,2021_Nov_02_1251,searchDisc4,2021.2.3,59.95755496632252,
images/exp1a_trial_10_colour3_distractors1_r.png,r,j,1a,10,3,1,,,,,0,179,179,55,,,,,,,,,,,,,,,,,,,,,,,,,,,,,,,,,,,,,,,,,,,,,,,,,,,,,,,,,,,,,,,,,,,,,,,,,,,,364.8408068570134,None,space,0.053173941996647045,364.8408068570134,None,364.97640407600557,None,f,0,0.901766561990371,364.97640407600557,None,365.90752775579165,None,None,365.90752775579165,None,,2,001,2021_Nov_02_1251,searchDisc4,2021.2.3,59.95755496632252,
images/exp2b_trial_74_colour3_distractors1_r.png,r,j,2b,74,3,1,,,,,0,180,180,695,,,,,,,,,,,,,,,,,,,,,,,,,,,,,,,,,,,,,,,,,,,,,,,,,,,,,,,,,,,,,,,,,,,,,,,,,,,,365.9074871810153,None,space,0.026607874024193734,365.9074871810153,None,366.0099989550072,None,j,1,1.1722173689922784,366.0099989550072,None,367.2075351798179,None,None,367.2075351798179,None,,2,001,2021_Nov_02_1251,searchDisc4,2021.2.3,59.95755496632252,
images/exp1a_trial_39_colour2_distractors9_r.png,r,j,1a,39,2,9,,,,,0,181,181,84,,,,,,,,,,,,,,,,,,,,,,,,,,,,,,,,,,,,,,,,,,,,,,,,,,,,,,,,,,,,,,,,,,,,,,,,,,,,367.2071303850098,None,space,0.06303385898354463,367.2071303850098,None,367.343204742996,None,j,1,0.9829497110040393,367.343204742996,None,368.3574989708053,None,None,368.3574989708053,None,,2,001,2021_Nov_02_1251,searchDisc4,2021.2.3,59.95755496632252,
images/exp2c_trial_126_colour0_distractors0_r.png,r,j,2c,126,0,0,,,,,0,182,182,939,,,,,,,,,,,,,,,,,,,,,,,,,,,,,,,,,,,,,,,,,,,,,,,,,,,,,,,,,,,,,,,,,,,,,,,,,,,,368.35762904401054,None,space,0.024591247987700626,368.35762904401054,None,368.460088369,None,j,1,0.6022137999825645,368.460088369,None,369.0908969167998,None,None,369.0908969167998,None,,2,001,2021_Nov_02_1251,searchDisc4,2021.2.3,59.95755496632252,
images/exp2c_trial_180_colour2_distractors1_l.png,l,f,2c,180,2,1,,,,,0,183,183,33,,,,,,,,,,,,,,,,,,,,,,,,,,,,,,,,,,,,,,,,,,,,,,,,,,,,,,,,,,,,,,,,,,,,,,,,,,,,369.090876080998,None,space,0.04335491202073172,369.090876080998,None,369.1964486890065,None,f,1,0.657894142990699,369.1964486890065,None,369.87351143679405,None,None,369.87351143679405,None,,2,001,2021_Nov_02_1251,searchDisc4,2021.2.3,59.95755496632252,
images/exp1a_trial_92_colour3_distractors19_l.png,l,f,1a,92,3,19,,,,,0,184,184,137,,,,,,,,,,,,,,,,,,,,,,,,,,,,,,,,,,,,,,,,,,,,,,,,,,,,,,,,,,,,,,,,,,,,,,,,,,,,369.8738943460048,None,space,0.028393975022481754,369.8738943460048,None,369.97659550301614,None,f,1,0.6456710420025047,369.97659550301614,None,370.6400761578028,None,None,370.6400761578028,None,,2,001,2021_Nov_02_1251,searchDisc4,2021.2.3,59.95755496632252,
images/exp1b_trial_32_colour1_distractors1_r.png,r,j,1b,32,1,1,,,,,0,185,185,269,,,,,,,,,,,,,,,,,,,,,,,,,,,,,,,,,,,,,,,,,,,,,,,,,,,,,,,,,,,,,,,,,,,,,,,,,,,,370.64092104299925,None,space,0.07740591501351446,370.64092104299925,None,370.79316500001005,None,j,1,0.6452541829785332,370.79316500001005,None,371.4575202547916,None,None,371.4575202547916,None,,2,001,2021_Nov_02_1251,searchDisc4,2021.2.3,59.95755496632252,
images/exp1b_trial_156_colour3_distractors19_l.png,l,f,1b,156,3,19,,,,,0,186,186,393,,,,,,,,,,,,,,,,,,,,,,,,,,,,,,,,,,,,,,,,,,,,,,,,,,,,,,,,,,,,,,,,,,,,,,,,,,,,371.45773943400127,None,space,0.020604207005817443,371.45773943400127,None,371.5597835270164,None,f,1,1.03058928300743,371.5597835270164,None,372.60763043580516,None,None,372.60763043580516,None,,2,001,2021_Nov_02_1251,searchDisc4,2021.2.3,59.95755496632252,
images/exp1a_trial_115_colour1_distractors31_l.png,l,f,1a,115,1,31,,,,,0,187,187,160,,,,,,,,,,,,,,,,,,,,,,,,,,,,,,,,,,,,,,,,,,,,,,,,,,,,,,,,,,,,,,,,,,,,,,,,,,,,372.6076141440135,None,space,0.038780770992161706,372.6076141440135,None,372.72656102399924,None,f,1,1.439991054998245,372.72656102399924,None,374.1911344498134,None,None,374.1911344498134,None,,2,001,2021_Nov_02_1251,searchDisc4,2021.2.3,59.95755496632252,
images/exp1b_trial_30_colour0_distractors0_r.png,r,j,1b,30,0,0,,,,,0,188,188,267,,,,,,,,,,,,,,,,,,,,,,,,,,,,,,,,,,,,,,,,,,,,,,,,,,,,,,,,,,,,,,,,,,,,,,,,,,,,374.19109365099575,None,space,0.09540009999182075,374.19109365099575,None,374.36009187201853,None,j,1,0.5744514399848413,374.36009187201853,None,374.9572608348011,None,None,374.9572608348011,None,,2,001,2021_Nov_02_1251,searchDisc4,2021.2.3,59.95755496632252,
images/exp2c_trial_79_colour1_distractors1_l.png,l,f,2c,79,1,1,,,,,0,189,189,892,,,,,,,,,,,,,,,,,,,,,,,,,,,,,,,,,,,,,,,,,,,,,,,,,,,,,,,,,,,,,,,,,,,,,,,,,,,,374.9572106979904,None,space,0.033193387993378565,374.9572106979904,None,375.04848694900284,None,f,1,1.2301217160129454,375.04848694900284,None,376.3078167808038,None,None,376.3078167808038,None,,2,001,2021_Nov_02_1251,searchDisc4,2021.2.3,59.95755496632252,
images/exp2c_trial_165_colour2_distractors1_r.png,r,j,2c,165,2,1,,,,,0,190,190,18,,,,,,,,,,,,,,,,,,,,,,,,,,,,,,,,,,,,,,,,,,,,,,,,,,,,,,,,,,,,,,,,,,,,,,,,,,,,376.30705099200713,None,space,0.051489567005774006,376.30705099200713,None,376.42666348599596,None,j,1,0.7638985410158057,376.42666348599596,None,377.207883730813,None,None,377.207883730813,None,,2,001,2021_Nov_02_1251,searchDisc4,2021.2.3,59.95755496632252,
images/exp1b_trial_138_colour3_distractors1_r.png,r,j,1b,138,3,1,,,,,0,191,191,375,,,,,,,,,,,,,,,,,,,,,,,,,,,,,,,,,,,,,,,,,,,,,,,,,,,,,,,,,,,,,,,,,,,,,,,,,,,,377.2078085860121,None,space,0.20682694698916748,377.2078085860121,None,377.4933901890181,None,j,1,0.6652499600022566,377.4933901890181,None,378.191074972818,None,None,378.191074972818,None,,2,001,2021_Nov_02_1251,searchDisc4,2021.2.3,59.95755496632252,
images/exp1b_trial_42_colour3_distractors1_r.png,r,j,1b,42,3,1,,,,,0,192,192,279,,,,,,,,,,,,,,,,,,,,,,,,,,,,,,,,,,,,,,,,,,,,,,,,,,,,,,,,,,,,,,,,,,,,,,,,,,,,378.190788005013,None,space,0.039879931980976835,378.190788005013,None,378.310086759011,None,j,1,0.6086392000142951,378.310086759011,None,378.9411823417962,None,None,378.9411823417962,None,,2,001,2021_Nov_02_1251,searchDisc4,2021.2.3,59.95755496632252,
images/exp1a_trial_23_colour2_distractors19_l.png,l,f,1a,23,2,19,,,,,0,193,193,68,,,,,,,,,,,,,,,,,,,,,,,,,,,,,,,,,,,,,,,,,,,,,,,,,,,,,,,,,,,,,,,,,,,,,,,,,,,,378.9410247110063,None,space,0.03363988900673576,378.9410247110063,None,379.06006296601845,None,f,1,0.6026964289776515,379.06006296601845,None,379.6912962068076,None,None,379.6912962068076,None,,2,001,2021_Nov_02_1251,searchDisc4,2021.2.3,59.95755496632252,
images/exp1a_trial_133_colour2_distractors1_r.png,r,j,1a,133,2,1,,,,,0,194,194,178,,,,,,,,,,,,,,,,,,,,,,,,,,,,,,,,,,,,,,,,,,,,,,,,,,,,,,,,,,,,,,,,,,,,,,,,,,,,379.6915732870111,None,space,0.0911395939765498,379.6915732870111,None,379.8600206320116,None,f,0,0.6267907439905684,379.8600206320116,None,380.50711766181337,None,None,380.50711766181337,None,,2,001,2021_Nov_02_1251,searchDisc4,2021.2.3,59.95755496632252,
images/exp2b_trial_71_colour2_distractors9_r.png,r,j,2b,71,2,9,,,,,0,195,195,692,,,,,,,,,,,,,,,,,,,,,,,,,,,,,,,,,,,,,,,,,,,,,,,,,,,,,,,,,,,,,,,,,,,,,,,,,,,,380.50788993301103,None,space,0.17085428201244213,380.50788993301103,None,380.76016299199546,None,j,1,0.6787155300262384,380.76016299199546,None,381.45814425980495,None,None,381.45814425980495,None,,2,001,2021_Nov_02_1251,searchDisc4,2021.2.3,59.95755496632252,
images/exp2c_trial_46_colour3_distractors31_r.png,r,j,2c,46,3,31,,,,,0,196,196,859,,,,,,,,,,,,,,,,,,,,,,,,,,,,,,,,,,,,,,,,,,,,,,,,,,,,,,,,,,,,,,,,,,,,,,,,,,,,381.457390340016,None,space,0.05333989200880751,381.457390340016,None,381.5935227370064,None,j,1,0.925380258995574,381.5935227370064,None,382.54137101480444,None,None,382.54137101480444,None,,2,001,2021_Nov_02_1251,searchDisc4,2021.2.3,59.95755496632252,
images/exp1b_trial_172_colour3_distractors9_r.png,r,j,1b,172,3,9,,,,,0,197,197,409,,,,,,,,,,,,,,,,,,,,,,,,,,,,,,,,,,,,,,,,,,,,,,,,,,,,,,,,,,,,,,,,,,,,,,,,,,,,382.5411793960084,None,space,0.04167037102160975,382.5411793960084,None,382.6601592620136,None,j,1,0.7947926939814351,382.6601592620136,None,383.4742801537999,None,None,383.4742801537999,None,,2,001,2021_Nov_02_1251,searchDisc4,2021.2.3,59.95755496632252,
images/exp1a_trial_121_colour3_distractors1_l.png,l,f,1a,121,3,1,,,,,0,198,198,166,,,,,,,,,,,,,,,,,,,,,,,,,,,,,,,,,,,,,,,,,,,,,,,,,,,,,,,,,,,,,,,,,,,,,,,,,,,,383.4744765869982,None,space,0.036409215012099594,383.4744765869982,None,383.5819980830129,None,j,0,0.6569970919808839,383.5819980830129,None,384.2581604297942,None,None,384.2581604297942,None,,2,001,2021_Nov_02_1251,searchDisc4,2021.2.3,59.95755496632252,
images/exp2c_trial_129_colour1_distractors4_r.png,r,j,2c,129,1,4,,,,,0,199,199,942,,,,,,,,,,,,,,,,,,,,,,,,,,,,,,,,,,,,,,,,,,,,,,,,,,,,,,,,,,,,,,,,,,,,,,,,,,,,384.2579898519907,None,space,0.604971888998989,384.2579898519907,None,384.9438407320122,None,j,1,0.6391220850055106,384.9438407320122,None,385.60785245079603,None,None,385.60785245079603,None,,2,001,2021_Nov_02_1251,searchDisc4,2021.2.3,59.95755496632252,
images/exp1b_trial_91_colour3_distractors9_l.png,l,f,1b,91,3,9,,,,,0,200,200,328,,,,,,,,,,,,,,,,,,,,,,,,,,,,,,,,,,,,,,,,,,,,,,,,,,,,,,,,,,,,,,,,,,,,,,,,,,,,385.60733621401596,None,space,0.08762861898867413,385.60733621401596,None,385.77690289201564,None,f,1,0.9422083180106711,385.77690289201564,None,386.7414413108112,None,None,386.7414413108112,None,,2,001,2021_Nov_02_1251,searchDisc4,2021.2.3,59.95755496632252,
images/exp1b_trial_106_colour3_distractors1_r.png,r,j,1b,106,3,1,,,,,0,201,201,343,,,,,,,,,,,,,,,,,,,,,,,,,,,,,,,,,,,,,,,,,,,,,,,,,,,,,,,,,,,,,,,,,,,,,,,,,,,,386.74172128000646,None,space,0.049212706013349816,386.74172128000646,None,386.8476691020187,None,j,1,0.7994789270160254,386.8476691020187,None,387.6741398388025,None,None,387.6741398388025,None,,2,001,2021_Nov_02_1251,searchDisc4,2021.2.3,59.95755496632252,
images/exp2b_trial_60_colour3_distractors19_l.png,l,f,2b,60,3,19,,,,,0,202,202,681,,,,,,,,,,,,,,,,,,,,,,,,,,,,,,,,,,,,,,,,,,,,,,,,,,,,,,,,,,,,,,,,,,,,,,,,,,,,387.6747714400117,None,space,0.7722439699864481,387.6747714400117,None,388.52704041000106,None,f,1,0.7201852500147652,388.52704041000106,None,389.2748646298045,None,None,389.2748646298045,None,,2,001,2021_Nov_02_1251,searchDisc4,2021.2.3,59.95755496632252,
images/exp2a_trial_171_colour3_distractors4_r.png,r,j,2a,171,3,4,,,,,0,203,203,600,,,,,,,,,,,,,,,,,,,,,,,,,,,,,,,,,,,,,,,,,,,,,,,,,,,,,,,,,,,,,,,,,,,,,,,,,,,,389.2747696360166,None,space,0.08440065698232502,389.2747696360166,None,389.42704807501286,None,j,1,0.5641446300141979,389.42704807501286,None,390.0079687898018,None,None,390.0079687898018,None,,2,001,2021_Nov_02_1251,searchDisc4,2021.2.3,59.95755496632252,
images/exp2a_trial_137_colour2_distractors31_r.png,r,j,2a,137,2,31,,,,,0,204,204,566,,,,,,,,,,,,,,,,,,,,,,,,,,,,,,,,,,,,,,,,,,,,,,,,,,,,,,,,,,,,,,,,,,,,,,,,,,,,390.0081142669951,None,space,0.07910096799605526,390.0081142669951,None,390.16025646199705,None,j,1,0.5190457529970445,390.16025646199705,None,390.7083149698068,None,None,390.7083149698068,None,,2,001,2021_Nov_02_1251,searchDisc4,2021.2.3,59.95755496632252,
images/exp2a_trial_59_colour3_distractors9_l.png,l,f,2a,59,3,9,,,,,0,205,205,488,,,,,,,,,,,,,,,,,,,,,,,,,,,,,,,,,,,,,,,,,,,,,,,,,,,,,,,,,,,,,,,,,,,,,,,,,,,,390.7084604650154,None,space,0.0666725680057425,390.7084604650154,None,390.84296948299743,None,f,1,0.620348066004226,390.84296948299743,None,391.4916463417961,None,None,391.4916463417961,None,,2,001,2021_Nov_02_1251,searchDisc4,2021.2.3,59.95755496632252,
images/exp1a_trial_100_colour1_distractors31_r.png,r,j,1a,100,1,31,,,,,0,206,206,145,,,,,,,,,,,,,,,,,,,,,,,,,,,,,,,,,,,,,,,,,,,,,,,,,,,,,,,,,,,,,,,,,,,,,,,,,,,,391.4914344600111,None,space,0.051753534004092216,391.4914344600111,None,391.62658104801085,None,j,1,0.7486836820025928,391.62658104801085,None,392.4083758768014,None,None,392.4083758768014,None,,2,001,2021_Nov_02_1251,searchDisc4,2021.2.3,59.95755496632252,
images/exp2b_trial_83_colour1_distractors31_l.png,l,f,2b,83,1,31,,,,,0,207,207,704,,,,,,,,,,,,,,,,,,,,,,,,,,,,,,,,,,,,,,,,,,,,,,,,,,,,,,,,,,,,,,,,,,,,,,,,,,,,392.4076982460101,None,space,0.03960835200268775,392.4076982460101,None,392.5271107680164,None,f,1,0.6162987730058376,392.5271107680164,None,393.1748465527984,None,None,393.1748465527984,None,,2,001,2021_Nov_02_1251,searchDisc4,2021.2.3,59.95755496632252,
images/exp2c_trial_155_colour3_distractors9_l.png,l,f,2c,155,3,9,,,,,0,208,208,8,,,,,,,,,,,,,,,,,,,,,,,,,,,,,,,,,,,,,,,,,,,,,,,,,,,,,,,,,,,,,,,,,,,,,,,,,,,,393.1748731970147,None,space,0.040388076013186947,393.1748731970147,None,393.2937442219991,None,f,1,0.6496889799891505,393.2937442219991,None,393.9744152797997,None,None,393.9744152797997,None,,2,001,2021_Nov_02_1251,searchDisc4,2021.2.3,59.95755496632252,
images/exp2c_trial_24_colour2_distractors31_l.png,l,f,2c,24,2,31,,,,,0,209,209,837,,,,,,,,,,,,,,,,,,,,,,,,,,,,,,,,,,,,,,,,,,,,,,,,,,,,,,,,,,,,,,,,,,,,,,,,,,,,393.97499208699446,None,space,0.06438111999887042,393.97499208699446,None,394.11048432500684,None,f,1,0.7770029169914778,394.11048432500684,None,394.90775756580695,None,None,394.90775756580695,None,,2,001,2021_Nov_02_1251,searchDisc4,2021.2.3,59.95755496632252,
images/exp1a_trial_146_colour1_distractors19_l.png,l,f,1a,146,1,19,,,,,0,210,210,191,,,,,,,,,,,,,,,,,,,,,,,,,,,,,,,,,,,,,,,,,,,,,,,,,,,,,,,,,,,,,,,,,,,,,,,,,,,,394.90765570499934,None,space,0.09177736201672815,394.90765570499934,None,395.0771860459936,None,j,0,1.0103603379975539,395.0771860459936,None,396.1079215287958,None,None,396.1079215287958,None,,2,001,2021_Nov_02_1251,searchDisc4,2021.2.3,59.95755496632252,
images/exp2b_trial_62_colour0_distractors0_r.png,r,j,2b,62,0,0,,,,,0,211,211,683,,,,,,,,,,,,,,,,,,,,,,,,,,,,,,,,,,,,,,,,,,,,,,,,,,,,,,,,,,,,,,,,,,,,,,,,,,,,396.1077945140132,None,space,0.02769379099481739,396.1077945140132,None,396.19790358899627,None,j,1,0.7296689829963725,396.19790358899627,None,396.95833901780713,None,None,396.95833901780713,None,,2,001,2021_Nov_02_1251,searchDisc4,2021.2.3,59.95755496632252,
images/exp2c_trial_48_colour1_distractors4_l.png,l,f,2c,48,1,4,,,,,0,212,212,861,,,,,,,,,,,,,,,,,,,,,,,,,,,,,,,,,,,,,,,,,,,,,,,,,,,,,,,,,,,,,,,,,,,,,,,,,,,,396.9582938000094,None,space,0.04123850600444712,396.9582938000094,None,397.07724120499915,None,f,1,0.6263785309856758,397.07724120499915,None,397.72502661879696,None,None,397.72502661879696,None,,2,001,2021_Nov_02_1251,searchDisc4,2021.2.3,59.95755496632252,
images/exp1b_trial_6_colour2_distractors4_r.png,r,j,1b,6,2,4,,,,,0,213,213,243,,,,,,,,,,,,,,,,,,,,,,,,,,,,,,,,,,,,,,,,,,,,,,,,,,,,,,,,,,,,,,,,,,,,,,,,,,,,397.7249569790147,None,space,0.05859899599454366,397.7249569790147,None,397.8605875170033,None,j,1,0.6910737589932978,397.8605875170033,None,398.57542519779815,None,None,398.57542519779815,None,,2,001,2021_Nov_02_1251,searchDisc4,2021.2.3,59.95755496632252,
images/exp1a_trial_173_colour3_distractors19_r.png,r,j,1a,173,3,19,,,,,0,214,214,218,,,,,,,,,,,,,,,,,,,,,,,,,,,,,,,,,,,,,,,,,,,,,,,,,,,,,,,,,,,,,,,,,,,,,,,,,,,,398.5743604710151,None,space,0.03318676698836498,398.5743604710151,None,398.67736162699293,None,j,1,0.5622903320181649,398.67736162699293,None,399.2576407377986,None,None,399.2576407377986,None,,2,001,2021_Nov_02_1251,searchDisc4,2021.2.3,59.95755496632252,
images/exp2b_trial_61_colour3_distractors31_l.png,l,f,2b,61,3,31,,,,,0,215,215,682,,,,,,,,,,,,,,,,,,,,,,,,,,,,,,,,,,,,,,,,,,,,,,,,,,,,,,,,,,,,,,,,,,,,,,,,,,,,399.2577422700124,None,space,0.05376604400225915,399.2577422700124,None,399.3935324549966,None,f,1,0.6301861690008081,399.3935324549966,None,400.0416350047948,None,None,400.0416350047948,None,,2,001,2021_Nov_02_1251,searchDisc4,2021.2.3,59.95755496632252,
