ImageFile,targ_side,correctAnswer,exp,trial,colour,distNo,trials_2.thisRepN,trials_2.thisTrialN,trials_2.thisN,trials_2.thisIndex,trials.thisRepN,trials.thisTrialN,trials.thisN,trials.thisIndex,X Scale,Y Scale,text_top.started,text_top.stopped,text_bottom.started,text_bottom.stopped,ccimage.started,ccimage.stopped,text_6.started,text_6.stopped,key_resp_10.keys,key_resp_10.rt,key_resp_10.started,key_resp_10.stopped,text_7.started,text_7.stopped,key_resp_11.keys,key_resp_11.rt,key_resp_11.started,key_resp_11.stopped,text_8.started,text_8.stopped,key_resp_12.keys,key_resp_12.rt,key_resp_12.started,key_resp_12.stopped,text_9.started,text_9.stopped,key_resp_13.keys,key_resp_13.rt,key_resp_13.started,key_resp_13.stopped,text_2.started,text_2.stopped,key_resp_5.keys,key_resp_5.rt,key_resp_5.started,key_resp_5.stopped,text_5.started,text_5.stopped,key_resp_8.keys,key_resp_8.rt,key_resp_8.started,key_resp_8.stopped,image_2.started,image_2.stopped,key_resp_6.keys,key_resp_6.rt,key_resp_6.started,key_resp_6.stopped,text_3.started,text_3.stopped,image_3.started,image_3.stopped,fix.started,fix.stopped,key_resp_7.keys,key_resp_7.rt,key_resp_7.started,key_resp_7.stopped,image.started,image.stopped,key_resp_4.keys,key_resp_4.corr,key_resp_4.rt,key_resp_4.started,key_resp_4.stopped,text_4.started,text_4.stopped,text.started,text.stopped,key_resp_3.keys,key_resp_3.rt,key_resp_3.started,key_resp_3.stopped,fix2experiment.started,fix2experiment.stopped,key_resp_9.keys,key_resp_9.rt,key_resp_9.started,key_resp_9.stopped,dispStimuli.started,dispStimuli.stopped,key_resp_2.keys,key_resp_2.corr,key_resp_2.rt,key_resp_2.started,key_resp_2.stopped,breakMessage.started,breakMessage.stopped,key_resp.keys,key_resp.started,key_resp.stopped,key_resp.rt,participant,session,date,expName,psychopyVersion,frameRate,
,,,,,,,,,,,,,,,32.8,32.6,23.034778893983457,None,23.034778893983457,None,23.034778893983457,None,97.80068973600282,None,space,31.067755401978502,97.80068973600282,None,,,,,,,,,,,,,,,,,,,,,,,,,,,,,,,,,,,,,,,,,,,,,,,,,,,,,,,,,,,,,,,,,,,,,,,,,,,,,,,,,3,001,2021_Nov_03_1038,searchDisc4,2021.2.3,60.067682349855694,
,,,,,,,,,,,,,,,,,,,,,,,,,,,,,128.88693976699142,None,space,0.5494810219970532,128.88693976699142,None,,,,,,,,,,,,,,,,,,,,,,,,,,,,,,,,,,,,,,,,,,,,,,,,,,,,,,,,,,,,,,,,,,,,,,,,,,,3,001,2021_Nov_03_1038,searchDisc4,2021.2.3,60.067682349855694,
,,,,,,,,,,,,,,,,,,,,,,,,,,,,,,,,,,,129.45351525998558,None,space,0.32698376700864173,129.45351525998558,None,,,,,,,,,,,,,,,,,,,,,,,,,,,,,,,,,,,,,,,,,,,,,,,,,,,,,,,,,,,,,,,,,,,,,3,001,2021_Nov_03_1038,searchDisc4,2021.2.3,60.067682349855694,
,,,,,,,,,,,,,,,,,,,,,,,,,,,,,,,,,,,,,,,,,129.80394579700078,None,space,0.23257620201911777,129.80394579700078,None,,,,,,,,,,,,,,,,,,,,,,,,,,,,,,,,,,,,,,,,,,,,,,,,,,,,,,,,,,,,,,,3,001,2021_Nov_03_1038,searchDisc4,2021.2.3,60.067682349855694,
,,,,,,,,,,,,,,,,,,,,,,,,,,,,,,,,,,,,,,,,,,,,,,,130.05404101498425,None,space,3.415982926992001,131.02074714598712,None,,,,,,,,,,,,,,,,,,,,,,,,,,,,,,,,,,,,,,,,,,,,,,,,,,,,,,,,,3,001,2021_Nov_03_1038,searchDisc4,2021.2.3,60.067682349855694,
,,,,,,,,,,,,,,,,,,,,,,,,,,,,,,,,,,,,,,,,,,,,,,,,,,,,,134.45416557599674,None,space,9.839019609004026,134.45416557599674,None,,,,,,,,,,,,,,,,,,,,,,,,,,,,,,,,,,,,,,,,,,,,,,,,,,,3,001,2021_Nov_03_1038,searchDisc4,2021.2.3,60.067682349855694,
,,,,,,,,,,,,,,,,,,,,,,,,,,,,,,,,,,,,,,,,,,,,,,,,,,,,,,,,,,,144.32116888699238,None,space,4.629691000009188,145.2876951979997,None,,,,,,,,,,,,,,,,,,,,,,,,,,,,,,,,,,,,,,,,,,,,,3,001,2021_Nov_03_1038,searchDisc4,2021.2.3,60.067682349855694,
Practice arrays/exp1a_trial_14_colour3_distractors31_r.png,r,j,,,,,0,0,0,6,,,,,,,,,,,,,,,,,,,,,,,,,,,,,,,,,,,,,,,,,,,,,,,,,,,,,,,144.32116888699238,None,144.32116888699238,None,149.95391994598322,None,space,3.291657433990622,149.95391994598322,None,153.34203815599903,None,j,1,0.6955885910138022,153.34203815599903,None,154.06902310898295,None,,,,,,,,,,,,,,,,,,,,,,,,,,3,001,2021_Nov_03_1038,searchDisc4,2021.2.3,60.067682349855694,
Practice arrays/exp1a_trial_1_colour1_distractors4_r.png,r,j,,,,,0,1,1,1,,,,,,,,,,,,,,,,,,,,,,,,,,,,,,,,,,,,,,,,,,,,,,,,,,,,,,,,,,,155.06944554799702,None,space,1.5522578209929634,155.06944554799702,None,156.70494056498865,None,j,1,0.5807373870047741,156.70494056498865,None,157.30275808699662,None,,,,,,,,,,,,,,,,,,,,,,,,,,3,001,2021_Nov_03_1038,searchDisc4,2021.2.3,60.067682349855694,
Practice arrays/exp1a_trial_30_colour0_distractors0_r.png,r,j,,,,,0,2,2,14,,,,,,,,,,,,,,,,,,,,,,,,,,,,,,,,,,,,,,,,,,,,,,,,,,,,,,,,,,,158.30468030899647,None,space,0.34108857400133274,158.30468030899647,None,158.72156714298762,None,f,0,0.46829164400696754,158.72156714298762,None,159.2195800509944,None,,,,,,,,,,,,,,,,,,,,,,,,,,3,001,2021_Nov_03_1038,searchDisc4,2021.2.3,60.067682349855694,
Practice arrays/exp1a_trial_7_colour2_distractors9_r.png,r,j,,,,,0,3,3,2,,,,,,,,,,,,,,,,,,,,,,,,,,,,,,,,,,,,,,,,,,,,,,,,,,,,,,,,,,,160.22172730998136,None,space,0.40010741498554125,160.22172730998136,None,160.70459028499317,None,j,1,0.565271012019366,160.70459028499317,None,161.3028554499906,None,,,,,,,,,,,,,,,,,,,,,,,,,,3,001,2021_Nov_03_1038,searchDisc4,2021.2.3,60.067682349855694,
Practice arrays/exp1a_trial_27_colour3_distractors9_l.png,l,f,,,,,0,4,4,12,,,,,,,,,,,,,,,,,,,,,,,,,,,,,,,,,,,,,,,,,,,,,,,,,,,,,,,,,,,162.30497323197778,None,space,0.4210536649916321,162.30497323197778,None,162.80448430898832,None,f,1,0.5295784779882524,162.80448430898832,None,163.35309150000103,None,,,,,,,,,,,,,,,,,,,,,,,,,,3,001,2021_Nov_03_1038,searchDisc4,2021.2.3,60.067682349855694,
Practice arrays/exp1a_trial_31_colour0_distractors0_l.png,l,f,,,,,0,5,5,15,,,,,,,,,,,,,,,,,,,,,,,,,,,,,,,,,,,,,,,,,,,,,,,,,,,,,,,,,,,164.35500855598366,None,space,1.5551650320121553,164.35500855598366,None,165.98857774498174,None,f,1,0.5536101760226302,165.98857774498174,None,166.56966300899512,None,,,,,,,,,,,,,,,,,,,,,,,,,,3,001,2021_Nov_03_1038,searchDisc4,2021.2.3,60.067682349855694,
Practice arrays/exp1a_trial_18_colour1_distractors19_l.png,l,f,,,,,0,6,6,8,,,,,,,,,,,,,,,,,,,,,,,,,,,,,,,,,,,,,,,,,,,,,,,,,,,,,,,,,,,167.5717359839764,None,space,1.8745991319883615,167.5717359839764,None,169.52196579199517,None,j,0,0.5564000220037997,169.52196579199517,None,170.1032560679887,None,,,,,,,,,,,,,,,,,,,,,,,,,,3,001,2021_Nov_03_1038,searchDisc4,2021.2.3,60.067682349855694,
Practice arrays/exp1a_trial_17_colour1_distractors9_l.png,l,f,,,,,0,7,7,7,,,,,,,,,,,,,,,,,,,,,,,,,,,,,,,,,,,,,,,,,,,,,,,,,,,,,,,,,,,171.1045332819922,None,space,1.677955794002628,171.1045332819922,None,172.85543726600008,None,f,1,0.9990584850020241,172.85543726600008,None,173.8865227579954,None,,,,,,,,,,,,,,,,,,,,,,,,,,3,001,2021_Nov_03_1038,searchDisc4,2021.2.3,60.067682349855694,
Practice arrays/exp1a_trial_16_colour1_distractors4_l.png,l,f,,,,,0,8,8,13,,,,,,,,,,,,,,,,,,,,,,,,,,,,,,,,,,,,,,,,,,,,,,,,,,,,,,,,,,,174.88857015199028,None,space,0.45403916999930516,174.88857015199028,None,175.4223212399811,None,f,1,0.7283093779988121,175.4223212399811,None,176.16999910099548,None,,,,,,,,,,,,,,,,,,,,,,,,,,3,001,2021_Nov_03_1038,searchDisc4,2021.2.3,60.067682349855694,
Practice arrays/exp1a_trial_25_colour3_distractors1_l.png,l,f,,,,,0,9,9,11,,,,,,,,,,,,,,,,,,,,,,,,,,,,,,,,,,,,,,,,,,,,,,,,,,,,,,,,,,,177.1721159569861,None,space,0.5225896710180677,177.1721159569861,None,177.77216783098993,None,f,1,0.7225210570031777,177.77216783098993,None,178.52018137599225,None,,,,,,,,,,,,,,,,,,,,,,,,,,3,001,2021_Nov_03_1038,searchDisc4,2021.2.3,60.067682349855694,
Practice arrays/exp1a_trial_0_colour1_distractors1_r.png,r,j,,,,,0,10,10,0,,,,,,,,,,,,,,,,,,,,,,,,,,,,,,,,,,,,,,,,,,,,,,,,,,,,,,,,,,,179.5199748199957,None,space,0.5107997209997848,179.5199748199957,None,180.10566407599254,None,j,1,0.5971041469892953,180.10566407599254,None,180.71993962698616,None,,,,,,,,,,,,,,,,,,,,,,,,,,3,001,2021_Nov_03_1038,searchDisc4,2021.2.3,60.067682349855694,
Practice arrays/exp1a_trial_12_colour3_distractors9_r.png,r,j,,,,,0,11,11,5,,,,,,,,,,,,,,,,,,,,,,,,,,,,,,,,,,,,,,,,,,,,,,,,,,,,,,,,,,,181.72194610600127,None,space,0.500902480998775,181.72194610600127,None,182.30579581699567,None,j,1,0.6371544889989309,182.30579581699567,None,182.9692930439778,None,,,,,,,,,,,,,,,,,,,,,,,,,,3,001,2021_Nov_03_1038,searchDisc4,2021.2.3,60.067682349855694,
Practice arrays/exp1a_trial_23_colour2_distractors19_l.png,l,f,,,,,0,12,12,10,,,,,,,,,,,,,,,,,,,,,,,,,,,,,,,,,,,,,,,,,,,,,,,,,,,,,,,,,,,183.97216232700157,None,space,0.9948685249837581,183.97216232700157,None,185.03902372298762,None,f,1,0.6479803429974709,185.03902372298762,None,185.70357909298036,None,,,,,,,,,,,,,,,,,,,,,,,,,,3,001,2021_Nov_03_1038,searchDisc4,2021.2.3,60.067682349855694,
Practice arrays/exp1a_trial_10_colour3_distractors1_r.png,r,j,,,,,0,13,13,4,,,,,,,,,,,,,,,,,,,,,,,,,,,,,,,,,,,,,,,,,,,,,,,,,,,,,,,,,,,186.7055699909979,None,space,0.3255683880124707,186.7055699909979,None,187.10574647699832,None,j,1,0.5734194380056579,187.10574647699832,None,187.7036103909777,None,,,,,,,,,,,,,,,,,,,,,,,,,,3,001,2021_Nov_03_1038,searchDisc4,2021.2.3,60.067682349855694,
Practice arrays/exp1a_trial_8_colour2_distractors19_r.png,r,j,,,,,0,14,14,3,,,,,,,,,,,,,,,,,,,,,,,,,,,,,,,,,,,,,,,,,,,,,,,,,,,,,,,,,,,188.70361882899306,None,space,0.5036257579922676,188.70361882899306,None,189.28934758200194,None,j,1,0.6699143400182948,189.28934758200194,None,189.9869629459863,None,,,,,,,,,,,,,,,,,,,,,,,,,,3,001,2021_Nov_03_1038,searchDisc4,2021.2.3,60.067682349855694,
Practice arrays/exp1a_trial_21_colour2_distractors4_l.png,l,f,,,,,0,15,15,9,,,,,,,,,,,,,,,,,,,,,,,,,,,,,,,,,,,,,,,,,,,,,,,,,,,,,,,,,,,190.9870108399773,None,space,0.7642654480005149,190.9870108399773,None,191.82195849399432,None,f,1,0.6014281960087828,191.82195849399432,None,192.45346823098953,None,,,,,,,,,,,,,,,,,,,,,,,,,,3,001,2021_Nov_03_1038,searchDisc4,2021.2.3,60.067682349855694,
,,,,,,,,,,,,,,,,,,,,,,,,,,,,,,,,,,,,,,,,,,,,,,,,,,,,,,,,,,,,,,,,,,,,,,,,,,,,,,,,,,,,193.53910469799303,None,space,9.638085963000776,196.52199257200118,None,,,,,,,,,,,,,,,,,,,,3,001,2021_Nov_03_1038,searchDisc4,2021.2.3,60.067682349855694,
images/exp2a_trial_77_colour3_distractors19_r.png,r,j,2a,77,3,19,,,,,0,0,0,506,,,,,,,,,,,,,,,,,,,,,,,,,,,,,,,,,,,,,,,,,,,,,,,,,,,,,,,,,,,,,,,,,,,,,,,,,,,,206.58967289098655,None,space,1.6824650319758803,206.58967289098655,None,208.3450948149839,None,j,1,0.6630773640063126,208.3450948149839,None,209.037821316396,None,None,209.037821316396,None,,3,001,2021_Nov_03_1038,searchDisc4,2021.2.3,60.067682349855694,
images/exp2a_trial_165_colour2_distractors1_r.png,r,j,2a,165,2,1,,,,,0,1,1,594,,,,,,,,,,,,,,,,,,,,,,,,,,,,,,,,,,,,,,,,,,,,,,,,,,,,,,,,,,,,,,,,,,,,,,,,,,,,209.0542491299857,None,space,0.5618879109970294,209.0542491299857,None,209.69002814599662,None,j,1,0.7342032449960243,209.69002814599662,None,210.45433889740087,None,None,210.45433889740087,None,,3,001,2021_Nov_03_1038,searchDisc4,2021.2.3,60.067682349855694,
images/exp2b_trial_165_colour2_distractors1_r.png,r,j,2b,165,2,1,,,,,0,2,2,786,,,,,,,,,,,,,,,,,,,,,,,,,,,,,,,,,,,,,,,,,,,,,,,,,,,,,,,,,,,,,,,,,,,,,,,,,,,,210.45422795199556,None,space,0.6659006929839961,210.45422795199556,None,211.18989936698927,None,j,1,0.5943842869892251,211.18989936698927,None,211.80475780039268,None,None,211.80475780039268,None,,3,001,2021_Nov_03_1038,searchDisc4,2021.2.3,60.067682349855694,
images/exp2c_trial_12_colour3_distractors9_r.png,r,j,2c,12,3,9,,,,,0,3,3,825,,,,,,,,,,,,,,,,,,,,,,,,,,,,,,,,,,,,,,,,,,,,,,,,,,,,,,,,,,,,,,,,,,,,,,,,,,,,211.80417793500237,None,space,0.5320709549996536,211.80417793500237,None,212.40669129998423,None,j,1,0.5455404329986777,212.40669129998423,None,212.970373362393,None,None,212.970373362393,None,,3,001,2021_Nov_03_1038,searchDisc4,2021.2.3,60.067682349855694,
images/exp2c_trial_85_colour2_distractors4_l.png,l,f,2c,85,2,4,,,,,0,4,4,898,,,,,,,,,,,,,,,,,,,,,,,,,,,,,,,,,,,,,,,,,,,,,,,,,,,,,,,,,,,,,,,,,,,,,,,,,,,,212.9709412799857,None,space,0.46926834201440215,212.9709412799857,None,213.5231595489895,None,f,1,0.5332360779866576,213.5231595489895,None,214.0879408583889,None,None,214.0879408583889,None,,3,001,2021_Nov_03_1038,searchDisc4,2021.2.3,60.067682349855694,
images/exp2c_trial_138_colour3_distractors1_r.png,r,j,2c,138,3,1,,,,,0,5,5,951,,,,,,,,,,,,,,,,,,,,,,,,,,,,,,,,,,,,,,,,,,,,,,,,,,,,,,,,,,,,,,,,,,,,,,,,,,,,214.08677804699983,None,space,0.3935826149827335,214.08677804699983,None,214.53744873599499,None,j,1,0.4629961350001395,214.53744873599499,None,215.02087220640095,None,None,215.02087220640095,None,,3,001,2021_Nov_03_1038,searchDisc4,2021.2.3,60.067682349855694,
images/exp2c_trial_155_colour3_distractors9_l.png,l,f,2c,155,3,9,,,,,0,6,6,8,,,,,,,,,,,,,,,,,,,,,,,,,,,,,,,,,,,,,,,,,,,,,,,,,,,,,,,,,,,,,,,,,,,,,,,,,,,,215.02103043999523,None,space,0.459364790993277,215.02103043999523,None,215.55678863098728,None,f,1,0.49970441800542176,215.55678863098728,None,216.08795399740046,None,None,216.08795399740046,None,,3,001,2021_Nov_03_1038,searchDisc4,2021.2.3,60.067682349855694,
images/exp1a_trial_15_colour1_distractors1_l.png,l,f,1a,15,1,1,,,,,0,7,7,60,,,,,,,,,,,,,,,,,,,,,,,,,,,,,,,,,,,,,,,,,,,,,,,,,,,,,,,,,,,,,,,,,,,,,,,,,,,,216.08726026199292,None,space,0.32918380000046454,216.08726026199292,None,216.4901266270026,None,f,1,0.430313730990747,216.4901266270026,None,216.9379366133973,None,None,216.9379366133973,None,,3,001,2021_Nov_03_1038,searchDisc4,2021.2.3,60.067682349855694,
images/exp2b_trial_30_colour0_distractors0_r.png,r,j,2b,30,0,0,,,,,0,8,8,651,,,,,,,,,,,,,,,,,,,,,,,,,,,,,,,,,,,,,,,,,,,,,,,,,,,,,,,,,,,,,,,,,,,,,,,,,,,,216.93741910898825,None,space,0.3750861540029291,216.93741910898825,None,217.38998129300307,None,j,1,0.4025811870233156,217.38998129300307,None,217.82115851639827,None,None,217.82115851639827,None,,3,001,2021_Nov_03_1038,searchDisc4,2021.2.3,60.067682349855694,
images/exp2c_trial_90_colour3_distractors4_l.png,l,f,2c,90,3,4,,,,,0,9,9,903,,,,,,,,,,,,,,,,,,,,,,,,,,,,,,,,,,,,,,,,,,,,,,,,,,,,,,,,,,,,,,,,,,,,,,,,,,,,217.82089550298406,None,space,0.4355684320034925,217.82089550298406,None,218.32333195197862,None,f,1,0.48529146300279535,218.32333195197862,None,218.83797110038284,None,None,218.83797110038284,None,,3,001,2021_Nov_03_1038,searchDisc4,2021.2.3,60.067682349855694,
images/exp2a_trial_7_colour2_distractors9_r.png,r,j,2a,7,2,9,,,,,0,10,10,436,,,,,,,,,,,,,,,,,,,,,,,,,,,,,,,,,,,,,,,,,,,,,,,,,,,,,,,,,,,,,,,,,,,,,,,,,,,,218.83752947999164,None,space,0.3070420170261059,218.83752947999164,None,219.2233101039892,None,j,1,0.6333415039989632,219.2233101039892,None,219.88815804937911,None,None,219.88815804937911,None,,3,001,2021_Nov_03_1038,searchDisc4,2021.2.3,60.067682349855694,
images/exp1a_trial_130_colour1_distractors9_r.png,r,j,1a,130,1,9,,,,,0,11,11,175,,,,,,,,,,,,,,,,,,,,,,,,,,,,,,,,,,,,,,,,,,,,,,,,,,,,,,,,,,,,,,,,,,,,,,,,,,,,219.88752884598216,None,space,0.3370104620116763,219.88752884598216,None,220.30683328898158,None,f,0,0.4298824860015884,220.30683328898158,None,220.7545028103952,None,None,220.7545028103952,None,,3,001,2021_Nov_03_1038,searchDisc4,2021.2.3,60.067682349855694,
images/exp1b_trial_155_colour3_distractors9_l.png,l,f,1b,155,3,9,,,,,0,12,12,392,,,,,,,,,,,,,,,,,,,,,,,,,,,,,,,,,,,,,,,,,,,,,,,,,,,,,,,,,,,,,,,,,,,,,,,,,,,,220.75377112798742,None,space,0.5189350230211858,220.75377112798742,None,221.34015299897874,None,f,1,0.6926052430062555,221.34015299897874,None,222.0544502013974,None,None,222.0544502013974,None,,3,001,2021_Nov_03_1038,searchDisc4,2021.2.3,60.067682349855694,
images/exp2a_trial_29_colour3_distractors31_l.png,l,f,2a,29,3,31,,,,,0,13,13,458,,,,,,,,,,,,,,,,,,,,,,,,,,,,,,,,,,,,,,,,,,,,,,,,,,,,,,,,,,,,,,,,,,,,,,,,,,,,222.05403903999832,None,space,0.34668078197864816,222.05403903999832,None,222.47352552699158,None,f,1,0.5032851050200406,222.47352552699158,None,223.00498980138508,None,None,223.00498980138508,None,,3,001,2021_Nov_03_1038,searchDisc4,2021.2.3,60.067682349855694,
images/exp2a_trial_142_colour3_distractors31_r.png,r,j,2a,142,3,31,,,,,0,14,14,571,,,,,,,,,,,,,,,,,,,,,,,,,,,,,,,,,,,,,,,,,,,,,,,,,,,,,,,,,,,,,,,,,,,,,,,,,,,,223.00449726797524,None,space,0.3962504949886352,223.00449726797524,None,223.47351996597718,None,j,1,0.6472558419918641,223.47351996597718,None,224.15469925137876,None,None,224.15469925137876,None,,3,001,2021_Nov_03_1038,searchDisc4,2021.2.3,60.067682349855694,
images/exp2c_trial_169_colour2_distractors31_r.png,r,j,2c,169,2,31,,,,,0,15,15,22,,,,,,,,,,,,,,,,,,,,,,,,,,,,,,,,,,,,,,,,,,,,,,,,,,,,,,,,,,,,,,,,,,,,,,,,,,,,224.15458364700316,None,space,0.44624723499873653,224.15458364700316,None,224.67359495698474,None,j,1,0.4953220430179499,224.67359495698474,None,225.18826726539118,None,None,225.18826726539118,None,,3,001,2021_Nov_03_1038,searchDisc4,2021.2.3,60.067682349855694,
images/exp2b_trial_181_colour2_distractors4_l.png,l,f,2b,181,2,4,,,,,0,16,16,802,,,,,,,,,,,,,,,,,,,,,,,,,,,,,,,,,,,,,,,,,,,,,,,,,,,,,,,,,,,,,,,,,,,,,,,,,,,,225.18806098899222,None,space,0.42879727398394607,225.18806098899222,None,225.6902097699931,None,f,1,0.5426426880003419,225.6902097699931,None,226.25428711838612,None,None,226.25428711838612,None,,3,001,2021_Nov_03_1038,searchDisc4,2021.2.3,60.067682349855694,
images/exp2a_trial_133_colour2_distractors1_r.png,r,j,2a,133,2,1,,,,,0,17,17,562,,,,,,,,,,,,,,,,,,,,,,,,,,,,,,,,,,,,,,,,,,,,,,,,,,,,,,,,,,,,,,,,,,,,,,,,,,,,226.25480401498498,None,space,0.36209665102069266,226.25480401498498,None,226.69021789397812,None,j,1,0.4626948749937583,226.69021789397812,None,227.1709945933864,None,None,227.1709945933864,None,,3,001,2021_Nov_03_1038,searchDisc4,2021.2.3,60.067682349855694,
images/exp2b_trial_115_colour1_distractors31_l.png,l,f,2b,115,1,31,,,,,0,18,18,736,,,,,,,,,,,,,,,,,,,,,,,,,,,,,,,,,,,,,,,,,,,,,,,,,,,,,,,,,,,,,,,,,,,,,,,,,,,,227.17139612999745,None,space,0.4615341479948256,227.17139612999745,None,227.7071309890016,None,f,1,0.7179060440103058,227.7071309890016,None,228.4549012534,None,None,228.4549012534,None,,3,001,2021_Nov_03_1038,searchDisc4,2021.2.3,60.067682349855694,
images/exp2c_trial_171_colour3_distractors4_r.png,r,j,2c,171,3,4,,,,,0,19,19,24,,,,,,,,,,,,,,,,,,,,,,,,,,,,,,,,,,,,,,,,,,,,,,,,,,,,,,,,,,,,,,,,,,,,,,,,,,,,228.45434776198817,None,space,0.34663221999653615,228.45434776198817,None,228.87376622197917,None,j,1,0.5593155460082926,228.87376622197917,None,229.4545219783933,None,None,229.4545219783933,None,,3,001,2021_Nov_03_1038,searchDisc4,2021.2.3,60.067682349855694,
images/exp1a_trial_85_colour2_distractors4_l.png,l,f,1a,85,2,4,,,,,0,20,20,130,,,,,,,,,,,,,,,,,,,,,,,,,,,,,,,,,,,,,,,,,,,,,,,,,,,,,,,,,,,,,,,,,,,,,,,,,,,,229.45480557298288,None,space,0.47426147997612134,229.45480557298288,None,230.00693821097957,None,f,1,0.5782084920210764,230.00693821097957,None,230.60448898238536,None,None,230.60448898238536,None,,3,001,2021_Nov_03_1038,searchDisc4,2021.2.3,60.067682349855694,
images/exp1a_trial_114_colour1_distractors19_l.png,l,f,1a,114,1,19,,,,,0,21,21,159,,,,,,,,,,,,,,,,,,,,,,,,,,,,,,,,,,,,,,,,,,,,,,,,,,,,,,,,,,,,,,,,,,,,,,,,,,,,230.60428968298947,None,space,0.3487666619766969,230.60428968298947,None,231.02376862298115,None,f,1,0.4813299530069344,231.02376862298115,None,231.5382937383867,None,None,231.5382937383867,None,,3,001,2021_Nov_03_1038,searchDisc4,2021.2.3,60.067682349855694,
images/exp1b_trial_137_colour2_distractors31_r.png,r,j,1b,137,2,31,,,,,0,22,22,374,,,,,,,,,,,,,,,,,,,,,,,,,,,,,,,,,,,,,,,,,,,,,,,,,,,,,,,,,,,,,,,,,,,,,,,,,,,,231.5381593630009,None,space,0.38294524600496516,231.5381593630009,None,231.99043664897908,None,j,1,0.778809010022087,231.99043664897908,None,232.78849438639298,None,None,232.78849438639298,None,,3,001,2021_Nov_03_1038,searchDisc4,2021.2.3,60.067682349855694,
images/exp1b_trial_71_colour2_distractors9_r.png,r,j,1b,71,2,9,,,,,0,23,23,308,,,,,,,,,,,,,,,,,,,,,,,,,,,,,,,,,,,,,,,,,,,,,,,,,,,,,,,,,,,,,,,,,,,,,,,,,,,,232.78820804698626,None,space,0.42898971200338565,232.78820804698626,None,233.29031472100178,None,j,1,1.0950311360065825,233.29031472100178,None,234.40449695539718,None,None,234.40449695539718,None,,3,001,2021_Nov_03_1038,searchDisc4,2021.2.3,60.067682349855694,
images/exp2b_trial_51_colour1_distractors31_l.png,l,f,2b,51,1,31,,,,,0,24,24,672,,,,,,,,,,,,,,,,,,,,,,,,,,,,,,,,,,,,,,,,,,,,,,,,,,,,,,,,,,,,,,,,,,,,,,,,,,,,234.40491565599223,None,space,0.3483311519958079,234.40491565599223,None,234.8230289669882,None,f,1,0.49826458797906525,234.8230289669882,None,235.33845876637787,None,None,235.33845876637787,None,,3,001,2021_Nov_03_1038,searchDisc4,2021.2.3,60.067682349855694,
images/exp2c_trial_178_colour1_distractors19_l.png,l,f,2c,178,1,19,,,,,0,25,25,31,,,,,,,,,,,,,,,,,,,,,,,,,,,,,,,,,,,,,,,,,,,,,,,,,,,,,,,,,,,,,,,,,,,,,,,,,,,,235.3385336420033,None,space,0.34280051998212,235.3385336420033,None,235.7572289989912,None,j,0,0.5801368699758314,235.7572289989912,None,236.35511769537987,None,None,236.35511769537987,None,,3,001,2021_Nov_03_1038,searchDisc4,2021.2.3,60.067682349855694,
images/exp2b_trial_144_colour1_distractors4_l.png,l,f,2b,144,1,4,,,,,0,26,26,765,,,,,,,,,,,,,,,,,,,,,,,,,,,,,,,,,,,,,,,,,,,,,,,,,,,,,,,,,,,,,,,,,,,,,,,,,,,,236.35480083100265,None,space,0.4946244560123887,236.35480083100265,None,236.92184532497777,None,f,1,0.6476603360206354,236.92184532497777,None,237.58872573438856,None,None,237.58872573438856,None,,3,001,2021_Nov_03_1038,searchDisc4,2021.2.3,60.067682349855694,
images/exp1b_trial_95_colour0_distractors0_l.png,l,f,1b,95,0,0,,,,,0,27,27,332,,,,,,,,,,,,,,,,,,,,,,,,,,,,,,,,,,,,,,,,,,,,,,,,,,,,,,,,,,,,,,,,,,,,,,,,,,,,237.58814228398842,None,space,0.41330137601471506,237.58814228398842,None,238.07395217899466,None,f,1,0.5114999359939247,238.07395217899466,None,238.60467097140207,None,None,238.60467097140207,None,,3,001,2021_Nov_03_1038,searchDisc4,2021.2.3,60.067682349855694,
images/exp2a_trial_85_colour2_distractors4_l.png,l,f,2a,85,2,4,,,,,0,28,28,514,,,,,,,,,,,,,,,,,,,,,,,,,,,,,,,,,,,,,,,,,,,,,,,,,,,,,,,,,,,,,,,,,,,,,,,,,,,,238.60497625899734,None,space,0.37244180002016947,238.60497625899734,None,239.05670990000363,None,f,1,0.47274940900388174,239.05670990000363,None,239.55477052138593,None,None,239.55477052138593,None,,3,001,2021_Nov_03_1038,searchDisc4,2021.2.3,60.067682349855694,
images/exp2c_trial_107_colour3_distractors4_r.png,r,j,2c,107,3,4,,,,,0,29,29,920,,,,,,,,,,,,,,,,,,,,,,,,,,,,,,,,,,,,,,,,,,,,,,,,,,,,,,,,,,,,,,,,,,,,,,,,,,,,239.57186768899555,None,space,0.37354435201268643,239.57186768899555,None,240.02341402799357,None,j,1,0.41809621098218486,240.02341402799357,None,240.47191794638928,None,None,240.47191794638928,None,,3,001,2021_Nov_03_1038,searchDisc4,2021.2.3,60.067682349855694,
images/exp2c_trial_1_colour1_distractors4_r.png,r,j,2c,1,1,4,,,,,0,30,30,814,,,,,,,,,,,,,,,,,,,,,,,,,,,,,,,,,,,,,,,,,,,,,,,,,,,,,,,,,,,,,,,,,,,,,,,,,,,,240.4709462739993,None,space,0.4585145140008535,240.4709462739993,None,241.00735560897738,None,j,1,0.49022719499771483,241.00735560897738,None,241.5213273773872,None,None,241.5213273773872,None,,3,001,2021_Nov_03_1038,searchDisc4,2021.2.3,60.067682349855694,
images/exp1b_trial_76_colour3_distractors9_r.png,r,j,1b,76,3,9,,,,,0,31,31,313,,,,,,,,,,,,,,,,,,,,,,,,,,,,,,,,,,,,,,,,,,,,,,,,,,,,,,,,,,,,,,,,,,,,,,,,,,,,241.5216255429841,None,space,0.38392100599594414,241.5216255429841,None,241.97371471399674,None,j,1,0.5559265830088407,241.97371471399674,None,242.5551780453854,None,None,242.5551780453854,None,,3,001,2021_Nov_03_1038,searchDisc4,2021.2.3,60.067682349855694,
images/exp1b_trial_35_colour1_distractors19_r.png,r,j,1b,35,1,19,,,,,0,32,32,272,,,,,,,,,,,,,,,,,,,,,,,,,,,,,,,,,,,,,,,,,,,,,,,,,,,,,,,,,,,,,,,,,,,,,,,,,,,,242.55493825298618,None,space,0.36665607697796077,242.55493825298618,None,242.99064761199406,None,j,1,0.8350345409999136,242.99064761199406,None,243.85508821238471,None,None,243.85508821238471,None,,3,001,2021_Nov_03_1038,searchDisc4,2021.2.3,60.067682349855694,
images/exp2b_trial_123_colour3_distractors9_l.png,l,f,2b,123,3,9,,,,,0,33,33,744,,,,,,,,,,,,,,,,,,,,,,,,,,,,,,,,,,,,,,,,,,,,,,,,,,,,,,,,,,,,,,,,,,,,,,,,,,,,243.85521804197924,None,space,0.36242164100985974,243.85521804197924,None,244.29041108099045,None,f,1,0.5593407110136468,244.29041108099045,None,244.87110995137772,None,None,244.87110995137772,None,,3,001,2021_Nov_03_1038,searchDisc4,2021.2.3,60.067682349855694,
images/exp1a_trial_23_colour2_distractors19_l.png,l,f,1a,23,2,19,,,,,0,34,34,68,,,,,,,,,,,,,,,,,,,,,,,,,,,,,,,,,,,,,,,,,,,,,,,,,,,,,,,,,,,,,,,,,,,,,,,,,,,,244.87168078200193,None,space,0.36199406601372175,244.87168078200193,None,245.30807197699323,None,f,1,0.5897135880077258,245.30807197699323,None,245.92150548738135,None,None,245.92150548738135,None,,3,001,2021_Nov_03_1038,searchDisc4,2021.2.3,60.067682349855694,
images/exp2c_trial_125_colour3_distractors31_l.png,l,f,2c,125,3,31,,,,,0,35,35,938,,,,,,,,,,,,,,,,,,,,,,,,,,,,,,,,,,,,,,,,,,,,,,,,,,,,,,,,,,,,,,,,,,,,,,,,,,,,245.9210712799977,None,space,0.33666214998811483,245.9210712799977,None,246.3416104639764,None,j,0,0.4522055260022171,246.3416104639764,None,246.82188601439992,None,None,246.82188601439992,None,,3,001,2021_Nov_03_1038,searchDisc4,2021.2.3,60.067682349855694,
images/exp2b_trial_35_colour1_distractors19_r.png,r,j,2b,35,1,19,,,,,0,36,36,656,,,,,,,,,,,,,,,,,,,,,,,,,,,,,,,,,,,,,,,,,,,,,,,,,,,,,,,,,,,,,,,,,,,,,,,,,,,,246.82136992999585,None,space,0.4124117559986189,246.82136992999585,None,247.30667918297695,None,j,1,0.5991838450136129,247.30667918297695,None,247.93855302539595,None,None,247.93855302539595,None,,3,001,2021_Nov_03_1038,searchDisc4,2021.2.3,60.067682349855694,
images/exp1a_trial_100_colour1_distractors31_r.png,r,j,1a,100,1,31,,,,,0,37,37,145,,,,,,,,,,,,,,,,,,,,,,,,,,,,,,,,,,,,,,,,,,,,,,,,,,,,,,,,,,,,,,,,,,,,,,,,,,,,247.93855920099304,None,space,0.3512364810158033,247.93855920099304,None,248.35982635099208,None,j,1,0.5860658919846173,248.35982635099208,None,248.9718114603922,None,None,248.9718114603922,None,,3,001,2021_Nov_03_1038,searchDisc4,2021.2.3,60.067682349855694,
images/exp2b_trial_190_colour0_distractors0_r.png,r,j,2b,190,0,0,,,,,0,38,38,811,,,,,,,,,,,,,,,,,,,,,,,,,,,,,,,,,,,,,,,,,,,,,,,,,,,,,,,,,,,,,,,,,,,,,,,,,,,,248.97150719398633,None,space,0.35032870701979846,248.97150719398633,None,249.39052417100174,None,j,1,0.49945345998276025,249.39052417100174,None,249.92201408738327,None,None,249.92201408738327,None,,3,001,2021_Nov_03_1038,searchDisc4,2021.2.3,60.067682349855694,
images/exp2c_trial_158_colour0_distractors0_r.png,r,j,2c,158,0,0,,,,,0,39,39,11,,,,,,,,,,,,,,,,,,,,,,,,,,,,,,,,,,,,,,,,,,,,,,,,,,,,,,,,,,,,,,,,,,,,,,,,,,,,249.92147846799344,None,space,0.36845074902521446,249.92147846799344,None,250.35718144499697,None,j,1,0.47684248301084153,250.35718144499697,None,250.85563018839747,None,None,250.85563018839747,None,,3,001,2021_Nov_03_1038,searchDisc4,2021.2.3,60.067682349855694,
images/exp2c_trial_35_colour1_distractors19_r.png,r,j,2c,35,1,19,,,,,0,40,40,848,,,,,,,,,,,,,,,,,,,,,,,,,,,,,,,,,,,,,,,,,,,,,,,,,,,,,,,,,,,,,,,,,,,,,,,,,,,,250.85507197398692,None,space,0.3708938650088385,250.85507197398692,None,251.30949137700372,None,j,1,0.4925698540173471,251.30949137700372,None,251.82144583939515,None,None,251.82144583939515,None,,3,001,2021_Nov_03_1038,searchDisc4,2021.2.3,60.067682349855694,
images/exp1b_trial_168_colour2_distractors19_r.png,r,j,1b,168,2,19,,,,,0,41,41,405,,,,,,,,,,,,,,,,,,,,,,,,,,,,,,,,,,,,,,,,,,,,,,,,,,,,,,,,,,,,,,,,,,,,,,,,,,,,251.8219463689893,None,space,0.5000513859849889,251.8219463689893,None,252.3906977349834,None,j,1,0.659397026989609,252.3906977349834,None,253.0718346243986,None,None,253.0718346243986,None,,3,001,2021_Nov_03_1038,searchDisc4,2021.2.3,60.067682349855694,
images/exp2a_trial_80_colour1_distractors4_l.png,l,f,2a,80,1,4,,,,,0,42,42,509,,,,,,,,,,,,,,,,,,,,,,,,,,,,,,,,,,,,,,,,,,,,,,,,,,,,,,,,,,,,,,,,,,,,,,,,,,,,253.07171653799014,None,space,0.6023016520193778,253.07171653799014,None,253.75744505799958,None,f,1,0.8607242550060619,253.75744505799958,None,254.63847673338313,None,None,254.63847673338313,None,,3,001,2021_Nov_03_1038,searchDisc4,2021.2.3,60.067682349855694,
images/exp2b_trial_37_colour2_distractors1_r.png,r,j,2b,37,2,1,,,,,0,43,43,658,,,,,,,,,,,,,,,,,,,,,,,,,,,,,,,,,,,,,,,,,,,,,,,,,,,,,,,,,,,,,,,,,,,,,,,,,,,,254.63892472398584,None,space,0.3712121339922305,254.63892472398584,None,255.09093487099744,None,j,1,0.455256912013283,255.09093487099744,None,255.57209803539735,None,None,255.57209803539735,None,,3,001,2021_Nov_03_1038,searchDisc4,2021.2.3,60.067682349855694,
images/exp2c_trial_26_colour3_distractors4_l.png,l,f,2c,26,3,4,,,,,0,44,44,839,,,,,,,,,,,,,,,,,,,,,,,,,,,,,,,,,,,,,,,,,,,,,,,,,,,,,,,,,,,,,,,,,,,,,,,,,,,,255.57153885398293,None,space,0.3506160099932458,255.57153885398293,None,255.9907750999846,None,f,1,0.5874954499886371,255.9907750999846,None,256.60560781738894,None,None,256.60560781738894,None,,3,001,2021_Nov_03_1038,searchDisc4,2021.2.3,60.067682349855694,
images/exp2b_trial_91_colour3_distractors9_l.png,l,f,2b,91,3,9,,,,,0,45,45,712,,,,,,,,,,,,,,,,,,,,,,,,,,,,,,,,,,,,,,,,,,,,,,,,,,,,,,,,,,,,,,,,,,,,,,,,,,,,256.6055952269817,None,space,0.34863167398725636,256.6055952269817,None,257.02418646699516,None,f,1,0.7301420599978883,257.02418646699516,None,257.77212124938086,None,None,257.77212124938086,None,,3,001,2021_Nov_03_1038,searchDisc4,2021.2.3,60.067682349855694,
images/exp1a_trial_50_colour1_distractors19_l.png,l,f,1a,50,1,19,,,,,0,46,46,95,,,,,,,,,,,,,,,,,,,,,,,,,,,,,,,,,,,,,,,,,,,,,,,,,,,,,,,,,,,,,,,,,,,,,,,,,,,,257.7719599819975,None,space,0.358338902995456,257.7719599819975,None,258.20511002399144,None,f,1,0.5092443760077003,258.20511002399144,None,258.73891305038995,None,None,258.73891305038995,None,,3,001,2021_Nov_03_1038,searchDisc4,2021.2.3,60.067682349855694,
images/exp2c_trial_111_colour1_distractors1_l.png,l,f,2c,111,1,1,,,,,0,47,47,924,,,,,,,,,,,,,,,,,,,,,,,,,,,,,,,,,,,,,,,,,,,,,,,,,,,,,,,,,,,,,,,,,,,,,,,,,,,,258.75793474097736,None,space,0.41231344698462635,258.75793474097736,None,259.2407992479857,None,f,1,0.49758354300865903,259.2407992479857,None,259.7555904703942,None,None,259.7555904703942,None,,3,001,2021_Nov_03_1038,searchDisc4,2021.2.3,60.067682349855694,
images/exp1a_trial_59_colour3_distractors9_l.png,l,f,1a,59,3,9,,,,,0,48,48,104,,,,,,,,,,,,,,,,,,,,,,,,,,,,,,,,,,,,,,,,,,,,,,,,,,,,,,,,,,,,,,,,,,,,,,,,,,,,259.75542150298133,None,space,0.3029532000073232,259.75542150298133,None,260.14109995399485,None,f,1,0.5413754690089263,260.14109995399485,None,260.7050131673779,None,None,260.7050131673779,None,,3,001,2021_Nov_03_1038,searchDisc4,2021.2.3,60.067682349855694,
images/exp2c_trial_98_colour1_distractors9_r.png,r,j,2c,98,1,9,,,,,0,49,49,911,,,,,,,,,,,,,,,,,,,,,,,,,,,,,,,,,,,,,,,,,,,,,,,,,,,,,,,,,,,,,,,,,,,,,,,,,,,,260.70501541299745,None,space,0.34542989599867724,260.70501541299745,None,261.1243693679862,None,j,1,0.4941053880029358,261.1243693679862,None,261.6387910693913,None,None,261.6387910693913,None,,3,001,2021_Nov_03_1038,searchDisc4,2021.2.3,60.067682349855694,
images/exp2c_trial_173_colour3_distractors19_r.png,r,j,2c,173,3,19,,,,,0,50,50,26,,,,,,,,,,,,,,,,,,,,,,,,,,,,,,,,,,,,,,,,,,,,,,,,,,,,,,,,,,,,,,,,,,,,,,,,,,,,261.6384409349994,None,space,0.38803422200726345,261.6384409349994,None,262.10768475799705,None,j,1,0.6068370720022358,262.10768475799705,None,262.7390064423991,None,None,262.7390064423991,None,,3,001,2021_Nov_03_1038,searchDisc4,2021.2.3,60.067682349855694,
images/exp1a_trial_188_colour3_distractors19_l.png,l,f,1a,188,3,19,,,,,0,51,51,233,,,,,,,,,,,,,,,,,,,,,,,,,,,,,,,,,,,,,,,,,,,,,,,,,,,,,,,,,,,,,,,,,,,,,,,,,,,,262.7385195469833,None,space,0.37598122301278636,262.7385195469833,None,263.1912185259862,None,f,1,0.6994760299858171,263.1912185259862,None,263.922140312384,None,None,263.922140312384,None,,3,001,2021_Nov_03_1038,searchDisc4,2021.2.3,60.067682349855694,
images/exp2b_trial_57_colour3_distractors1_l.png,l,f,2b,57,3,1,,,,,0,52,52,678,,,,,,,,,,,,,,,,,,,,,,,,,,,,,,,,,,,,,,,,,,,,,,,,,,,,,,,,,,,,,,,,,,,,,,,,,,,,263.921541949996,None,space,0.3450075800064951,263.921541949996,None,264.3407296529913,None,f,1,0.5099966120033059,264.3407296529913,None,264.87236721039807,None,None,264.87236721039807,None,,3,001,2021_Nov_03_1038,searchDisc4,2021.2.3,60.067682349855694,
images/exp1a_trial_81_colour1_distractors9_l.png,l,f,1a,81,1,9,,,,,0,53,53,126,,,,,,,,,,,,,,,,,,,,,,,,,,,,,,,,,,,,,,,,,,,,,,,,,,,,,,,,,,,,,,,,,,,,,,,,,,,,264.872250401997,None,space,0.3783846879960038,264.872250401997,None,265.3260955209844,None,f,1,0.6926864739798475,265.3260955209844,None,266.03914001840457,None,None,266.03914001840457,None,,3,001,2021_Nov_03_1038,searchDisc4,2021.2.3,60.067682349855694,
images/exp1a_trial_61_colour3_distractors31_l.png,l,f,1a,61,3,31,,,,,0,54,54,106,,,,,,,,,,,,,,,,,,,,,,,,,,,,,,,,,,,,,,,,,,,,,,,,,,,,,,,,,,,,,,,,,,,,,,,,,,,,266.03882253798656,None,space,0.2759341269847937,266.03882253798656,None,266.3912948469806,None,f,1,0.6435253579984419,266.3912948469806,None,267.0552687823976,None,None,267.0552687823976,None,,3,001,2021_Nov_03_1038,searchDisc4,2021.2.3,60.067682349855694,
images/exp2a_trial_170_colour3_distractors1_r.png,r,j,2a,170,3,1,,,,,0,55,55,599,,,,,,,,,,,,,,,,,,,,,,,,,,,,,,,,,,,,,,,,,,,,,,,,,,,,,,,,,,,,,,,,,,,,,,,,,,,,267.0557647829992,None,space,0.33101694702054374,267.0557647829992,None,267.45824943398475,None,j,1,0.6485295059974305,267.45824943398475,None,268.13939209940435,None,None,268.13939209940435,None,,3,001,2021_Nov_03_1038,searchDisc4,2021.2.3,60.067682349855694,
images/exp2c_trial_77_colour3_distractors19_r.png,r,j,2c,77,3,19,,,,,0,56,56,890,,,,,,,,,,,,,,,,,,,,,,,,,,,,,,,,,,,,,,,,,,,,,,,,,,,,,,,,,,,,,,,,,,,,,,,,,,,,268.139039932983,None,space,0.4317734189971816,268.139039932983,None,268.6413778869901,None,j,1,0.5935535299940966,268.6413778869901,None,269.25540089639543,None,None,269.25540089639543,None,,3,001,2021_Nov_03_1038,searchDisc4,2021.2.3,60.067682349855694,
images/exp1a_trial_31_colour0_distractors0_l.png,l,f,1a,31,0,0,,,,,0,57,57,76,,,,,,,,,,,,,,,,,,,,,,,,,,,,,,,,,,,,,,,,,,,,,,,,,,,,,,,,,,,,,,,,,,,,,,,,,,,,269.25522058899514,None,space,0.40356407398940064,269.25522058899514,None,269.74110174700036,None,f,1,0.5737858549982775,269.74110174700036,None,270.33906420038255,None,None,270.33906420038255,None,,3,001,2021_Nov_03_1038,searchDisc4,2021.2.3,60.067682349855694,
images/exp2a_trial_107_colour3_distractors4_r.png,r,j,2a,107,3,4,,,,,0,58,58,536,,,,,,,,,,,,,,,,,,,,,,,,,,,,,,,,,,,,,,,,,,,,,,,,,,,,,,,,,,,,,,,,,,,,,,,,,,,,270.3391243270016,None,space,0.3118012129853014,270.3391243270016,None,270.72477257298306,None,j,1,0.6702574329974595,270.72477257298306,None,271.4228649813769,None,None,271.4228649813769,None,,3,001,2021_Nov_03_1038,searchDisc4,2021.2.3,60.067682349855694,
images/exp1a_trial_143_colour1_distractors1_l.png,l,f,1a,143,1,1,,,,,0,59,59,188,,,,,,,,,,,,,,,,,,,,,,,,,,,,,,,,,,,,,,,,,,,,,,,,,,,,,,,,,,,,,,,,,,,,,,,,,,,,271.4224093229859,None,space,0.4446023289929144,271.4224093229859,None,271.94167439299054,None,f,1,0.6534259670006577,271.94167439299054,None,272.6222707083827,None,None,272.6222707083827,None,,3,001,2021_Nov_03_1038,searchDisc4,2021.2.3,60.067682349855694,
images/exp2c_trial_57_colour3_distractors1_l.png,l,f,2c,57,3,1,,,,,0,60,60,870,,,,,,,,,,,,,,,,,,,,,,,,,,,,,,,,,,,,,,,,,,,,,,,,,,,,,,,,,,,,,,,,,,,,,,,,,,,,272.6218103739957,None,space,0.34928274402045645,272.6218103739957,None,273.04158174298937,None,f,1,0.577552939997986,273.04158174298937,None,273.6396143224003,None,None,273.6396143224003,None,,3,001,2021_Nov_03_1038,searchDisc4,2021.2.3,60.067682349855694,
images/exp2a_trial_148_colour2_distractors1_l.png,l,f,2a,148,2,1,,,,,0,61,61,577,,,,,,,,,,,,,,,,,,,,,,,,,,,,,,,,,,,,,,,,,,,,,,,,,,,,,,,,,,,,,,,,,,,,,,,,,,,,273.6384898989927,None,space,0.2846131879778113,273.6384898989927,None,273.9915088120033,None,f,1,0.5236665199918207,273.9915088120033,None,274.5396247943892,None,None,274.5396247943892,None,,3,001,2021_Nov_03_1038,searchDisc4,2021.2.3,60.067682349855694,
images/exp2a_trial_173_colour3_distractors19_r.png,r,j,2a,173,3,19,,,,,0,62,62,602,,,,,,,,,,,,,,,,,,,,,,,,,,,,,,,,,,,,,,,,,,,,,,,,,,,,,,,,,,,,,,,,,,,,,,,,,,,,274.5391081929847,None,space,0.22392229898832738,274.5391081929847,None,274.84158753298107,None,j,1,0.6096318180207163,274.84158753298107,None,275.4727302074054,None,None,275.4727302074054,None,,3,001,2021_Nov_03_1038,searchDisc4,2021.2.3,60.067682349855694,
images/exp1b_trial_109_colour3_distractors19_r.png,r,j,1b,109,3,19,,,,,0,63,63,346,,,,,,,,,,,,,,,,,,,,,,,,,,,,,,,,,,,,,,,,,,,,,,,,,,,,,,,,,,,,,,,,,,,,,,,,,,,,275.47217798998463,None,space,0.32300122900051065,275.47217798998463,None,275.87486923398683,None,j,1,0.7524034749949351,275.87486923398683,None,276.6564579833968,None,None,276.6564579833968,None,,3,001,2021_Nov_03_1038,searchDisc4,2021.2.3,60.067682349855694,
images/exp1a_trial_137_colour2_distractors31_r.png,r,j,1a,137,2,31,,,,,0,64,64,182,,,,,,,,,,,,,,,,,,,,,,,,,,,,,,,,,,,,,,,,,,,,,,,,,,,,,,,,,,,,,,,,,,,,,,,,,,,,276.6558197249833,None,space,0.2914275370130781,276.6558197249833,None,277.0249284559977,None,j,1,0.6663707550032996,277.0249284559977,None,277.722915297377,None,None,277.722915297377,None,,3,001,2021_Nov_03_1038,searchDisc4,2021.2.3,60.067682349855694,
images/exp1b_trial_160_colour1_distractors1_r.png,r,j,1b,160,1,1,,,,,0,65,65,397,,,,,,,,,,,,,,,,,,,,,,,,,,,,,,,,,,,,,,,,,,,,,,,,,,,,,,,,,,,,,,,,,,,,,,,,,,,,277.72224491098314,None,space,0.3450400000147056,277.72224491098314,None,278.1414176519902,None,j,1,0.7658765889937058,278.1414176519902,None,278.93970171539985,None,None,278.93970171539985,None,,3,001,2021_Nov_03_1038,searchDisc4,2021.2.3,60.067682349855694,
images/exp1a_trial_167_colour2_distractors9_r.png,r,j,1a,167,2,9,,,,,0,66,66,212,,,,,,,,,,,,,,,,,,,,,,,,,,,,,,,,,,,,,,,,,,,,,,,,,,,,,,,,,,,,,,,,,,,,,,,,,,,,278.9395286660001,None,space,0.35183368300204165,278.9395286660001,None,279.3576540740032,None,j,1,0.5257724790135399,279.3576540740032,None,279.9061059013795,None,None,279.9061059013795,None,,3,001,2021_Nov_03_1038,searchDisc4,2021.2.3,60.067682349855694,
images/exp1a_trial_69_colour2_distractors1_r.png,r,j,1a,69,2,1,,,,,0,67,67,114,,,,,,,,,,,,,,,,,,,,,,,,,,,,,,,,,,,,,,,,,,,,,,,,,,,,,,,,,,,,,,,,,,,,,,,,,,,,279.90550491100294,None,space,0.33787568798288703,279.90550491100294,None,280.3061997179757,None,j,1,0.537246948981192,280.3061997179757,None,280.87310522439947,None,None,280.87310522439947,None,,3,001,2021_Nov_03_1038,searchDisc4,2021.2.3,60.067682349855694,
images/exp1a_trial_25_colour3_distractors1_l.png,l,f,1a,25,3,1,,,,,0,68,68,70,,,,,,,,,,,,,,,,,,,,,,,,,,,,,,,,,,,,,,,,,,,,,,,,,,,,,,,,,,,,,,,,,,,,,,,,,,,,280.87259173198254,None,space,0.3388139230082743,280.87259173198254,None,281.29195574700134,None,f,1,0.6395175729994662,281.29195574700134,None,281.9564803833811,None,None,281.9564803833811,None,,3,001,2021_Nov_03_1038,searchDisc4,2021.2.3,60.067682349855694,
images/exp1b_trial_68_colour1_distractors31_r.png,r,j,1b,68,1,31,,,,,0,69,69,305,,,,,,,,,,,,,,,,,,,,,,,,,,,,,,,,,,,,,,,,,,,,,,,,,,,,,,,,,,,,,,,,,,,,,,,,,,,,281.9556307559833,None,space,0.25580314797116444,281.9556307559833,None,282.2918012009759,None,f,0,0.9437341679877136,282.2918012009759,None,283.2558162093948,None,None,283.2558162093948,None,,3,001,2021_Nov_03_1038,searchDisc4,2021.2.3,60.067682349855694,
images/exp2a_trial_128_colour1_distractors1_r.png,r,j,2a,128,1,1,,,,,0,70,70,557,,,,,,,,,,,,,,,,,,,,,,,,,,,,,,,,,,,,,,,,,,,,,,,,,,,,,,,,,,,,,,,,,,,,,,,,,,,,283.25608674099203,None,space,0.4114093509851955,283.25608674099203,None,283.74173769998015,None,f,0,0.7338707980234176,283.74173769998015,None,284.5065124753775,None,None,284.5065124753775,None,,3,001,2021_Nov_03_1038,searchDisc4,2021.2.3,60.067682349855694,
images/exp2c_trial_176_colour1_distractors4_l.png,l,f,2c,176,1,4,,,,,0,71,71,29,,,,,,,,,,,,,,,,,,,,,,,,,,,,,,,,,,,,,,,,,,,,,,,,,,,,,,,,,,,,,,,,,,,,,,,,,,,,284.5057944119908,None,space,0.537786408996908,284.5057944119908,None,285.12538811398554,None,f,1,0.5822098230128177,285.12538811398554,None,285.7399841633771,None,None,285.7399841633771,None,,3,001,2021_Nov_03_1038,searchDisc4,2021.2.3,60.067682349855694,
images/exp1b_trial_170_colour3_distractors1_r.png,r,j,1b,170,3,1,,,,,0,72,72,407,,,,,,,,,,,,,,,,,,,,,,,,,,,,,,,,,,,,,,,,,,,,,,,,,,,,,,,,,,,,,,,,,,,,,,,,,,,,285.73946195299504,None,space,0.3121601400198415,285.73946195299504,None,286.12521223697695,None,j,1,0.4865140829933807,286.12521223697695,None,286.63992256039927,None,None,286.63992256039927,None,,3,001,2021_Nov_03_1038,searchDisc4,2021.2.3,60.067682349855694,
images/exp2a_trial_169_colour2_distractors31_r.png,r,j,2a,169,2,31,,,,,0,73,73,598,,,,,,,,,,,,,,,,,,,,,,,,,,,,,,,,,,,,,,,,,,,,,,,,,,,,,,,,,,,,,,,,,,,,,,,,,,,,286.6392649759946,None,space,0.4604319260106422,286.6392649759946,None,287.17595764200087,None,j,1,0.6038366960128769,287.17595764200087,None,287.8067063303926,None,None,287.8067063303926,None,,3,001,2021_Nov_03_1038,searchDisc4,2021.2.3,60.067682349855694,
images/exp1a_trial_45_colour3_distractors19_r.png,r,j,1a,45,3,19,,,,,0,74,74,90,,,,,,,,,,,,,,,,,,,,,,,,,,,,,,,,,,,,,,,,,,,,,,,,,,,,,,,,,,,,,,,,,,,,,,,,,,,,287.80589644098654,None,space,0.4138506240269635,287.80589644098654,None,288.2920294069918,None,j,1,0.5917994900082704,288.2920294069918,None,288.9065756383963,None,None,288.9065756383963,None,,3,001,2021_Nov_03_1038,searchDisc4,2021.2.3,60.067682349855694,
images/exp1a_trial_79_colour1_distractors1_l.png,l,f,1a,79,1,1,,,,,0,75,75,124,,,,,,,,,,,,,,,,,,,,,,,,,,,,,,,,,,,,,,,,,,,,,,,,,,,,,,,,,,,,,,,,,,,,,,,,,,,,288.9060941639764,None,space,0.3056566409941297,288.9060941639764,None,289.29176414897665,None,f,1,0.736120588000631,289.29176414897665,None,290.05666263538586,None,None,290.05666263538586,None,,3,001,2021_Nov_03_1038,searchDisc4,2021.2.3,60.067682349855694,
images/exp1b_trial_186_colour3_distractors4_l.png,l,f,1b,186,3,4,,,,,0,76,76,423,,,,,,,,,,,,,,,,,,,,,,,,,,,,,,,,,,,,,,,,,,,,,,,,,,,,,,,,,,,,,,,,,,,,,,,,,,,,290.0560047600011,None,space,0.2677437060046941,290.0560047600011,None,290.3919472619891,None,f,1,0.8759957459988073,290.3919472619891,None,291.289498480389,None,None,291.289498480389,None,,3,001,2021_Nov_03_1038,searchDisc4,2021.2.3,60.067682349855694,
images/exp2c_trial_20_colour2_distractors1_l.png,l,f,2c,20,2,1,,,,,0,77,77,833,,,,,,,,,,,,,,,,,,,,,,,,,,,,,,,,,,,,,,,,,,,,,,,,,,,,,,,,,,,,,,,,,,,,,,,,,,,,291.2898497909773,None,space,0.4180431260028854,291.2898497909773,None,291.77250343898777,None,f,1,0.5754734639776871,291.77250343898777,None,292.3733217433939,None,None,292.3733217433939,None,,3,001,2021_Nov_03_1038,searchDisc4,2021.2.3,60.067682349855694,
images/exp2a_trial_103_colour2_distractors9_r.png,r,j,2a,103,2,9,,,,,0,78,78,532,,,,,,,,,,,,,,,,,,,,,,,,,,,,,,,,,,,,,,,,,,,,,,,,,,,,,,,,,,,,,,,,,,,,,,,,,,,,292.3731411729823,None,space,0.3908160790160764,292.3731411729823,None,292.84215713499,None,j,1,0.5698821110127028,292.84215713499,None,293.4400662283908,None,None,293.4400662283908,None,,3,001,2021_Nov_03_1038,searchDisc4,2021.2.3,60.067682349855694,
images/exp2c_trial_47_colour1_distractors1_l.png,l,f,2c,47,1,1,,,,,0,79,79,860,,,,,,,,,,,,,,,,,,,,,,,,,,,,,,,,,,,,,,,,,,,,,,,,,,,,,,,,,,,,,,,,,,,,,,,,,,,,293.4393965670024,None,space,0.332557893008925,293.4393965670024,None,293.8421049339813,None,f,1,0.5459236119932029,293.8421049339813,None,294.40600625938094,None,None,294.40600625938094,None,,3,001,2021_Nov_03_1038,searchDisc4,2021.2.3,60.067682349855694,
images/exp2a_trial_86_colour2_distractors9_l.png,l,f,2a,86,2,9,,,,,0,80,80,515,,,,,,,,,,,,,,,,,,,,,,,,,,,,,,,,,,,,,,,,,,,,,,,,,,,,,,,,,,,,,,,,,,,,,,,,,,,,294.4065091639932,None,space,0.3336042400042061,294.4065091639932,None,294.80853410999407,None,f,1,0.5075153110083193,294.80853410999407,None,295.3398923933884,None,None,295.3398923933884,None,,3,001,2021_Nov_03_1038,searchDisc4,2021.2.3,60.067682349855694,
images/exp2c_trial_112_colour1_distractors4_l.png,l,f,2c,112,1,4,,,,,0,81,81,925,,,,,,,,,,,,,,,,,,,,,,,,,,,,,,,,,,,,,,,,,,,,,,,,,,,,,,,,,,,,,,,,,,,,,,,,,,,,295.3394390079775,None,space,0.3686549240082968,295.3394390079775,None,295.7754422519938,None,f,1,0.5487218700000085,295.7754422519938,None,296.35678070239663,None,None,296.35678070239663,None,,3,001,2021_Nov_03_1038,searchDisc4,2021.2.3,60.067682349855694,
images/exp2b_trial_153_colour3_distractors1_l.png,l,f,2b,153,3,1,,,,,0,82,82,774,,,,,,,,,,,,,,,,,,,,,,,,,,,,,,,,,,,,,,,,,,,,,,,,,,,,,,,,,,,,,,,,,,,,,,,,,,,,296.35656851000385,None,space,0.3835719340131618,296.35656851000385,None,296.80888780599344,None,f,1,0.5873531590041239,296.80888780599344,None,297.4236039723939,None,None,297.4236039723939,None,,3,001,2021_Nov_03_1038,searchDisc4,2021.2.3,60.067682349855694,
images/exp1a_trial_95_colour0_distractors0_l.png,l,f,1a,95,0,0,,,,,0,83,83,140,,,,,,,,,,,,,,,,,,,,,,,,,,,,,,,,,,,,,,,,,,,,,,,,,,,,,,,,,,,,,,,,,,,,,,,,,,,,297.42306857698713,None,space,0.2931188910151832,297.42306857698713,None,297.7923103919893,None,f,1,0.6519520790025126,297.7923103919893,None,298.47361756139725,None,None,298.47361756139725,None,,3,001,2021_Nov_03_1038,searchDisc4,2021.2.3,60.067682349855694,
images/exp1b_trial_34_colour1_distractors9_r.png,r,j,1b,34,1,9,,,,,0,84,84,271,,,,,,,,,,,,,,,,,,,,,,,,,,,,,,,,,,,,,,,,,,,,,,,,,,,,,,,,,,,,,,,,,,,,,,,,,,,,298.47319882697775,None,space,0.33103300401126035,298.47319882697775,None,298.87546610998106,None,j,1,0.6088434160046745,298.87546610998106,None,299.50697445040277,None,None,299.50697445040277,None,,3,001,2021_Nov_03_1038,searchDisc4,2021.2.3,60.067682349855694,
images/exp2b_trial_188_colour3_distractors19_l.png,l,f,2b,188,3,19,,,,,0,85,85,809,,,,,,,,,,,,,,,,,,,,,,,,,,,,,,,,,,,,,,,,,,,,,,,,,,,,,,,,,,,,,,,,,,,,,,,,,,,,299.5067863779841,None,space,0.34548566001467407,299.5067863779841,None,299.9255660609924,None,f,1,0.582710800023051,299.9255660609924,None,300.53970918339036,None,None,300.53970918339036,None,,3,001,2021_Nov_03_1038,searchDisc4,2021.2.3,60.067682349855694,
images/exp2b_trial_130_colour1_distractors9_r.png,r,j,2b,130,1,9,,,,,0,86,86,751,,,,,,,,,,,,,,,,,,,,,,,,,,,,,,,,,,,,,,,,,,,,,,,,,,,,,,,,,,,,,,,,,,,,,,,,,,,,300.53948137399857,None,space,0.33675989299081266,300.53948137399857,None,300.9589795449865,None,j,1,0.5334447149944026,300.9589795449865,None,301.5237341003987,None,None,301.5237341003987,None,,3,001,2021_Nov_03_1038,searchDisc4,2021.2.3,60.067682349855694,
images/exp2b_trial_105_colour2_distractors31_r.png,r,j,2b,105,2,31,,,,,0,87,87,726,,,,,,,,,,,,,,,,,,,,,,,,,,,,,,,,,,,,,,,,,,,,,,,,,,,,,,,,,,,,,,,,,,,,,,,,,,,,301.52356929698726,None,space,0.3448017909831833,301.52356929698726,None,301.94237751798937,None,j,1,0.5660579860268626,301.94237751798937,None,302.5403976413974,None,None,302.5403976413974,None,,3,001,2021_Nov_03_1038,searchDisc4,2021.2.3,60.067682349855694,
images/exp1a_trial_83_colour1_distractors31_l.png,l,f,1a,83,1,31,,,,,0,88,88,128,,,,,,,,,,,,,,,,,,,,,,,,,,,,,,,,,,,,,,,,,,,,,,,,,,,,,,,,,,,,,,,,,,,,,,,,,,,,302.53972764799255,None,space,0.34468246399774216,302.53972764799255,None,302.95912321298965,None,f,1,0.6933782389969565,302.95912321298965,None,303.6729364343948,None,None,303.6729364343948,None,,3,001,2021_Nov_03_1038,searchDisc4,2021.2.3,60.067682349855694,
images/exp2a_trial_146_colour1_distractors19_l.png,l,f,2a,146,1,19,,,,,0,89,89,575,,,,,,,,,,,,,,,,,,,,,,,,,,,,,,,,,,,,,,,,,,,,,,,,,,,,,,,,,,,,,,,,,,,,,,,,,,,,303.6733268889948,None,space,0.4751434280187823,303.6733268889948,None,304.2258068319934,None,f,1,0.7146549280150793,304.2258068319934,None,304.973739156386,None,None,304.973739156386,None,,3,001,2021_Nov_03_1038,searchDisc4,2021.2.3,60.067682349855694,
images/exp2a_trial_100_colour1_distractors31_r.png,r,j,2a,100,1,31,,,,,0,90,90,529,,,,,,,,,,,,,,,,,,,,,,,,,,,,,,,,,,,,,,,,,,,,,,,,,,,,,,,,,,,,,,,,,,,,,,,,,,,,304.9735961139959,None,space,0.33493718499084935,304.9735961139959,None,305.3757957389753,None,j,1,0.5487124740029685,305.3757957389753,None,305.95713202338374,None,None,305.95713202338374,None,,3,001,2021_Nov_03_1038,searchDisc4,2021.2.3,60.067682349855694,
images/exp1b_trial_180_colour2_distractors1_l.png,l,f,1b,180,2,1,,,,,0,91,91,417,,,,,,,,,,,,,,,,,,,,,,,,,,,,,,,,,,,,,,,,,,,,,,,,,,,,,,,,,,,,,,,,,,,,,,,,,,,,305.95655857698875,None,space,0.36801883499720134,305.95655857698875,None,306.392463865981,None,f,1,0.5562011279980652,306.392463865981,None,306.9734122763941,None,None,306.9734122763941,None,,3,001,2021_Nov_03_1038,searchDisc4,2021.2.3,60.067682349855694,
images/exp2b_trial_112_colour1_distractors4_l.png,l,f,2b,112,1,4,,,,,0,92,92,733,,,,,,,,,,,,,,,,,,,,,,,,,,,,,,,,,,,,,,,,,,,,,,,,,,,,,,,,,,,,,,,,,,,,,,,,,,,,306.9735663140018,None,space,0.3190329500066582,306.9735663140018,None,307.36409691898734,None,f,1,0.5925082769826986,307.36409691898734,None,307.9739079483872,None,None,307.9739079483872,None,,3,001,2021_Nov_03_1038,searchDisc4,2021.2.3,60.067682349855694,
images/exp1b_trial_59_colour3_distractors9_l.png,l,f,1b,59,3,9,,,,,0,93,93,296,,,,,,,,,,,,,,,,,,,,,,,,,,,,,,,,,,,,,,,,,,,,,,,,,,,,,,,,,,,,,,,,,,,,,,,,,,,,307.97358013500343,None,space,0.3430752800195478,307.97358013500343,None,308.39241778099677,None,f,1,1.1883062070119195,308.39241778099677,None,309.6072387533815,None,None,309.6072387533815,None,,3,001,2021_Nov_03_1038,searchDisc4,2021.2.3,60.067682349855694,
images/exp2a_trial_6_colour2_distractors4_r.png,r,j,2a,6,2,4,,,,,0,94,94,435,,,,,,,,,,,,,,,,,,,,,,,,,,,,,,,,,,,,,,,,,,,,,,,,,,,,,,,,,,,,,,,,,,,,,,,,,,,,309.60695387099986,None,space,0.28570026997476816,309.60695387099986,None,309.9752876969869,None,j,1,0.5734994340164121,309.9752876969869,None,310.5737106073968,None,None,310.5737106073968,None,,3,001,2021_Nov_03_1038,searchDisc4,2021.2.3,60.067682349855694,
images/exp2b_trial_50_colour1_distractors19_l.png,l,f,2b,50,1,19,,,,,0,95,95,671,,,,,,,,,,,,,,,,,,,,,,,,,,,,,,,,,,,,,,,,,,,,,,,,,,,,,,,,,,,,,,,,,,,,,,,,,,,,310.57366609497694,None,space,0.3110845669871196,310.57366609497694,None,310.95936773499125,None,f,1,0.5814035979856271,310.95936773499125,None,311.5738991663995,None,None,311.5738991663995,None,,3,001,2021_Nov_03_1038,searchDisc4,2021.2.3,60.067682349855694,
images/exp2b_trial_84_colour2_distractors1_l.png,l,f,2b,84,2,1,,,,,0,96,96,705,,,,,,,,,,,,,,,,,,,,,,,,,,,,,,,,,,,,,,,,,,,,,,,,,,,,,,,,,,,,,,,,,,,,,,,,,,,,311.57363090699073,None,space,0.2791640780051239,311.57363090699073,None,311.92608856598963,None,f,1,0.5668019599979743,311.92608856598963,None,312.52408077637955,None,None,312.52408077637955,None,,3,001,2021_Nov_03_1038,searchDisc4,2021.2.3,60.067682349855694,
images/exp2b_trial_106_colour3_distractors1_r.png,r,j,2b,106,3,1,,,,,0,97,97,727,,,,,,,,,,,,,,,,,,,,,,,,,,,,,,,,,,,,,,,,,,,,,,,,,,,,,,,,,,,,,,,,,,,,,,,,,,,,312.5234637759859,None,space,0.30540137499338016,312.5234637759859,None,312.9092692679842,None,j,1,0.7916874039801769,312.9092692679842,None,313.7237365403882,None,None,313.7237365403882,None,,3,001,2021_Nov_03_1038,searchDisc4,2021.2.3,60.067682349855694,
images/exp2c_trial_181_colour2_distractors4_l.png,l,f,2c,181,2,4,,,,,0,98,98,34,,,,,,,,,,,,,,,,,,,,,,,,,,,,,,,,,,,,,,,,,,,,,,,,,,,,,,,,,,,,,,,,,,,,,,,,,,,,313.7238922609831,None,space,0.3130339740018826,313.7238922609831,None,314.1093391739996,None,f,1,0.591676046984503,314.1093391739996,None,314.72374193938157,None,None,314.72374193938157,None,,3,001,2021_Nov_03_1038,searchDisc4,2021.2.3,60.067682349855694,
images/exp2c_trial_65_colour1_distractors4_r.png,r,j,2c,65,1,4,,,,,0,99,99,878,,,,,,,,,,,,,,,,,,,,,,,,,,,,,,,,,,,,,,,,,,,,,,,,,,,,,,,,,,,,,,,,,,,,,,,,,,,,314.72376885000267,None,space,0.26521981399855576,314.72376885000267,None,315.05927019999945,None,j,1,0.7937953360087704,315.05927019999945,None,315.87335680338145,None,None,315.87335680338145,None,,3,001,2021_Nov_03_1038,searchDisc4,2021.2.3,60.067682349855694,
images/exp1a_trial_14_colour3_distractors31_r.png,r,j,1a,14,3,31,,,,,0,100,100,59,,,,,,,,,,,,,,,,,,,,,,,,,,,,,,,,,,,,,,,,,,,,,,,,,,,,,,,,,,,,,,,,,,,,,,,,,,,,315.8735810809885,None,space,0.2914326460158918,315.8735810809885,None,316.2428199989954,None,j,1,0.6662990219774656,316.2428199989954,None,316.9406718843995,None,None,316.9406718843995,None,,3,001,2021_Nov_03_1038,searchDisc4,2021.2.3,60.067682349855694,
images/exp1a_trial_101_colour2_distractors1_r.png,r,j,1a,101,2,1,,,,,0,101,101,146,,,,,,,,,,,,,,,,,,,,,,,,,,,,,,,,,,,,,,,,,,,,,,,,,,,,,,,,,,,,,,,,,,,,,,,,,,,,316.9402013630024,None,space,0.3208846029883716,316.9402013630024,None,317.34274327897583,None,j,1,0.6544266130076721,317.34274327897583,None,318.0241773563932,None,None,318.0241773563932,None,,3,001,2021_Nov_03_1038,searchDisc4,2021.2.3,60.067682349855694,
images/exp2c_trial_143_colour1_distractors1_l.png,l,f,2c,143,1,1,,,,,0,102,102,956,,,,,,,,,,,,,,,,,,,,,,,,,,,,,,,,,,,,,,,,,,,,,,,,,,,,,,,,,,,,,,,,,,,,,,,,,,,,318.0238002729893,None,space,0.3973641880147625,318.0238002729893,None,318.4741465479892,None,f,1,1.003101588023128,318.4741465479892,None,319.50737591838987,None,None,319.50737591838987,None,,3,001,2021_Nov_03_1038,searchDisc4,2021.2.3,60.067682349855694,
images/exp2c_trial_81_colour1_distractors9_l.png,l,f,2c,81,1,9,,,,,0,103,103,894,,,,,,,,,,,,,,,,,,,,,,,,,,,,,,,,,,,,,,,,,,,,,,,,,,,,,,,,,,,,,,,,,,,,,,,,,,,,319.5066527710005,None,space,0.2905589400033932,319.5066527710005,None,319.87623005599016,None,f,1,0.5130591959750745,319.87623005599016,None,320.40710728240373,None,None,320.40710728240373,None,,3,001,2021_Nov_03_1038,searchDisc4,2021.2.3,60.067682349855694,
images/exp1a_trial_129_colour1_distractors4_r.png,r,j,1a,129,1,4,,,,,0,104,104,174,,,,,,,,,,,,,,,,,,,,,,,,,,,,,,,,,,,,,,,,,,,,,,,,,,,,,,,,,,,,,,,,,,,,,,,,,,,,320.40656885298085,None,space,0.26266316100372933,320.40656885298085,None,320.7428040809755,None,j,1,0.550537233997602,320.7428040809755,None,321.3241483444028,None,None,321.3241483444028,None,,3,001,2021_Nov_03_1038,searchDisc4,2021.2.3,60.067682349855694,
images/exp2c_trial_95_colour0_distractors0_l.png,l,f,2c,95,0,0,,,,,0,105,105,908,,,,,,,,,,,,,,,,,,,,,,,,,,,,,,,,,,,,,,,,,,,,,,,,,,,,,,,,,,,,,,,,,,,,,,,,,,,,321.32334508097847,None,space,0.2419273580017034,321.32334508097847,None,321.63125584999216,None,f,1,0.566115797002567,321.63125584999216,None,322.2241597873828,None,None,322.2241597873828,None,,3,001,2021_Nov_03_1038,searchDisc4,2021.2.3,60.067682349855694,
images/exp1b_trial_33_colour1_distractors4_r.png,r,j,1b,33,1,4,,,,,0,106,106,270,,,,,,,,,,,,,,,,,,,,,,,,,,,,,,,,,,,,,,,,,,,,,,,,,,,,,,,,,,,,,,,,,,,,,,,,,,,,322.22369184400304,None,space,0.15752593299839646,322.22369184400304,None,322.4588675109844,None,j,1,0.618538857990643,322.4588675109844,None,323.10769005140463,None,None,323.10769005140463,None,,3,001,2021_Nov_03_1038,searchDisc4,2021.2.3,60.067682349855694,
images/exp1b_trial_119_colour2_distractors19_l.png,l,f,1b,119,2,19,,,,,0,107,107,356,,,,,,,,,,,,,,,,,,,,,,,,,,,,,,,,,,,,,,,,,,,,,,,,,,,,,,,,,,,,,,,,,,,,,,,,,,,,323.10722901899135,None,space,0.15412910201121122,323.10722901899135,None,323.3428868649935,None,f,1,0.5345446309947874,323.3428868649935,None,323.90776896538154,None,None,323.90776896538154,None,,3,001,2021_Nov_03_1038,searchDisc4,2021.2.3,60.067682349855694,
images/exp1a_trial_127_colour0_distractors0_l.png,l,f,1a,127,0,0,,,,,0,108,108,172,,,,,,,,,,,,,,,,,,,,,,,,,,,,,,,,,,,,,,,,,,,,,,,,,,,,,,,,,,,,,,,,,,,,,,,,,,,,323.90738298898214,None,space,0.13801118099945597,323.90738298898214,None,324.12614907498937,None,f,1,0.5593161419965327,324.12614907498937,None,324.70706378139147,None,None,324.70706378139147,None,,3,001,2021_Nov_03_1038,searchDisc4,2021.2.3,60.067682349855694,
images/exp1a_trial_120_colour2_distractors31_l.png,l,f,1a,120,2,31,,,,,0,109,109,165,,,,,,,,,,,,,,,,,,,,,,,,,,,,,,,,,,,,,,,,,,,,,,,,,,,,,,,,,,,,,,,,,,,,,,,,,,,,324.70740553198266,None,space,0.11398101301165298,324.70740553198266,None,324.909337021003,None,f,1,0.6721139760047663,324.909337021003,None,325.6075183773966,None,None,325.6075183773966,None,,3,001,2021_Nov_03_1038,searchDisc4,2021.2.3,60.067682349855694,
images/exp1a_trial_142_colour3_distractors31_r.png,r,j,1a,142,3,31,,,,,0,110,110,187,,,,,,,,,,,,,,,,,,,,,,,,,,,,,,,,,,,,,,,,,,,,,,,,,,,,,,,,,,,,,,,,,,,,,,,,,,,,325.607047544996,None,space,0.09435037599178031,325.607047544996,None,325.7755716829852,None,j,1,0.6299210560100619,325.7755716829852,None,326.42350444139737,None,None,326.42350444139737,None,,3,001,2021_Nov_03_1038,searchDisc4,2021.2.3,60.067682349855694,
images/exp2b_trial_75_colour3_distractors4_r.png,r,j,2b,75,3,4,,,,,0,111,111,696,,,,,,,,,,,,,,,,,,,,,,,,,,,,,,,,,,,,,,,,,,,,,,,,,,,,,,,,,,,,,,,,,,,,,,,,,,,,326.4240400379931,None,space,0.17338006300269626,326.4240400379931,None,326.67643987498013,None,f,0,0.6010899620014243,326.67643987498013,None,327.30693199739034,None,None,327.30693199739034,None,,3,001,2021_Nov_03_1038,searchDisc4,2021.2.3,60.067682349855694,
images/exp1a_trial_112_colour1_distractors4_l.png,l,f,1a,112,1,4,,,,,0,112,112,157,,,,,,,,,,,,,,,,,,,,,,,,,,,,,,,,,,,,,,,,,,,,,,,,,,,,,,,,,,,,,,,,,,,,,,,,,,,,327.30655282898806,None,space,0.3949333140044473,327.30655282898806,None,327.77641376599786,None,f,1,0.6531695770099759,327.77641376599786,None,328.457651584383,None,None,328.457651584383,None,,3,001,2021_Nov_03_1038,searchDisc4,2021.2.3,60.067682349855694,
images/exp1a_trial_108_colour3_distractors9_r.png,r,j,1a,108,3,9,,,,,0,113,113,153,,,,,,,,,,,,,,,,,,,,,,,,,,,,,,,,,,,,,,,,,,,,,,,,,,,,,,,,,,,,,,,,,,,,,,,,,,,,328.4569711009972,None,space,0.1005022769968491,328.4569711009972,None,328.6261865309789,None,j,1,0.6835130210092757,328.6261865309789,None,329.3409003384033,None,None,329.3409003384033,None,,3,001,2021_Nov_03_1038,searchDisc4,2021.2.3,60.067682349855694,
images/exp1b_trial_138_colour3_distractors1_r.png,r,j,1b,138,3,1,,,,,0,114,114,375,,,,,,,,,,,,,,,,,,,,,,,,,,,,,,,,,,,,,,,,,,,,,,,,,,,,,,,,,,,,,,,,,,,,,,,,,,,,329.340617697977,None,space,0.11302174301818013,329.340617697977,None,329.5263966670027,None,j,1,0.7513392579858191,329.5263966670027,None,330.30780824440006,None,None,330.30780824440006,None,,3,001,2021_Nov_03_1038,searchDisc4,2021.2.3,60.067682349855694,
images/exp1a_trial_33_colour1_distractors4_r.png,r,j,1a,33,1,4,,,,,0,115,115,78,,,,,,,,,,,,,,,,,,,,,,,,,,,,,,,,,,,,,,,,,,,,,,,,,,,,,,,,,,,,,,,,,,,,,,,,,,,,330.30732489097863,None,space,0.15436557299108244,330.30732489097863,None,330.5431316960021,None,j,1,1.3426773920073174,330.5431316960021,None,331.9073148804047,None,None,331.9073148804047,None,,3,001,2021_Nov_03_1038,searchDisc4,2021.2.3,60.067682349855694,
images/exp2b_trial_177_colour1_distractors9_l.png,l,f,2b,177,1,9,,,,,0,116,116,798,,,,,,,,,,,,,,,,,,,,,,,,,,,,,,,,,,,,,,,,,,,,,,,,,,,,,,,,,,,,,,,,,,,,,,,,,,,,331.9068655289884,None,space,0.1388906429929193,331.9068655289884,None,332.125947388995,None,f,1,0.7279020930000115,332.125947388995,None,332.8745217123971,None,None,332.8745217123971,None,,3,001,2021_Nov_03_1038,searchDisc4,2021.2.3,60.067682349855694,
images/exp1a_trial_18_colour1_distractors19_l.png,l,f,1a,18,1,19,,,,,0,117,117,63,,,,,,,,,,,,,,,,,,,,,,,,,,,,,,,,,,,,,,,,,,,,,,,,,,,,,,,,,,,,,,,,,,,,,,,,,,,,332.8737949169881,None,space,0.18000396600109525,332.8737949169881,None,333.1264695569989,None,f,1,0.6874290659907274,333.1264695569989,None,333.8412421983987,None,None,333.8412421983987,None,,3,001,2021_Nov_03_1038,searchDisc4,2021.2.3,60.067682349855694,
images/exp2a_trial_42_colour3_distractors1_r.png,r,j,2a,42,3,1,,,,,0,118,118,471,,,,,,,,,,,,,,,,,,,,,,,,,,,,,,,,,,,,,,,,,,,,,,,,,,,,,,,,,,,,,,,,,,,,,,,,,,,,333.84073491199524,None,space,0.10911600501276553,333.84073491199524,None,334.0259332830028,None,j,1,0.5720403020095546,334.0259332830028,None,334.6246796173829,None,None,334.6246796173829,None,,3,001,2021_Nov_03_1038,searchDisc4,2021.2.3,60.067682349855694,
images/exp2c_trial_160_colour1_distractors1_r.png,r,j,2c,160,1,1,,,,,0,119,119,13,,,,,,,,,,,,,,,,,,,,,,,,,,,,,,,,,,,,,,,,,,,,,,,,,,,,,,,,,,,,,,,,,,,,,,,,,,,,334.6243182789767,None,space,0.14947281900094822,334.6243182789767,None,334.84323886598577,None,j,1,0.6027094400196802,334.84323886598577,None,335.47433668599115,None,c,335.47433668599115,None,8.011995899985777,3,001,2021_Nov_03_1038,searchDisc4,2021.2.3,60.067682349855694,
images/exp2c_trial_148_colour2_distractors1_l.png,l,f,2c,148,2,1,,,,,0,120,120,1,,,,,,,,,,,,,,,,,,,,,,,,,,,,,,,,,,,,,,,,,,,,,,,,,,,,,,,,,,,,,,,,,,,,,,,,,,,,343.51009065899416,None,space,0.9282771490106825,343.51009065899416,None,344.5102292789961,None,f,1,0.7281826919934247,344.5102292789961,None,345.2578838584042,None,None,345.2578838584042,None,,3,001,2021_Nov_03_1038,searchDisc4,2021.2.3,60.067682349855694,
images/exp1a_trial_60_colour3_distractors19_l.png,l,f,1a,60,3,19,,,,,0,121,121,105,,,,,,,,,,,,,,,,,,,,,,,,,,,,,,,,,,,,,,,,,,,,,,,,,,,,,,,,,,,,,,,,,,,,,,,,,,,,345.25724211797933,None,space,0.22105164799722843,345.25724211797933,None,345.5602736400033,None,f,1,0.5501998079998884,345.5602736400033,None,346.1417592673999,None,None,346.1417592673999,None,,3,001,2021_Nov_03_1038,searchDisc4,2021.2.3,60.067682349855694,
images/exp2c_trial_46_colour3_distractors31_r.png,r,j,2c,46,3,31,,,,,0,122,122,859,,,,,,,,,,,,,,,,,,,,,,,,,,,,,,,,,,,,,,,,,,,,,,,,,,,,,,,,,,,,,,,,,,,,,,,,,,,,346.1409199780028,None,space,0.12147051599458791,346.1409199780028,None,346.34344824097934,None,j,1,0.6870377589948475,346.34344824097934,None,347.0583694173867,None,None,347.0583694173867,None,,3,001,2021_Nov_03_1038,searchDisc4,2021.2.3,60.067682349855694,
images/exp2c_trial_166_colour2_distractors4_r.png,r,j,2c,166,2,4,,,,,0,123,123,19,,,,,,,,,,,,,,,,,,,,,,,,,,,,,,,,,,,,,,,,,,,,,,,,,,,,,,,,,,,,,,,,,,,,,,,,,,,,347.05798340399633,None,space,0.1563793029927183,347.05798340399633,None,347.29342004697537,None,j,1,0.6411319619801361,347.29342004697537,None,347.9583956844028,None,None,347.9583956844028,None,,3,001,2021_Nov_03_1038,searchDisc4,2021.2.3,60.067682349855694,
images/exp1b_trial_135_colour2_distractors9_r.png,r,j,1b,135,2,9,,,,,0,124,124,372,,,,,,,,,,,,,,,,,,,,,,,,,,,,,,,,,,,,,,,,,,,,,,,,,,,,,,,,,,,,,,,,,,,,,,,,,,,,347.9578343849862,None,space,0.09665379900252447,347.9578343849862,None,348.12692399398657,None,j,1,1.12767193801119,348.12692399398657,None,349.275120578389,None,None,349.275120578389,None,,3,001,2021_Nov_03_1038,searchDisc4,2021.2.3,60.067682349855694,
images/exp2a_trial_105_colour2_distractors31_r.png,r,j,2a,105,2,31,,,,,0,125,125,534,,,,,,,,,,,,,,,,,,,,,,,,,,,,,,,,,,,,,,,,,,,,,,,,,,,,,,,,,,,,,,,,,,,,,,,,,,,,349.2744799539796,None,space,0.1479556779959239,349.2744799539796,None,349.49467286799336,None,j,1,0.6798556160065345,349.49467286799336,None,350.1919842363888,None,None,350.1919842363888,None,,3,001,2021_Nov_03_1038,searchDisc4,2021.2.3,60.067682349855694,
images/exp2a_trial_153_colour3_distractors1_l.png,l,f,2a,153,3,1,,,,,0,126,126,582,,,,,,,,,,,,,,,,,,,,,,,,,,,,,,,,,,,,,,,,,,,,,,,,,,,,,,,,,,,,,,,,,,,,,,,,,,,,350.191488026001,None,space,0.11109902698080987,350.191488026001,None,350.37697770498926,None,f,1,0.6136545760091394,350.37697770498926,None,351.0083968973806,None,None,351.0083968973806,None,,3,001,2021_Nov_03_1038,searchDisc4,2021.2.3,60.067682349855694,
images/exp1b_trial_26_colour3_distractors4_l.png,l,f,1b,26,3,4,,,,,0,127,127,263,,,,,,,,,,,,,,,,,,,,,,,,,,,,,,,,,,,,,,,,,,,,,,,,,,,,,,,,,,,,,,,,,,,,,,,,,,,,351.007876861986,None,space,0.11077023099642247,351.007876861986,None,351.1934893519792,None,f,1,0.7572361280035693,351.1934893519792,None,351.97511921837867,None,None,351.97511921837867,None,,3,001,2021_Nov_03_1038,searchDisc4,2021.2.3,60.067682349855694,
images/exp1b_trial_183_colour2_distractors19_l.png,l,f,1b,183,2,19,,,,,0,128,128,420,,,,,,,,,,,,,,,,,,,,,,,,,,,,,,,,,,,,,,,,,,,,,,,,,,,,,,,,,,,,,,,,,,,,,,,,,,,,351.97491575797903,None,space,0.039700903987977654,351.97491575797903,None,352.09372376799,None,f,1,0.6410267299797852,352.09372376799,None,352.7587319043843,None,None,352.7587319043843,None,,3,001,2021_Nov_03_1038,searchDisc4,2021.2.3,60.067682349855694,
images/exp2a_trial_11_colour3_distractors4_r.png,r,j,2a,11,3,4,,,,,0,129,129,440,,,,,,,,,,,,,,,,,,,,,,,,,,,,,,,,,,,,,,,,,,,,,,,,,,,,,,,,,,,,,,,,,,,,,,,,,,,,352.7584952939942,None,space,0.04012176601099782,352.7584952939942,None,352.87716079698293,None,j,1,0.5536231720179785,352.87716079698293,None,353.4582096883998,None,None,353.4582096883998,None,,3,001,2021_Nov_03_1038,searchDisc4,2021.2.3,60.067682349855694,
images/exp2c_trial_44_colour3_distractors9_r.png,r,j,2c,44,3,9,,,,,0,130,130,857,,,,,,,,,,,,,,,,,,,,,,,,,,,,,,,,,,,,,,,,,,,,,,,,,,,,,,,,,,,,,,,,,,,,,,,,,,,,353.45753445499577,None,space,0.10112021802342497,353.45753445499577,None,353.62717784399865,None,j,1,0.659640544996364,353.62717784399865,None,354.30847219538117,None,None,354.30847219538117,None,,3,001,2021_Nov_03_1038,searchDisc4,2021.2.3,60.067682349855694,
images/exp1b_trial_178_colour1_distractors19_l.png,l,f,1b,178,1,19,,,,,0,131,131,415,,,,,,,,,,,,,,,,,,,,,,,,,,,,,,,,,,,,,,,,,,,,,,,,,,,,,,,,,,,,,,,,,,,,,,,,,,,,354.30793966399506,None,space,0.09877628501271829,354.30793966399506,None,354.4770809109905,None,f,1,0.8498090530047193,354.4770809109905,None,355.35849403438914,None,None,355.35849403438914,None,,3,001,2021_Nov_03_1038,searchDisc4,2021.2.3,60.067682349855694,
images/exp1a_trial_102_colour2_distractors4_r.png,r,j,1a,102,2,4,,,,,0,132,132,147,,,,,,,,,,,,,,,,,,,,,,,,,,,,,,,,,,,,,,,,,,,,,,,,,,,,,,,,,,,,,,,,,,,,,,,,,,,,355.35835425998084,None,space,0.05648169302730821,355.35835425998084,None,355.4938852239866,None,j,1,0.6330317219835706,355.4938852239866,None,356.1585935073992,None,None,356.1585935073992,None,,3,001,2021_Nov_03_1038,searchDisc4,2021.2.3,60.067682349855694,
images/exp1b_trial_129_colour1_distractors4_r.png,r,j,1b,129,1,4,,,,,0,133,133,366,,,,,,,,,,,,,,,,,,,,,,,,,,,,,,,,,,,,,,,,,,,,,,,,,,,,,,,,,,,,,,,,,,,,,,,,,,,,356.15847852799925,None,space,0.16038643001229502,356.15847852799925,None,356.3938680179999,None,j,1,0.7571004079945851,356.3938680179999,None,357.1749064473872,None,None,357.1749064473872,None,,3,001,2021_Nov_03_1038,searchDisc4,2021.2.3,60.067682349855694,
images/exp1a_trial_52_colour2_distractors1_l.png,l,f,1a,52,2,1,,,,,0,134,134,97,,,,,,,,,,,,,,,,,,,,,,,,,,,,,,,,,,,,,,,,,,,,,,,,,,,,,,,,,,,,,,,,,,,,,,,,,,,,357.1747782289749,None,space,0.16013684100471437,357.1747782289749,None,357.4105429479969,None,f,1,0.5724618879903574,357.4105429479969,None,358.0084284983779,None,None,358.0084284983779,None,,3,001,2021_Nov_03_1038,searchDisc4,2021.2.3,60.067682349855694,
images/exp2c_trial_40_colour2_distractors19_r.png,r,j,2c,40,2,19,,,,,0,135,135,853,,,,,,,,,,,,,,,,,,,,,,,,,,,,,,,,,,,,,,,,,,,,,,,,,,,,,,,,,,,,,,,,,,,,,,,,,,,,358.00807591399644,None,space,0.15889096999308094,358.00807591399644,None,358.24405260698404,None,j,1,0.5310372599924449,358.24405260698404,None,358.7920075863978,None,None,358.7920075863978,None,,3,001,2021_Nov_03_1038,searchDisc4,2021.2.3,60.067682349855694,
images/exp1a_trial_55_colour2_distractors19_l.png,l,f,1a,55,2,19,,,,,0,136,136,100,,,,,,,,,,,,,,,,,,,,,,,,,,,,,,,,,,,,,,,,,,,,,,,,,,,,,,,,,,,,,,,,,,,,,,,,,,,,358.79169259098126,None,space,0.23118593302206136,358.79169259098126,None,359.0940188689856,None,f,1,0.7450782299856655,359.0940188689856,None,359.85848392139013,None,None,359.85848392139013,None,,3,001,2021_Nov_03_1038,searchDisc4,2021.2.3,60.067682349855694,
images/exp1a_trial_0_colour1_distractors1_r.png,r,j,1a,0,1,1,,,,,0,137,137,45,,,,,,,,,,,,,,,,,,,,,,,,,,,,,,,,,,,,,,,,,,,,,,,,,,,,,,,,,,,,,,,,,,,,,,,,,,,,359.8580544589786,None,space,0.14098534401273355,359.8580544589786,None,360.07724727797904,None,j,1,0.585877076984616,360.07724727797904,None,360.69199226639756,None,None,360.69199226639756,None,,3,001,2021_Nov_03_1038,searchDisc4,2021.2.3,60.067682349855694,
images/exp2c_trial_78_colour3_distractors31_r.png,r,j,2c,78,3,31,,,,,0,138,138,891,,,,,,,,,,,,,,,,,,,,,,,,,,,,,,,,,,,,,,,,,,,,,,,,,,,,,,,,,,,,,,,,,,,,,,,,,,,,360.69176952398266,None,space,0.19524683500640094,360.69176952398266,None,360.9608222139941,None,j,1,0.5982589590130374,360.9608222139941,None,361.59204778040584,None,None,361.59204778040584,None,,3,001,2021_Nov_03_1038,searchDisc4,2021.2.3,60.067682349855694,
images/exp1a_trial_28_colour3_distractors19_l.png,l,f,1a,28,3,19,,,,,0,139,139,73,,,,,,,,,,,,,,,,,,,,,,,,,,,,,,,,,,,,,,,,,,,,,,,,,,,,,,,,,,,,,,,,,,,,,,,,,,,,361.5919083839981,None,space,0.20716344600077718,361.5919083839981,None,361.8774003679864,None,f,1,0.6178137550014071,361.8774003679864,None,362.5255188783951,None,None,362.5255188783951,None,,3,001,2021_Nov_03_1038,searchDisc4,2021.2.3,60.067682349855694,
images/exp1b_trial_18_colour1_distractors19_l.png,l,f,1b,18,1,19,,,,,0,140,140,255,,,,,,,,,,,,,,,,,,,,,,,,,,,,,,,,,,,,,,,,,,,,,,,,,,,,,,,,,,,,,,,,,,,,,,,,,,,,362.52511329299887,None,space,0.13805241900263354,362.52511329299887,None,362.7440572199994,None,f,1,0.7272320990159642,362.7440572199994,None,363.4917309084005,None,None,363.4917309084005,None,,3,001,2021_Nov_03_1038,searchDisc4,2021.2.3,60.067682349855694,
images/exp2a_trial_161_colour1_distractors4_r.png,r,j,2a,161,1,4,,,,,0,141,141,590,,,,,,,,,,,,,,,,,,,,,,,,,,,,,,,,,,,,,,,,,,,,,,,,,,,,,,,,,,,,,,,,,,,,,,,,,,,,363.49124381598085,None,space,0.13184530098806135,363.49124381598085,None,363.6940280009876,None,j,1,0.6572606580157299,363.6940280009876,None,364.3752344643901,None,None,364.3752344643901,None,,3,001,2021_Nov_03_1038,searchDisc4,2021.2.3,60.067682349855694,
images/exp2b_trial_27_colour3_distractors9_l.png,l,f,2b,27,3,9,,,,,0,142,142,648,,,,,,,,,,,,,,,,,,,,,,,,,,,,,,,,,,,,,,,,,,,,,,,,,,,,,,,,,,,,,,,,,,,,,,,,,,,,364.37479237499065,None,space,0.2324227679928299,364.37479237499065,None,364.67736645098194,None,f,1,0.5940029289922677,364.67736645098194,None,365.29119558638484,None,None,365.29119558638484,None,,3,001,2021_Nov_03_1038,searchDisc4,2021.2.3,60.067682349855694,
images/exp1a_trial_58_colour3_distractors4_l.png,l,f,1a,58,3,4,,,,,0,143,143,103,,,,,,,,,,,,,,,,,,,,,,,,,,,,,,,,,,,,,,,,,,,,,,,,,,,,,,,,,,,,,,,,,,,,,,,,,,,,365.2919463669823,None,space,0.1312105820106808,365.2919463669823,None,365.4941688760009,None,f,1,0.6251799360034056,365.4941688760009,None,366.14206925139587,None,None,366.14206925139587,None,,3,001,2021_Nov_03_1038,searchDisc4,2021.2.3,60.067682349855694,
images/exp2c_trial_86_colour2_distractors9_l.png,l,f,2c,86,2,9,,,,,0,144,144,899,,,,,,,,,,,,,,,,,,,,,,,,,,,,,,,,,,,,,,,,,,,,,,,,,,,,,,,,,,,,,,,,,,,,,,,,,,,,366.14150824098033,None,space,0.1697323460248299,366.14150824098033,None,366.3814701719966,None,f,1,0.5539021410222631,366.3814701719966,None,366.958857735389,None,None,366.958857735389,None,,3,001,2021_Nov_03_1038,searchDisc4,2021.2.3,60.067682349855694,
images/exp1b_trial_107_colour3_distractors4_r.png,r,j,1b,107,3,4,,,,,0,145,145,344,,,,,,,,,,,,,,,,,,,,,,,,,,,,,,,,,,,,,,,,,,,,,,,,,,,,,,,,,,,,,,,,,,,,,,,,,,,,366.9587298260012,None,space,0.14459923200774938,366.9587298260012,None,367.1774298149976,None,j,1,0.9740036119765136,367.1774298149976,None,368.1755022413883,None,None,368.1755022413883,None,,3,001,2021_Nov_03_1038,searchDisc4,2021.2.3,60.067682349855694,
images/exp1a_trial_110_colour3_distractors31_r.png,r,j,1a,110,3,31,,,,,0,146,146,155,,,,,,,,,,,,,,,,,,,,,,,,,,,,,,,,,,,,,,,,,,,,,,,,,,,,,,,,,,,,,,,,,,,,,,,,,,,,368.1750194229826,None,space,0.13631791801890358,368.1750194229826,None,368.392301964981,None,j,1,0.6631912919983733,368.392301964981,None,369.07582762939563,None,None,369.07582762939563,None,,3,001,2021_Nov_03_1038,searchDisc4,2021.2.3,60.067682349855694,
images/exp2b_trial_114_colour1_distractors19_l.png,l,f,2b,114,1,19,,,,,0,147,147,735,,,,,,,,,,,,,,,,,,,,,,,,,,,,,,,,,,,,,,,,,,,,,,,,,,,,,,,,,,,,,,,,,,,,,,,,,,,,369.07472817000234,None,space,0.16469656498520635,369.07472817000234,None,369.3109050669882,None,f,1,0.592611517990008,369.3109050669882,None,369.9250865173846,None,None,369.9250865173846,None,,3,001,2021_Nov_03_1038,searchDisc4,2021.2.3,60.067682349855694,
images/exp2b_trial_49_colour1_distractors9_l.png,l,f,2b,49,1,9,,,,,0,148,148,670,,,,,,,,,,,,,,,,,,,,,,,,,,,,,,,,,,,,,,,,,,,,,,,,,,,,,,,,,,,,,,,,,,,,,,,,,,,,369.92542876600055,None,space,0.11398836498847231,369.92542876600055,None,370.11088424298214,None,f,1,0.6967105640214868,370.11088424298214,None,370.8254071773874,None,None,370.8254071773874,None,,3,001,2021_Nov_03_1038,searchDisc4,2021.2.3,60.067682349855694,
images/exp1b_trial_77_colour3_distractors19_r.png,r,j,1b,77,3,19,,,,,0,149,149,314,,,,,,,,,,,,,,,,,,,,,,,,,,,,,,,,,,,,,,,,,,,,,,,,,,,,,,,,,,,,,,,,,,,,,,,,,,,,370.82506125298096,None,space,0.11047351401066408,370.82506125298096,None,371.0110883509915,None,f,0,1.1085728069883771,371.0110883509915,None,372.1422475123865,None,None,372.1422475123865,None,,3,001,2021_Nov_03_1038,searchDisc4,2021.2.3,60.067682349855694,
images/exp1b_trial_21_colour2_distractors4_l.png,l,f,1b,21,2,4,,,,,0,150,150,258,,,,,,,,,,,,,,,,,,,,,,,,,,,,,,,,,,,,,,,,,,,,,,,,,,,,,,,,,,,,,,,,,,,,,,,,,,,,372.1420734409767,None,space,0.1935121410060674,372.1420734409767,None,372.41107635499793,None,f,1,1.012626438983716,372.41107635499793,None,373.44181616138957,None,None,373.44181616138957,None,,3,001,2021_Nov_03_1038,searchDisc4,2021.2.3,60.067682349855694,
images/exp2c_trial_39_colour2_distractors9_r.png,r,j,2c,39,2,9,,,,,0,151,151,852,,,,,,,,,,,,,,,,,,,,,,,,,,,,,,,,,,,,,,,,,,,,,,,,,,,,,,,,,,,,,,,,,,,,,,,,,,,,373.44219839799916,None,space,0.10945996700320393,373.44219839799916,None,373.62782739297836,None,j,1,0.5799098850111477,373.62782739297836,None,374.2255685373995,None,None,374.2255685373995,None,,3,001,2021_Nov_03_1038,searchDisc4,2021.2.3,60.067682349855694,
images/exp1a_trial_63_colour0_distractors0_l.png,l,f,1a,63,0,0,,,,,0,152,152,108,,,,,,,,,,,,,,,,,,,,,,,,,,,,,,,,,,,,,,,,,,,,,,,,,,,,,,,,,,,,,,,,,,,,,,,,,,,,374.2249034929846,None,space,0.15870219399221241,374.2249034929846,None,374.46111621698947,None,f,1,0.5626523609971628,374.46111621698947,None,375.0417729023931,None,None,375.0417729023931,None,,3,001,2021_Nov_03_1038,searchDisc4,2021.2.3,60.067682349855694,
images/exp2c_trial_9_colour2_distractors31_r.png,r,j,2c,9,2,31,,,,,0,153,153,822,,,,,,,,,,,,,,,,,,,,,,,,,,,,,,,,,,,,,,,,,,,,,,,,,,,,,,,,,,,,,,,,,,,,,,,,,,,,375.04163164799684,None,space,0.14210221299435943,375.04163164799684,None,375.2611778709979,None,j,1,0.5626352579856757,375.2611778709979,None,375.8418477133993,None,None,375.8418477133993,None,,3,001,2021_Nov_03_1038,searchDisc4,2021.2.3,60.067682349855694,
images/exp2c_trial_83_colour1_distractors31_l.png,l,f,2c,83,1,31,,,,,0,154,154,896,,,,,,,,,,,,,,,,,,,,,,,,,,,,,,,,,,,,,,,,,,,,,,,,,,,,,,,,,,,,,,,,,,,,,,,,,,,,375.842179416999,None,space,0.10154219099786133,375.842179416999,None,376.0254148559761,None,f,1,0.6944501590041909,376.0254148559761,None,376.7423654414044,None,None,376.7423654414044,None,,3,001,2021_Nov_03_1038,searchDisc4,2021.2.3,60.067682349855694,
images/exp2a_trial_57_colour3_distractors1_l.png,l,f,2a,57,3,1,,,,,0,155,155,486,,,,,,,,,,,,,,,,,,,,,,,,,,,,,,,,,,,,,,,,,,,,,,,,,,,,,,,,,,,,,,,,,,,,,,,,,,,,376.74189016700257,None,space,0.13790465501369908,376.74189016700257,None,376.96104668598855,None,f,1,0.5348487820010632,376.96104668598855,None,377.5258259913855,None,None,377.5258259913855,None,,3,001,2021_Nov_03_1038,searchDisc4,2021.2.3,60.067682349855694,
images/exp2c_trial_128_colour1_distractors1_r.png,r,j,2c,128,1,1,,,,,0,156,156,941,,,,,,,,,,,,,,,,,,,,,,,,,,,,,,,,,,,,,,,,,,,,,,,,,,,,,,,,,,,,,,,,,,,,,,,,,,,,377.52554701900226,None,space,0.11432430800050497,377.52554701900226,None,377.7113394699991,None,f,0,0.5685913049965166,377.7113394699991,None,378.30922025838225,None,None,378.30922025838225,None,,3,001,2021_Nov_03_1038,searchDisc4,2021.2.3,60.067682349855694,
images/exp2b_trial_66_colour1_distractors9_r.png,r,j,2b,66,1,9,,,,,0,157,157,687,,,,,,,,,,,,,,,,,,,,,,,,,,,,,,,,,,,,,,,,,,,,,,,,,,,,,,,,,,,,,,,,,,,,,,,,,,,,378.3085974069836,None,space,0.6593083220068365,378.3085974069836,None,379.0445743529999,None,j,1,0.6514437820005696,379.0445743529999,None,379.72585362938406,None,None,379.72585362938406,None,,3,001,2021_Nov_03_1038,searchDisc4,2021.2.3,60.067682349855694,
images/exp2c_trial_164_colour1_distractors31_r.png,r,j,2c,164,1,31,,,,,0,158,158,17,,,,,,,,,,,,,,,,,,,,,,,,,,,,,,,,,,,,,,,,,,,,,,,,,,,,,,,,,,,,,,,,,,,,,,,,,,,,379.7255860589794,None,space,0.1383578170207329,379.7255860589794,None,379.944404371985,None,j,1,0.6716430989908986,379.944404371985,None,380.64247781638113,None,None,380.64247781638113,None,,3,001,2021_Nov_03_1038,searchDisc4,2021.2.3,60.067682349855694,
images/exp1a_trial_43_colour3_distractors4_r.png,r,j,1a,43,3,4,,,,,0,159,159,88,,,,,,,,,,,,,,,,,,,,,,,,,,,,,,,,,,,,,,,,,,,,,,,,,,,,,,,,,,,,,,,,,,,,,,,,,,,,380.64189624998835,None,space,0.24608633798197843,380.64189624998835,None,380.9614417349803,None,j,1,0.6466617510013748,380.9614417349803,None,381.62597585338807,None,None,381.62597585338807,None,,3,001,2021_Nov_03_1038,searchDisc4,2021.2.3,60.067682349855694,
images/exp2b_trial_137_colour2_distractors31_r.png,r,j,2b,137,2,31,,,,,0,160,160,758,,,,,,,,,,,,,,,,,,,,,,,,,,,,,,,,,,,,,,,,,,,,,,,,,,,,,,,,,,,,,,,,,,,,,,,,,,,,381.62564662497607,None,space,0.24632682799710892,381.62564662497607,None,381.94274439799483,None,j,1,0.5933735499856994,381.94274439799483,None,382.5590332283784,None,None,382.5590332283784,None,,3,001,2021_Nov_03_1038,searchDisc4,2021.2.3,60.067682349855694,
images/exp1a_trial_125_colour3_distractors31_l.png,l,f,1a,125,3,31,,,,,0,161,161,170,,,,,,,,,,,,,,,,,,,,,,,,,,,,,,,,,,,,,,,,,,,,,,,,,,,,,,,,,,,,,,,,,,,,,,,,,,,,382.5584775979805,None,space,0.23356003800290637,382.5584775979805,None,382.86129185400205,None,f,1,0.59486846299842,382.86129185400205,None,383.47569909939483,None,None,383.47569909939483,None,,3,001,2021_Nov_03_1038,searchDisc4,2021.2.3,60.067682349855694,
images/exp2a_trial_184_colour2_distractors31_l.png,l,f,2a,184,2,31,,,,,0,162,162,613,,,,,,,,,,,,,,,,,,,,,,,,,,,,,,,,,,,,,,,,,,,,,,,,,,,,,,,,,,,,,,,,,,,,,,,,,,,,383.47527253598673,None,space,0.18085261198575608,383.47527253598673,None,383.72791155599407,None,f,1,0.7923090109834448,383.72791155599407,None,384.5428528703953,None,None,384.5428528703953,None,,3,001,2021_Nov_03_1038,searchDisc4,2021.2.3,60.067682349855694,
images/exp1a_trial_171_colour3_distractors4_r.png,r,j,1a,171,3,4,,,,,0,163,163,216,,,,,,,,,,,,,,,,,,,,,,,,,,,,,,,,,,,,,,,,,,,,,,,,,,,,,,,,,,,,,,,,,,,,,,,,,,,,384.5416887909814,None,space,0.09047882500453852,384.5416887909814,None,384.71139028298785,None,j,1,0.5288978460012004,384.71139028298785,None,385.2584535193775,None,None,385.2584535193775,None,,3,001,2021_Nov_03_1038,searchDisc4,2021.2.3,60.067682349855694,
images/exp1b_trial_45_colour3_distractors19_r.png,r,j,1b,45,3,19,,,,,0,164,164,282,,,,,,,,,,,,,,,,,,,,,,,,,,,,,,,,,,,,,,,,,,,,,,,,,,,,,,,,,,,,,,,,,,,,,,,,,,,,385.259305302985,None,space,0.2289033579872921,385.259305302985,None,385.56136964898906,None,j,1,1.0148588739975821,385.56136964898906,None,386.6095420343947,None,None,386.6095420343947,None,,3,001,2021_Nov_03_1038,searchDisc4,2021.2.3,60.067682349855694,
images/exp2c_trial_102_colour2_distractors4_r.png,r,j,2c,102,2,4,,,,,0,165,165,915,,,,,,,,,,,,,,,,,,,,,,,,,,,,,,,,,,,,,,,,,,,,,,,,,,,,,,,,,,,,,,,,,,,,,,,,,,,,386.6087523579772,None,space,0.1754941149847582,386.6087523579772,None,386.86128050097614,None,j,1,0.5950718990061432,386.86128050097614,None,387.47569336140003,None,None,387.47569336140003,None,,3,001,2021_Nov_03_1038,searchDisc4,2021.2.3,60.067682349855694,
images/exp2c_trial_79_colour1_distractors1_l.png,l,f,2c,79,1,1,,,,,0,166,166,892,,,,,,,,,,,,,,,,,,,,,,,,,,,,,,,,,,,,,,,,,,,,,,,,,,,,,,,,,,,,,,,,,,,,,,,,,,,,387.47520998699474,None,space,0.19710046099498868,387.47520998699474,None,387.7441595669952,None,f,1,0.6082247479935177,387.7441595669952,None,388.3761240374035,None,None,388.3761240374035,None,,3,001,2021_Nov_03_1038,searchDisc4,2021.2.3,60.067682349855694,
images/exp2a_trial_188_colour3_distractors19_l.png,l,f,2a,188,3,19,,,,,0,167,167,617,,,,,,,,,,,,,,,,,,,,,,,,,,,,,,,,,,,,,,,,,,,,,,,,,,,,,,,,,,,,,,,,,,,,,,,,,,,,388.37551972898655,None,space,0.16883970602066256,388.37551972898655,None,388.6115413599764,None,f,1,0.6848991170118097,388.6115413599764,None,389.32616463539597,None,None,389.32616463539597,None,,3,001,2021_Nov_03_1038,searchDisc4,2021.2.3,60.067682349855694,
images/exp1a_trial_106_colour3_distractors1_r.png,r,j,1a,106,3,1,,,,,0,168,168,151,,,,,,,,,,,,,,,,,,,,,,,,,,,,,,,,,,,,,,,,,,,,,,,,,,,,,,,,,,,,,,,,,,,,,,,,,,,,389.3254781930009,None,space,0.16290930399554782,389.3254781930009,None,389.5613593960006,None,j,1,0.5351257169968449,389.5613593960006,None,390.1261370444001,None,None,390.1261370444001,None,,3,001,2021_Nov_03_1038,searchDisc4,2021.2.3,60.067682349855694,
images/exp1b_trial_47_colour1_distractors1_l.png,l,f,1b,47,1,1,,,,,0,169,169,284,,,,,,,,,,,,,,,,,,,,,,,,,,,,,,,,,,,,,,,,,,,,,,,,,,,,,,,,,,,,,,,,,,,,,,,,,,,,390.1260164839914,None,space,0.21041982001042925,390.1260164839914,None,390.41147396698943,None,f,1,0.6450419659959152,390.41147396698943,None,391.0759071413806,None,None,391.0759071413806,None,,3,001,2021_Nov_03_1038,searchDisc4,2021.2.3,60.067682349855694,
images/exp2a_trial_25_colour3_distractors1_l.png,l,f,2a,25,3,1,,,,,0,170,170,454,,,,,,,,,,,,,,,,,,,,,,,,,,,,,,,,,,,,,,,,,,,,,,,,,,,,,,,,,,,,,,,,,,,,,,,,,,,,391.0756216569862,None,space,0.15685900300741196,391.0756216569862,None,391.31168376200367,None,f,1,0.5847852919832803,391.31168376200367,None,391.9259359983873,None,None,391.9259359983873,None,,3,001,2021_Nov_03_1038,searchDisc4,2021.2.3,60.067682349855694,
images/exp1b_trial_16_colour1_distractors4_l.png,l,f,1b,16,1,4,,,,,0,171,171,253,,,,,,,,,,,,,,,,,,,,,,,,,,,,,,,,,,,,,,,,,,,,,,,,,,,,,,,,,,,,,,,,,,,,,,,,,,,,391.92598756897496,None,space,0.1305012219818309,391.92598756897496,None,392.12825021200115,None,f,1,0.6323311960150022,392.12825021200115,None,392.79296190239546,None,None,392.79296190239546,None,,3,001,2021_Nov_03_1038,searchDisc4,2021.2.3,60.067682349855694,
images/exp2a_trial_122_colour3_distractors4_l.png,l,f,2a,122,3,4,,,,,0,172,172,551,,,,,,,,,,,,,,,,,,,,,,,,,,,,,,,,,,,,,,,,,,,,,,,,,,,,,,,,,,,,,,,,,,,,,,,,,,,,392.7922275640012,None,space,0.11230904498370364,392.7922275640012,None,392.9782588050002,None,f,1,0.7743616920197383,392.9782588050002,None,393.7759804733825,None,None,393.7759804733825,None,,3,001,2021_Nov_03_1038,searchDisc4,2021.2.3,60.067682349855694,
images/exp1a_trial_176_colour1_distractors4_l.png,l,f,1a,176,1,4,,,,,0,173,173,221,,,,,,,,,,,,,,,,,,,,,,,,,,,,,,,,,,,,,,,,,,,,,,,,,,,,,,,,,,,,,,,,,,,,,,,,,,,,393.7753822209779,None,space,0.1211900299822446,393.7753822209779,None,393.97820026800036,None,f,1,0.638388985011261,393.97820026800036,None,394.6429953943909,None,None,394.6429953943909,None,,3,001,2021_Nov_03_1038,searchDisc4,2021.2.3,60.067682349855694,
images/exp1a_trial_49_colour1_distractors9_l.png,l,f,1a,49,1,9,,,,,0,174,174,94,,,,,,,,,,,,,,,,,,,,,,,,,,,,,,,,,,,,,,,,,,,,,,,,,,,,,,,,,,,,,,,,,,,,,,,,,,,,394.64226167000015,None,space,0.09435013198526576,394.64226167000015,None,394.8117189089826,None,f,1,0.6609106970136054,394.8117189089826,None,395.49317620237997,None,None,395.49317620237997,None,,3,001,2021_Nov_03_1038,searchDisc4,2021.2.3,60.067682349855694,
images/exp1b_trial_152_colour2_distractors31_l.png,l,f,1b,152,2,31,,,,,0,175,175,389,,,,,,,,,,,,,,,,,,,,,,,,,,,,,,,,,,,,,,,,,,,,,,,,,,,,,,,,,,,,,,,,,,,,,,,,,,,,395.4918815039855,None,space,0.11669209998217411,395.4918815039855,None,395.67819691699697,None,f,1,0.8025446989922784,395.67819691699697,None,396.5096664353943,None,None,396.5096664353943,None,,3,001,2021_Nov_03_1038,searchDisc4,2021.2.3,60.067682349855694,
images/exp1b_trial_127_colour0_distractors0_l.png,l,f,1b,127,0,0,,,,,0,176,176,364,,,,,,,,,,,,,,,,,,,,,,,,,,,,,,,,,,,,,,,,,,,,,,,,,,,,,,,,,,,,,,,,,,,,,,,,,,,,396.5094242589839,None,space,0.09125951901660301,396.5094242589839,None,396.6785045359866,None,f,1,0.7143600220151711,396.6785045359866,None,397.4097789673862,None,None,397.4097789673862,None,,3,001,2021_Nov_03_1038,searchDisc4,2021.2.3,60.067682349855694,
images/exp1a_trial_177_colour1_distractors9_l.png,l,f,1a,177,1,9,,,,,0,177,177,222,,,,,,,,,,,,,,,,,,,,,,,,,,,,,,,,,,,,,,,,,,,,,,,,,,,,,,,,,,,,,,,,,,,,,,,,,,,,397.40946991698,None,space,0.15126425700145774,397.40946991698,None,397.62828153398004,None,f,1,0.7325138809974305,397.62828153398004,None,398.3932010763994,None,None,398.3932010763994,None,,3,001,2021_Nov_03_1038,searchDisc4,2021.2.3,60.067682349855694,
images/exp2b_trial_55_colour2_distractors19_l.png,l,f,2b,55,2,19,,,,,0,178,178,676,,,,,,,,,,,,,,,,,,,,,,,,,,,,,,,,,,,,,,,,,,,,,,,,,,,,,,,,,,,,,,,,,,,,,,,,,,,,398.3926977599913,None,space,0.42406788701191545,398.3926977599913,None,398.8930422979756,None,f,1,0.6278816400154028,398.8930422979756,None,399.5424285683868,None,None,399.5424285683868,None,,3,001,2021_Nov_03_1038,searchDisc4,2021.2.3,60.067682349855694,
images/exp2b_trial_122_colour3_distractors4_l.png,l,f,2b,122,3,4,,,,,0,179,179,743,,,,,,,,,,,,,,,,,,,,,,,,,,,,,,,,,,,,,,,,,,,,,,,,,,,,,,,,,,,,,,,,,,,,,,,,,,,,399.54298843999277,None,space,0.14584348499192856,399.54298843999277,None,399.76170659798663,None,f,1,0.6471451629768126,399.76170659798663,None,400.4264970733813,None,None,400.4264970733813,None,,3,001,2021_Nov_03_1038,searchDisc4,2021.2.3,60.067682349855694,
images/exp1a_trial_174_colour3_distractors31_r.png,r,j,1a,174,3,31,,,,,0,180,180,219,,,,,,,,,,,,,,,,,,,,,,,,,,,,,,,,,,,,,,,,,,,,,,,,,,,,,,,,,,,,,,,,,,,,,,,,,,,,400.42629228698206,None,space,0.15052625798853114,400.42629228698206,None,400.64514882199,None,j,1,0.5957470709981862,400.64514882199,None,401.258934001383,None,None,401.258934001383,None,,3,001,2021_Nov_03_1038,searchDisc4,2021.2.3,60.067682349855694,
images/exp2a_trial_158_colour0_distractors0_r.png,r,j,2a,158,0,0,,,,,0,181,181,587,,,,,,,,,,,,,,,,,,,,,,,,,,,,,,,,,,,,,,,,,,,,,,,,,,,,,,,,,,,,,,,,,,,,,,,,,,,,401.2596410359838,None,space,0.10128761699888855,401.2596410359838,None,401.4284310689836,None,j,1,0.6125035550212488,401.4284310689836,None,402.0589236043772,None,None,402.0589236043772,None,,3,001,2021_Nov_03_1038,searchDisc4,2021.2.3,60.067682349855694,
images/exp2b_trial_174_colour3_distractors31_r.png,r,j,2b,174,3,31,,,,,0,182,182,795,,,,,,,,,,,,,,,,,,,,,,,,,,,,,,,,,,,,,,,,,,,,,,,,,,,,,,,,,,,,,,,,,,,,,,,,,,,,402.05952565599,None,space,0.1573626030003652,402.05952565599,None,402.29447912599426,None,j,1,0.6425826180202421,402.29447912599426,None,402.9597629773809,None,None,402.9597629773809,None,,3,001,2021_Nov_03_1038,searchDisc4,2021.2.3,60.067682349855694,
images/exp1b_trial_75_colour3_distractors4_r.png,r,j,1b,75,3,4,,,,,0,183,183,312,,,,,,,,,,,,,,,,,,,,,,,,,,,,,,,,,,,,,,,,,,,,,,,,,,,,,,,,,,,,,,,,,,,,,,,,,,,,402.95911101897946,None,space,0.161950951005565,402.95911101897946,None,403.19527811399894,None,j,1,0.8537667029886506,403.19527811399894,None,404.07661493038466,None,None,404.07661493038466,None,,3,001,2021_Nov_03_1038,searchDisc4,2021.2.3,60.067682349855694,
images/exp2b_trial_172_colour3_distractors9_r.png,r,j,2b,172,3,9,,,,,0,184,184,793,,,,,,,,,,,,,,,,,,,,,,,,,,,,,,,,,,,,,,,,,,,,,,,,,,,,,,,,,,,,,,,,,,,,,,,,,,,,404.07635435898555,None,space,0.23663186799967661,404.07635435898555,None,404.39532191699254,None,j,1,0.6298347320116591,404.39532191699254,None,405.043104526386,None,None,405.043104526386,None,,3,001,2021_Nov_03_1038,searchDisc4,2021.2.3,60.067682349855694,
images/exp2c_trial_177_colour1_distractors9_l.png,l,f,2c,177,1,9,,,,,0,185,185,30,,,,,,,,,,,,,,,,,,,,,,,,,,,,,,,,,,,,,,,,,,,,,,,,,,,,,,,,,,,,,,,,,,,,,,,,,,,,405.04269177498645,None,space,0.4464336090022698,405.04269177498645,None,405.5619484859926,None,f,1,0.7032521399960387,405.5619484859926,None,406.2930730303953,None,None,406.2930730303953,None,,3,001,2021_Nov_03_1038,searchDisc4,2021.2.3,60.067682349855694,
images/exp2a_trial_79_colour1_distractors1_l.png,l,f,2a,79,1,1,,,,,0,186,186,508,,,,,,,,,,,,,,,,,,,,,,,,,,,,,,,,,,,,,,,,,,,,,,,,,,,,,,,,,,,,,,,,,,,,,,,,,,,,406.29277415398974,None,space,0.12436381698353216,406.29277415398974,None,406.49521912800265,None,f,1,0.5860201909963507,406.49521912800265,None,407.10986980138404,None,None,407.10986980138404,None,,3,001,2021_Nov_03_1038,searchDisc4,2021.2.3,60.067682349855694,
images/exp1b_trial_98_colour1_distractors9_r.png,r,j,1b,98,1,9,,,,,0,187,187,335,,,,,,,,,,,,,,,,,,,,,,,,,,,,,,,,,,,,,,,,,,,,,,,,,,,,,,,,,,,,,,,,,,,,,,,,,,,,407.10920099998475,None,space,0.06800007101264782,407.10920099998475,None,407.2454700800008,None,j,1,0.875881179003045,407.2454700800008,None,408.1429973754013,None,None,408.1429973754013,None,,3,001,2021_Nov_03_1038,searchDisc4,2021.2.3,60.067682349855694,
images/exp2b_trial_4_colour1_distractors31_r.png,r,j,2b,4,1,31,,,,,0,188,188,625,,,,,,,,,,,,,,,,,,,,,,,,,,,,,,,,,,,,,,,,,,,,,,,,,,,,,,,,,,,,,,,,,,,,,,,,,,,,408.14253103898955,None,space,0.13067407498601824,408.14253103898955,None,408.34522607698455,None,j,1,0.61607700100285,408.34522607698455,None,408.9933877083851,None,None,408.9933877083851,None,,3,001,2021_Nov_03_1038,searchDisc4,2021.2.3,60.067682349855694,
images/exp1a_trial_70_colour2_distractors4_r.png,r,j,1a,70,2,4,,,,,0,189,189,115,,,,,,,,,,,,,,,,,,,,,,,,,,,,,,,,,,,,,,,,,,,,,,,,,,,,,,,,,,,,,,,,,,,,,,,,,,,,408.9929286639963,None,space,0.12836452398914844,408.9929286639963,None,409.1955377419945,None,j,1,0.7098336769849993,409.1955377419945,None,409.9270071683888,None,None,409.9270071683888,None,,3,001,2021_Nov_03_1038,searchDisc4,2021.2.3,60.067682349855694,
images/exp1b_trial_116_colour2_distractors1_l.png,l,f,1b,116,2,1,,,,,0,190,190,353,,,,,,,,,,,,,,,,,,,,,,,,,,,,,,,,,,,,,,,,,,,,,,,,,,,,,,,,,,,,,,,,,,,,,,,,,,,,409.92646449198946,None,space,0.17086364899296314,409.92646449198946,None,410.17866615898674,None,f,1,0.5667695630108938,410.17866615898674,None,410.7769283604022,None,None,410.7769283604022,None,,3,001,2021_Nov_03_1038,searchDisc4,2021.2.3,60.067682349855694,
images/exp2b_trial_56_colour2_distractors31_l.png,l,f,2b,56,2,31,,,,,0,191,191,677,,,,,,,,,,,,,,,,,,,,,,,,,,,,,,,,,,,,,,,,,,,,,,,,,,,,,,,,,,,,,,,,,,,,,,,,,,,,410.7764894499851,None,space,0.08889509600703605,410.7764894499851,None,410.94543619599426,None,f,1,0.6080328409734648,410.94543619599426,None,411.5762780713878,None,None,411.5762780713878,None,,3,001,2021_Nov_03_1038,searchDisc4,2021.2.3,60.067682349855694,
images/exp1b_trial_141_colour3_distractors19_r.png,r,j,1b,141,3,19,,,,,0,192,192,378,,,,,,,,,,,,,,,,,,,,,,,,,,,,,,,,,,,,,,,,,,,,,,,,,,,,,,,,,,,,,,,,,,,,,,,,,,,,411.5762073369988,None,space,0.09721705998526886,411.5762073369988,None,411.74546582699986,None,j,1,0.592020008014515,411.74546582699986,None,412.36025640939187,None,None,412.36025640939187,None,,3,001,2021_Nov_03_1038,searchDisc4,2021.2.3,60.067682349855694,
images/exp1b_trial_104_colour2_distractors19_r.png,r,j,1b,104,2,19,,,,,0,193,193,341,,,,,,,,,,,,,,,,,,,,,,,,,,,,,,,,,,,,,,,,,,,,,,,,,,,,,,,,,,,,,,,,,,,,,,,,,,,,412.3597163359809,None,space,0.16174606399727054,412.3597163359809,None,412.5957315719861,None,j,1,0.5577877770119812,412.5957315719861,None,413.176250994383,None,None,413.176250994383,None,,3,001,2021_Nov_03_1038,searchDisc4,2021.2.3,60.067682349855694,
images/exp1b_trial_70_colour2_distractors4_r.png,r,j,1b,70,2,4,,,,,0,194,194,307,,,,,,,,,,,,,,,,,,,,,,,,,,,,,,,,,,,,,,,,,,,,,,,,,,,,,,,,,,,,,,,,,,,,,,,,,,,,413.17585705698,None,space,0.15353849899838679,413.17585705698,None,413.400414224976,None,j,1,0.5851429929898586,413.400414224976,None,414.0102381123899,None,None,414.0102381123899,None,,3,001,2021_Nov_03_1038,searchDisc4,2021.2.3,60.067682349855694,
images/exp1a_trial_27_colour3_distractors9_l.png,l,f,1a,27,3,9,,,,,0,195,195,72,,,,,,,,,,,,,,,,,,,,,,,,,,,,,,,,,,,,,,,,,,,,,,,,,,,,,,,,,,,,,,,,,,,,,,,,,,,,414.0098929069936,None,space,0.12764206898282282,414.0098929069936,None,414.21227058800287,None,f,1,0.5492992739891633,414.21227058800287,None,414.7935332763911,None,None,414.7935332763911,None,,3,001,2021_Nov_03_1038,searchDisc4,2021.2.3,60.067682349855694,
images/exp1b_trial_115_colour1_distractors31_l.png,l,f,1b,115,1,31,,,,,0,196,196,352,,,,,,,,,,,,,,,,,,,,,,,,,,,,,,,,,,,,,,,,,,,,,,,,,,,,,,,,,,,,,,,,,,,,,,,,,,,,414.79329645299003,None,space,0.10426047799410298,414.79329645299003,None,414.97880528398673,None,f,1,0.6228544779878575,414.97880528398673,None,415.6267214134015,None,None,415.6267214134015,None,,3,001,2021_Nov_03_1038,searchDisc4,2021.2.3,60.067682349855694,
images/exp2c_trial_146_colour1_distractors19_l.png,l,f,2c,146,1,19,,,,,0,197,197,959,,,,,,,,,,,,,,,,,,,,,,,,,,,,,,,,,,,,,,,,,,,,,,,,,,,,,,,,,,,,,,,,,,,,,,,,,,,,415.6266856720031,None,space,0.11881290399469435,415.6266856720031,None,415.82882007199805,None,f,1,0.644861206994392,415.82882007199805,None,416.4929947613884,None,None,416.4929947613884,None,,3,001,2021_Nov_03_1038,searchDisc4,2021.2.3,60.067682349855694,
images/exp2c_trial_151_colour2_distractors19_l.png,l,f,2c,151,2,19,,,,,0,198,198,4,,,,,,,,,,,,,,,,,,,,,,,,,,,,,,,,,,,,,,,,,,,,,,,,,,,,,,,,,,,,,,,,,,,,,,,,,,,,416.49299995898036,None,space,0.1326390670146793,416.49299995898036,None,416.69577643999946,None,f,1,0.593950690003112,416.69577643999946,None,417.3101330563979,None,None,417.3101330563979,None,,3,001,2021_Nov_03_1038,searchDisc4,2021.2.3,60.067682349855694,
images/exp2a_trial_82_colour1_distractors19_l.png,l,f,2a,82,1,19,,,,,0,199,199,511,,,,,,,,,,,,,,,,,,,,,,,,,,,,,,,,,,,,,,,,,,,,,,,,,,,,,,,,,,,,,,,,,,,,,,,,,,,,417.3095625699789,None,space,0.10001819100580178,417.3095625699789,None,417.47893846797524,None,f,1,0.5868209640029818,417.47893846797524,None,418.09364116037904,None,None,418.09364116037904,None,,3,001,2021_Nov_03_1038,searchDisc4,2021.2.3,60.067682349855694,
images/exp1b_trial_100_colour1_distractors31_r.png,r,j,1b,100,1,31,,,,,0,200,200,337,,,,,,,,,,,,,,,,,,,,,,,,,,,,,,,,,,,,,,,,,,,,,,,,,,,,,,,,,,,,,,,,,,,,,,,,,,,,418.09339288799674,None,space,0.08422113698907197,418.09339288799674,None,418.24563312297687,None,j,1,1.4122127690061461,418.24563312297687,None,419.6771908053808,None,None,419.6771908053808,None,,3,001,2021_Nov_03_1038,searchDisc4,2021.2.3,60.067682349855694,
images/exp1b_trial_9_colour2_distractors31_r.png,r,j,1b,9,2,31,,,,,0,201,201,246,,,,,,,,,,,,,,,,,,,,,,,,,,,,,,,,,,,,,,,,,,,,,,,,,,,,,,,,,,,,,,,,,,,,,,,,,,,,419.6768637529749,None,space,0.1009123369876761,419.6768637529749,None,419.8458314149757,None,j,1,0.8200489350128919,419.8458314149757,None,420.69368224338103,None,None,420.69368224338103,None,,3,001,2021_Nov_03_1038,searchDisc4,2021.2.3,60.067682349855694,
images/exp2b_trial_54_colour2_distractors9_l.png,l,f,2b,54,2,9,,,,,0,202,202,675,,,,,,,,,,,,,,,,,,,,,,,,,,,,,,,,,,,,,,,,,,,,,,,,,,,,,,,,,,,,,,,,,,,,,,,,,,,,420.69347187899984,None,space,0.09237007299088873,420.69347187899984,None,420.8617234019912,None,f,1,0.724211078020744,420.8617234019912,None,421.6099234963796,None,None,421.6099234963796,None,,3,001,2021_Nov_03_1038,searchDisc4,2021.2.3,60.067682349855694,
images/exp2a_trial_54_colour2_distractors9_l.png,l,f,2a,54,2,9,,,,,0,203,203,483,,,,,,,,,,,,,,,,,,,,,,,,,,,,,,,,,,,,,,,,,,,,,,,,,,,,,,,,,,,,,,,,,,,,,,,,,,,,421.6094609819993,None,space,0.09640243701869622,421.6094609819993,None,421.77908912298153,None,f,1,0.6628468729904853,421.77908912298153,None,422.45984834540576,None,None,422.45984834540576,None,,3,001,2021_Nov_03_1038,searchDisc4,2021.2.3,60.067682349855694,
images/exp2c_trial_126_colour0_distractors0_r.png,r,j,2c,126,0,0,,,,,0,204,204,939,,,,,,,,,,,,,,,,,,,,,,,,,,,,,,,,,,,,,,,,,,,,,,,,,,,,,,,,,,,,,,,,,,,,,,,,,,,,422.4602940119803,None,space,0.125598557991907,422.4602940119803,None,422.662709317985,None,j,1,0.5311451289744582,422.662709317985,None,423.2265228733915,None,None,423.2265228733915,None,,3,001,2021_Nov_03_1038,searchDisc4,2021.2.3,60.067682349855694,
images/exp1b_trial_86_colour2_distractors9_l.png,l,f,1b,86,2,9,,,,,0,205,205,323,,,,,,,,,,,,,,,,,,,,,,,,,,,,,,,,,,,,,,,,,,,,,,,,,,,,,,,,,,,,,,,,,,,,,,,,,,,,423.2269163519959,None,space,0.09490083297714591,423.2269163519959,None,423.3937214879843,None,f,1,1.024289905995829,423.3937214879843,None,424.44379943740495,None,None,424.44379943740495,None,,3,001,2021_Nov_03_1038,searchDisc4,2021.2.3,60.067682349855694,
images/exp1b_trial_143_colour1_distractors1_l.png,l,f,1b,143,1,1,,,,,0,206,206,380,,,,,,,,,,,,,,,,,,,,,,,,,,,,,,,,,,,,,,,,,,,,,,,,,,,,,,,,,,,,,,,,,,,,,,,,,,,,424.44308424397605,None,space,0.11089342000195757,424.44308424397605,None,424.6291787159862,None,f,1,0.5568684470199514,424.6291787159862,None,425.2099723863968,None,None,425.2099723863968,None,,3,001,2021_Nov_03_1038,searchDisc4,2021.2.3,60.067682349855694,
images/exp2c_trial_189_colour3_distractors31_l.png,l,f,2c,189,3,31,,,,,0,207,207,42,,,,,,,,,,,,,,,,,,,,,,,,,,,,,,,,,,,,,,,,,,,,,,,,,,,,,,,,,,,,,,,,,,,,,,,,,,,,425.21020243599196,None,space,0.09580504600307904,425.21020243599196,None,425.37851921797846,None,j,0,0.7275878229993396,425.37851921797846,None,426.1266785393847,None,None,426.1266785393847,None,,3,001,2021_Nov_03_1038,searchDisc4,2021.2.3,60.067682349855694,
images/exp2a_trial_157_colour3_distractors31_l.png,l,f,2a,157,3,31,,,,,0,208,208,586,,,,,,,,,,,,,,,,,,,,,,,,,,,,,,,,,,,,,,,,,,,,,,,,,,,,,,,,,,,,,,,,,,,,,,,,,,,,426.127315619,None,space,0.19469533397932537,426.127315619,None,426.39593184599653,None,f,1,0.6862341839878354,426.39593184599653,None,427.1105114543781,None,None,427.1105114543781,None,,3,001,2021_Nov_03_1038,searchDisc4,2021.2.3,60.067682349855694,
images/exp2b_trial_48_colour1_distractors4_l.png,l,f,2b,48,1,4,,,,,0,209,209,669,,,,,,,,,,,,,,,,,,,,,,,,,,,,,,,,,,,,,,,,,,,,,,,,,,,,,,,,,,,,,,,,,,,,,,,,,,,,427.1099709859991,None,space,0.0761330800014548,427.1099709859991,None,427.26175961698755,None,f,1,0.5964593010139652,427.26175961698755,None,427.87756507340526,None,None,427.87756507340526,None,,3,001,2021_Nov_03_1038,searchDisc4,2021.2.3,60.067682349855694,
images/exp2a_trial_48_colour1_distractors4_l.png,l,f,2a,48,1,4,,,,,0,210,210,477,,,,,,,,,,,,,,,,,,,,,,,,,,,,,,,,,,,,,,,,,,,,,,,,,,,,,,,,,,,,,,,,,,,,,,,,,,,,427.8770692689868,None,space,0.13302462600404397,427.8770692689868,None,428.0784929259971,None,f,1,0.6357577489980031,428.0784929259971,None,428.74390135737775,None,None,428.74390135737775,None,,3,001,2021_Nov_03_1038,searchDisc4,2021.2.3,60.067682349855694,
images/exp2c_trial_6_colour2_distractors4_r.png,r,j,2c,6,2,4,,,,,0,211,211,819,,,,,,,,,,,,,,,,,,,,,,,,,,,,,,,,,,,,,,,,,,,,,,,,,,,,,,,,,,,,,,,,,,,,,,,,,,,,428.74293337899144,None,space,0.07526904597762041,428.74293337899144,None,428.89525642999797,None,j,1,0.6030027699889615,428.89525642999797,None,429.5273889513948,None,None,429.5273889513948,None,,3,001,2021_Nov_03_1038,searchDisc4,2021.2.3,60.067682349855694,
images/exp1b_trial_126_colour0_distractors0_r.png,r,j,1b,126,0,0,,,,,0,212,212,363,,,,,,,,,,,,,,,,,,,,,,,,,,,,,,,,,,,,,,,,,,,,,,,,,,,,,,,,,,,,,,,,,,,,,,,,,,,,429.52708889197675,None,space,0.1231319400249049,429.52708889197675,None,429.7292345119931,None,j,1,0.5130950390012003,429.7292345119931,None,430.2603208653774,None,None,430.2603208653774,None,,3,001,2021_Nov_03_1038,searchDisc4,2021.2.3,60.067682349855694,
images/exp2c_trial_174_colour3_distractors31_r.png,r,j,2c,174,3,31,,,,,0,213,213,27,,,,,,,,,,,,,,,,,,,,,,,,,,,,,,,,,,,,,,,,,,,,,,,,,,,,,,,,,,,,,,,,,,,,,,,,,,,,430.2601747169974,None,space,0.21406152300187387,430.2601747169974,None,430.5440786029794,None,f,0,0.5301722370204516,430.5440786029794,None,431.09357666038267,None,None,431.09357666038267,None,,3,001,2021_Nov_03_1038,searchDisc4,2021.2.3,60.067682349855694,
images/exp2b_trial_43_colour3_distractors4_r.png,r,j,2b,43,3,4,,,,,0,214,214,664,,,,,,,,,,,,,,,,,,,,,,,,,,,,,,,,,,,,,,,,,,,,,,,,,,,,,,,,,,,,,,,,,,,,,,,,,,,,431.0931455959799,None,space,0.46915597800398245,431.0931455959799,None,431.6289356799971,None,j,1,0.4774618170049507,431.6289356799971,None,432.1268233624025,None,None,432.1268233624025,None,,3,001,2021_Nov_03_1038,searchDisc4,2021.2.3,60.067682349855694,
images/exp2a_trial_104_colour2_distractors19_r.png,r,j,2a,104,2,19,,,,,0,215,215,533,,,,,,,,,,,,,,,,,,,,,,,,,,,,,,,,,,,,,,,,,,,,,,,,,,,,,,,,,,,,,,,,,,,,,,,,,,,,432.12661514698993,None,space,0.13973432302009314,432.12661514698993,None,432.3456512989942,None,j,1,0.5847874309984036,432.3456512989942,None,432.9607058563881,None,None,432.9607058563881,None,,3,001,2021_Nov_03_1038,searchDisc4,2021.2.3,60.067682349855694,
