ImageFile,targ_side,correctAnswer,exp,trial,colour,distNo,trials_2.thisRepN,trials_2.thisTrialN,trials_2.thisN,trials_2.thisIndex,trials.thisRepN,trials.thisTrialN,trials.thisN,trials.thisIndex,X Scale,Y Scale,text_top.started,text_top.stopped,text_bottom.started,text_bottom.stopped,ccimage.started,ccimage.stopped,text_6.started,text_6.stopped,key_resp_10.keys,key_resp_10.rt,key_resp_10.started,key_resp_10.stopped,text_7.started,text_7.stopped,key_resp_11.keys,key_resp_11.rt,key_resp_11.started,key_resp_11.stopped,text_8.started,text_8.stopped,key_resp_12.keys,key_resp_12.rt,key_resp_12.started,key_resp_12.stopped,text_9.started,text_9.stopped,key_resp_13.keys,key_resp_13.rt,key_resp_13.started,key_resp_13.stopped,text_2.started,text_2.stopped,key_resp_5.keys,key_resp_5.rt,key_resp_5.started,key_resp_5.stopped,text_5.started,text_5.stopped,key_resp_8.keys,key_resp_8.rt,key_resp_8.started,key_resp_8.stopped,image_2.started,image_2.stopped,key_resp_6.keys,key_resp_6.rt,key_resp_6.started,key_resp_6.stopped,text_3.started,text_3.stopped,image_3.started,image_3.stopped,fix.started,fix.stopped,key_resp_7.keys,key_resp_7.rt,key_resp_7.started,key_resp_7.stopped,image.started,image.stopped,key_resp_4.keys,key_resp_4.corr,key_resp_4.rt,key_resp_4.started,key_resp_4.stopped,text_4.started,text_4.stopped,text.started,text.stopped,key_resp_3.keys,key_resp_3.rt,key_resp_3.started,key_resp_3.stopped,fix2experiment.started,fix2experiment.stopped,key_resp_9.keys,key_resp_9.rt,key_resp_9.started,key_resp_9.stopped,dispStimuli.started,dispStimuli.stopped,key_resp_2.keys,key_resp_2.corr,key_resp_2.rt,key_resp_2.started,key_resp_2.stopped,breakMessage.started,breakMessage.stopped,key_resp.keys,key_resp.started,key_resp.stopped,key_resp.rt,participant,session,date,expName,psychopyVersion,frameRate,
,,,,,,,,,,,,,,,32.8,31.4,18.099747220025165,None,18.099747220025165,None,18.099747220025165,None,36.53365195702645,None,space,0.604278960992815,36.53365195702645,None,,,,,,,,,,,,,,,,,,,,,,,,,,,,,,,,,,,,,,,,,,,,,,,,,,,,,,,,,,,,,,,,,,,,,,,,,,,,,,,,,5,001,2021_Nov_04_1529,searchDisc4,2021.2.3,60.01858343906866,
,,,,,,,,,,,,,,,,,,,,,,,,,,,,,37.16630761401029,None,space,0.5796825420111418,37.16630761401029,None,,,,,,,,,,,,,,,,,,,,,,,,,,,,,,,,,,,,,,,,,,,,,,,,,,,,,,,,,,,,,,,,,,,,,,,,,,,5,001,2021_Nov_04_1529,searchDisc4,2021.2.3,60.01858343906866,
,,,,,,,,,,,,,,,,,,,,,,,,,,,,,,,,,,,37.76696904501296,None,space,0.9790553429920692,37.76696904501296,None,,,,,,,,,,,,,,,,,,,,,,,,,,,,,,,,,,,,,,,,,,,,,,,,,,,,,,,,,,,,,,,,,,,,,5,001,2021_Nov_04_1529,searchDisc4,2021.2.3,60.01858343906866,
,,,,,,,,,,,,,,,,,,,,,,,,,,,,,,,,,,,,,,,,,38.766988971008686,None,space,0.44304211702547036,38.766988971008686,None,,,,,,,,,,,,,,,,,,,,,,,,,,,,,,,,,,,,,,,,,,,,,,,,,,,,,,,,,,,,,,,5,001,2021_Nov_04_1529,searchDisc4,2021.2.3,60.01858343906866,
,,,,,,,,,,,,,,,,,,,,,,,,,,,,,,,,,,,,,,,,,,,,,,,39.23353526002029,None,space,0.36183066200464964,40.200285798026016,None,,,,,,,,,,,,,,,,,,,,,,,,,,,,,,,,,,,,,,,,,,,,,,,,,,,,,,,,,5,001,2021_Nov_04_1529,searchDisc4,2021.2.3,60.01858343906866,
,,,,,,,,,,,,,,,,,,,,,,,,,,,,,,,,,,,,,,,,,,,,,,,,,,,,,40.581547039008,None,space,1.276605129998643,40.581547039008,None,,,,,,,,,,,,,,,,,,,,,,,,,,,,,,,,,,,,,,,,,,,,,,,,,,,5,001,2021_Nov_04_1529,searchDisc4,2021.2.3,60.01858343906866,
,,,,,,,,,,,,,,,,,,,,,,,,,,,,,,,,,,,,,,,,,,,,,,,,,,,,,,,,,,,41.883716548007214,None,space,2.27144079800928,42.86686586801079,None,,,,,,,,,,,,,,,,,,,,,,,,,,,,,,,,,,,,,,,,,,,,,5,001,2021_Nov_04_1529,searchDisc4,2021.2.3,60.01858343906866,
Practice arrays/exp1a_trial_1_colour1_distractors4_r.png,r,j,,,,,0,0,0,1,,,,,,,,,,,,,,,,,,,,,,,,,,,,,,,,,,,,,,,,,,,,,,,,,,,,,,,41.883716548007214,None,41.883716548007214,None,45.18334507700638,None,space,1.4190254139830358,45.18334507700638,None,46.700656343018636,None,j,1,1.069700786989415,46.700656343018636,None,47.79843445000006,None,,,,,,,,,,,,,,,,,,,,,,,,,,5,001,2021_Nov_04_1529,searchDisc4,2021.2.3,60.01858343906866,
Practice arrays/exp1a_trial_21_colour2_distractors4_l.png,l,f,,,,,0,1,1,9,,,,,,,,,,,,,,,,,,,,,,,,,,,,,,,,,,,,,,,,,,,,,,,,,,,,,,,,,,,48.80065548600396,None,space,0.8898602300032508,48.80065548600396,None,49.76709432800999,None,f,1,0.8914560799894389,49.76709432800999,None,50.68186992401024,None,,,,,,,,,,,,,,,,,,,,,,,,,,5,001,2021_Nov_04_1529,searchDisc4,2021.2.3,60.01858343906866,
Practice arrays/exp1a_trial_23_colour2_distractors19_l.png,l,f,,,,,0,2,2,10,,,,,,,,,,,,,,,,,,,,,,,,,,,,,,,,,,,,,,,,,,,,,,,,,,,,,,,,,,,51.68389817100251,None,space,0.5827364510041662,51.68389817100251,None,52.33398147902335,None,f,1,0.8126005480007734,52.33398147902335,None,53.165241021022666,None,,,,,,,,,,,,,,,,,,,,,,,,,,5,001,2021_Nov_04_1529,searchDisc4,2021.2.3,60.01858343906866,
Practice arrays/exp1a_trial_27_colour3_distractors9_l.png,l,f,,,,,0,3,3,12,,,,,,,,,,,,,,,,,,,,,,,,,,,,,,,,,,,,,,,,,,,,,,,,,,,,,,,,,,,54.167417537013534,None,space,0.6832473620015662,54.167417537013534,None,54.91752049300703,None,f,1,0.5732309329905547,54.91752049300703,None,55.51529820100404,None,,,,,,,,,,,,,,,,,,,,,,,,,,5,001,2021_Nov_04_1529,searchDisc4,2021.2.3,60.01858343906866,
Practice arrays/exp1a_trial_14_colour3_distractors31_r.png,r,j,,,,,0,4,4,6,,,,,,,,,,,,,,,,,,,,,,,,,,,,,,,,,,,,,,,,,,,,,,,,,,,,,,,,,,,56.51730572502129,None,space,8.709926581999753,56.51730572502129,None,65.3013305690256,None,j,1,0.637938710016897,65.3013305690256,None,65.96557789199869,None,,,,,,,,,,,,,,,,,,,,,,,,,,5,001,2021_Nov_04_1529,searchDisc4,2021.2.3,60.01858343906866,
Practice arrays/exp1a_trial_12_colour3_distractors9_r.png,r,j,,,,,0,5,5,5,,,,,,,,,,,,,,,,,,,,,,,,,,,,,,,,,,,,,,,,,,,,,,,,,,,,,,,,,,,66.96767088101478,None,space,0.5236420350265689,66.96767088101478,None,67.5678329700022,None,j,1,0.6195111770066433,67.5678329700022,None,68.21572131101857,None,,,,,,,,,,,,,,,,,,,,,,,,,,5,001,2021_Nov_04_1529,searchDisc4,2021.2.3,60.01858343906866,
Practice arrays/exp1a_trial_18_colour1_distractors19_l.png,l,f,,,,,0,6,6,8,,,,,,,,,,,,,,,,,,,,,,,,,,,,,,,,,,,,,,,,,,,,,,,,,,,,,,,,,,,69.21766204701271,None,space,0.5136999569949694,69.21766204701271,None,69.80124445000547,None,f,1,0.8101285150041804,69.80124445000547,None,70.63246999701369,None,,,,,,,,,,,,,,,,,,,,,,,,,,5,001,2021_Nov_04_1529,searchDisc4,2021.2.3,60.01858343906866,
Practice arrays/exp1a_trial_31_colour0_distractors0_l.png,l,f,,,,,0,7,7,15,,,,,,,,,,,,,,,,,,,,,,,,,,,,,,,,,,,,,,,,,,,,,,,,,,,,,,,,,,,71.63455790400621,None,space,0.5290188840008341,71.63455790400621,None,72.21617249102565,None,f,1,0.5713866199948825,72.21617249102565,None,72.81585153000196,None,,,,,,,,,,,,,,,,,,,,,,,,,,5,001,2021_Nov_04_1529,searchDisc4,2021.2.3,60.01858343906866,
Practice arrays/exp1a_trial_10_colour3_distractors1_r.png,r,j,,,,,0,8,8,4,,,,,,,,,,,,,,,,,,,,,,,,,,,,,,,,,,,,,,,,,,,,,,,,,,,,,,,,,,,73.81789970200043,None,space,0.5057399999932386,73.81789970200043,None,74.40142939900397,None,j,1,1.0822136540082283,74.40142939900397,None,75.51592418202199,None,,,,,,,,,,,,,,,,,,,,,,,,,,5,001,2021_Nov_04_1529,searchDisc4,2021.2.3,60.01858343906866,
Practice arrays/exp1a_trial_8_colour2_distractors19_r.png,r,j,,,,,0,9,9,3,,,,,,,,,,,,,,,,,,,,,,,,,,,,,,,,,,,,,,,,,,,,,,,,,,,,,,,,,,,76.51795502300956,None,space,0.597739875986008,76.51795502300956,None,77.18475222800043,None,j,1,0.6750366229971405,77.18475222800043,None,77.88255531201139,None,,,,,,,,,,,,,,,,,,,,,,,,,,5,001,2021_Nov_04_1529,searchDisc4,2021.2.3,60.01858343906866,
Practice arrays/exp1a_trial_7_colour2_distractors9_r.png,r,j,,,,,0,10,10,2,,,,,,,,,,,,,,,,,,,,,,,,,,,,,,,,,,,,,,,,,,,,,,,,,,,,,,,,,,,78.88466232499923,None,space,0.5912199580052402,78.88466232499923,None,79.55158803102677,None,j,1,0.6523276049993001,79.55158803102677,None,80.2326213530032,None,,,,,,,,,,,,,,,,,,,,,,,,,,5,001,2021_Nov_04_1529,searchDisc4,2021.2.3,60.01858343906866,
Practice arrays/exp1a_trial_17_colour1_distractors9_l.png,l,f,,,,,0,11,11,7,,,,,,,,,,,,,,,,,,,,,,,,,,,,,,,,,,,,,,,,,,,,,,,,,,,,,,,,,,,81.23482323801727,None,space,1.1451625549816526,81.23482323801727,None,82.45150687600835,None,f,1,0.8565279010217637,82.45150687600835,None,83.3327779250103,None,,,,,,,,,,,,,,,,,,,,,,,,,,5,001,2021_Nov_04_1529,searchDisc4,2021.2.3,60.01858343906866,
Practice arrays/exp1a_trial_0_colour1_distractors1_r.png,r,j,,,,,0,12,12,0,,,,,,,,,,,,,,,,,,,,,,,,,,,,,,,,,,,,,,,,,,,,,,,,,,,,,,,,,,,84.3347192100191,None,space,0.7093796179979108,84.3347192100191,None,85.11838567402447,None,j,1,0.7577740129781887,85.11838567402447,None,85.89961541001685,None,,,,,,,,,,,,,,,,,,,,,,,,,,5,001,2021_Nov_04_1529,searchDisc4,2021.2.3,60.01858343906866,
Practice arrays/exp1a_trial_16_colour1_distractors4_l.png,l,f,,,,,0,13,13,13,,,,,,,,,,,,,,,,,,,,,,,,,,,,,,,,,,,,,,,,,,,,,,,,,,,,,,,,,,,86.90159385002335,None,space,0.5586506340187043,86.90159385002335,None,87.53310890501598,None,f,1,0.863173610996455,87.53310890501598,None,88.4161780490249,None,,,,,,,,,,,,,,,,,,,,,,,,,,5,001,2021_Nov_04_1529,searchDisc4,2021.2.3,60.01858343906866,
Practice arrays/exp1a_trial_30_colour0_distractors0_r.png,r,j,,,,,0,14,14,14,,,,,,,,,,,,,,,,,,,,,,,,,,,,,,,,,,,,,,,,,,,,,,,,,,,,,,,,,,,89.41842012901907,None,space,0.5299474409839604,89.41842012901907,None,90.01831927199964,None,j,1,0.6580671480041929,90.01831927199964,None,90.69948827900225,None,,,,,,,,,,,,,,,,,,,,,,,,,,5,001,2021_Nov_04_1529,searchDisc4,2021.2.3,60.01858343906866,
Practice arrays/exp1a_trial_25_colour3_distractors1_l.png,l,f,,,,,0,15,15,11,,,,,,,,,,,,,,,,,,,,,,,,,,,,,,,,,,,,,,,,,,,,,,,,,,,,,,,,,,,91.70148500602227,None,space,0.46290542400674894,91.70148500602227,None,92.23525802101358,None,f,1,0.7532452900195494,92.23525802101358,None,93.01630307300366,None,,,,,,,,,,,,,,,,,,,,,,,,,,5,001,2021_Nov_04_1529,searchDisc4,2021.2.3,60.01858343906866,
,,,,,,,,,,,,,,,,,,,,,,,,,,,,,,,,,,,,,,,,,,,,,,,,,,,,,,,,,,,,,,,,,,,,,,,,,,,,,,,,,,,,94.08461444900604,None,space,0.7525978819758166,97.06811051501427,None,,,,,,,,,,,,,,,,,,,,5,001,2021_Nov_04_1529,searchDisc4,2021.2.3,60.01858343906866,
images/exp2b_trial_119_colour2_distractors19_l.png,l,f,2b,119,2,19,,,,,0,0,0,740,,,,,,,,,,,,,,,,,,,,,,,,,,,,,,,,,,,,,,,,,,,,,,,,,,,,,,,,,,,,,,,,,,,,,,,,,,,,98.25199470799998,None,space,0.6247689820011146,98.25199470799998,None,98.95545832702192,None,f,1,0.801389650994679,98.95545832702192,None,99.78278190639976,None,None,99.78278190639976,None,,5,001,2021_Nov_04_1529,searchDisc4,2021.2.3,60.01858343906866,
images/exp2c_trial_112_colour1_distractors4_l.png,l,f,2c,112,1,4,,,,,0,1,1,925,,,,,,,,,,,,,,,,,,,,,,,,,,,,,,,,,,,,,,,,,,,,,,,,,,,,,,,,,,,,,,,,,,,,,,,,,,,,99.79977223102469,None,space,0.7169893810059875,99.79977223102469,None,100.58541889401386,None,f,1,0.6674492199963424,100.58541889401386,None,101.28311372740718,None,None,101.28311372740718,None,,5,001,2021_Nov_04_1529,searchDisc4,2021.2.3,60.01858343906866,
images/exp2b_trial_152_colour2_distractors31_l.png,l,f,2b,152,2,31,,,,,0,2,2,773,,,,,,,,,,,,,,,,,,,,,,,,,,,,,,,,,,,,,,,,,,,,,,,,,,,,,,,,,,,,,,,,,,,,,,,,,,,,101.28267969100852,None,space,0.6581727849843446,101.28267969100852,None,102.0188386439986,None,f,1,0.7220986709871795,102.0188386439986,None,102.765898906425,None,None,102.765898906425,None,,5,001,2021_Nov_04_1529,searchDisc4,2021.2.3,60.01858343906866,
images/exp1a_trial_190_colour0_distractors0_r.png,r,j,1a,190,0,0,,,,,0,3,3,235,,,,,,,,,,,,,,,,,,,,,,,,,,,,,,,,,,,,,,,,,,,,,,,,,,,,,,,,,,,,,,,,,,,,,,,,,,,,102.76592703600181,None,space,0.6308764179993887,102.76592703600181,None,103.46878358302638,None,j,1,0.672216862993082,103.46878358302638,None,104.1667844944197,None,None,104.1667844944197,None,,5,001,2021_Nov_04_1529,searchDisc4,2021.2.3,60.01858343906866,
images/exp2c_trial_174_colour3_distractors31_r.png,r,j,2c,174,3,31,,,,,0,4,4,27,,,,,,,,,,,,,,,,,,,,,,,,,,,,,,,,,,,,,,,,,,,,,,,,,,,,,,,,,,,,,,,,,,,,,,,,,,,,104.1666110070073,None,space,0.7263920289988164,104.1666110070073,None,104.96858252902166,None,j,1,0.7884014319861308,104.96858252902166,None,105.78339722240635,None,None,105.78339722240635,None,,5,001,2021_Nov_04_1529,searchDisc4,2021.2.3,60.01858343906866,
images/exp2c_trial_2_colour1_distractors9_r.png,r,j,2c,2,1,9,,,,,0,5,5,815,,,,,,,,,,,,,,,,,,,,,,,,,,,,,,,,,,,,,,,,,,,,,,,,,,,,,,,,,,,,,,,,,,,,,,,,,,,,105.78336689900607,None,space,0.7496054189978167,105.78336689900607,None,106.6021906780079,None,j,1,0.6269486660021357,106.6021906780079,None,107.24937082641118,None,None,107.24937082641118,None,,5,001,2021_Nov_04_1529,searchDisc4,2021.2.3,60.01858343906866,
images/exp1a_trial_161_colour1_distractors4_r.png,r,j,1a,161,1,4,,,,,0,6,6,206,,,,,,,,,,,,,,,,,,,,,,,,,,,,,,,,,,,,,,,,,,,,,,,,,,,,,,,,,,,,,,,,,,,,,,,,,,,,107.249713214027,None,space,0.4673881530179642,107.249713214027,None,107.78566049900837,None,j,1,1.0595411389949732,107.78566049900837,None,108.8665419323981,None,None,108.8665419323981,None,,5,001,2021_Nov_04_1529,searchDisc4,2021.2.3,60.01858343906866,
images/exp2c_trial_166_colour2_distractors4_r.png,r,j,2c,166,2,4,,,,,0,7,7,19,,,,,,,,,,,,,,,,,,,,,,,,,,,,,,,,,,,,,,,,,,,,,,,,,,,,,,,,,,,,,,,,,,,,,,,,,,,,108.86613242700696,None,space,0.41102063600555994,108.86613242700696,None,109.35232283201185,None,j,1,0.9169514559907839,109.35232283201185,None,110.3001303934172,None,None,110.3001303934172,None,,5,001,2021_Nov_04_1529,searchDisc4,2021.2.3,60.01858343906866,
images/exp2a_trial_14_colour3_distractors31_r.png,r,j,2a,14,3,31,,,,,0,8,8,443,,,,,,,,,,,,,,,,,,,,,,,,,,,,,,,,,,,,,,,,,,,,,,,,,,,,,,,,,,,,,,,,,,,,,,,,,,,,110.3003436900035,None,space,0.2648985370178707,110.3003436900035,None,110.63572943600593,None,j,1,0.6895935929787811,110.63572943600593,None,111.34955260242278,None,None,111.34955260242278,None,,5,001,2021_Nov_04_1529,searchDisc4,2021.2.3,60.01858343906866,
images/exp2a_trial_5_colour2_distractors1_r.png,r,j,2a,5,2,1,,,,,0,9,9,434,,,,,,,,,,,,,,,,,,,,,,,,,,,,,,,,,,,,,,,,,,,,,,,,,,,,,,,,,,,,,,,,,,,,,,,,,,,,111.34950730201672,None,space,0.5277618649997748,111.34950730201672,None,111.95230729901232,None,j,1,0.7090717079991009,111.95230729901232,None,112.68275818039838,None,None,112.68275818039838,None,,5,001,2021_Nov_04_1529,searchDisc4,2021.2.3,60.01858343906866,
images/exp2b_trial_46_colour3_distractors31_r.png,r,j,2b,46,3,31,,,,,0,10,10,667,,,,,,,,,,,,,,,,,,,,,,,,,,,,,,,,,,,,,,,,,,,,,,,,,,,,,,,,,,,,,,,,,,,,,,,,,,,,112.68285319602,None,space,0.5545161670015659,112.68285319602,None,113.3191043290135,None,j,1,0.710350120003568,113.3191043290135,None,114.04984347740829,None,None,114.04984347740829,None,,5,001,2021_Nov_04_1529,searchDisc4,2021.2.3,60.01858343906866,
images/exp1a_trial_167_colour2_distractors9_r.png,r,j,1a,167,2,9,,,,,0,11,11,212,,,,,,,,,,,,,,,,,,,,,,,,,,,,,,,,,,,,,,,,,,,,,,,,,,,,,,,,,,,,,,,,,,,,,,,,,,,,114.04955689501367,None,space,0.49185163801303133,114.04955689501367,None,114.61923615401611,None,j,1,0.8102535120269749,114.61923615401611,None,115.45008093540964,None,None,115.45008093540964,None,,5,001,2021_Nov_04_1529,searchDisc4,2021.2.3,60.01858343906866,
images/exp2c_trial_59_colour3_distractors9_l.png,l,f,2c,59,3,9,,,,,0,12,12,872,,,,,,,,,,,,,,,,,,,,,,,,,,,,,,,,,,,,,,,,,,,,,,,,,,,,,,,,,,,,,,,,,,,,,,,,,,,,115.44987461902201,None,space,0.4675144590146374,115.44987461902201,None,115.98584415702499,None,f,1,0.9636693180073053,115.98584415702499,None,116.96692574641493,None,None,116.96692574641493,None,,5,001,2021_Nov_04_1529,searchDisc4,2021.2.3,60.01858343906866,
images/exp1a_trial_136_colour2_distractors19_r.png,r,j,1a,136,2,19,,,,,0,13,13,181,,,,,,,,,,,,,,,,,,,,,,,,,,,,,,,,,,,,,,,,,,,,,,,,,,,,,,,,,,,,,,,,,,,,,,,,,,,,116.96720913102035,None,space,0.4863384439959191,116.96720913102035,None,117.5358245850075,None,j,1,0.933844917017268,117.5358245850075,None,118.5001729084208,None,None,118.5001729084208,None,,5,001,2021_Nov_04_1529,searchDisc4,2021.2.3,60.01858343906866,
images/exp2a_trial_173_colour3_distractors19_r.png,r,j,2a,173,3,19,,,,,0,14,14,602,,,,,,,,,,,,,,,,,,,,,,,,,,,,,,,,,,,,,,,,,,,,,,,,,,,,,,,,,,,,,,,,,,,,,,,,,,,,118.49979215700296,None,space,0.5938502040226012,118.49979215700296,None,119.16923132000375,None,j,1,0.6924967009981629,119.16923132000375,None,119.88308786540001,None,None,119.88308786540001,None,,5,001,2021_Nov_04_1529,searchDisc4,2021.2.3,60.01858343906866,
images/exp2b_trial_163_colour1_distractors19_r.png,r,j,2b,163,1,19,,,,,0,15,15,784,,,,,,,,,,,,,,,,,,,,,,,,,,,,,,,,,,,,,,,,,,,,,,,,,,,,,,,,,,,,,,,,,,,,,,,,,,,,119.88361261502723,None,space,0.5700156009988859,119.88361261502723,None,120.53591557900654,None,j,1,0.6618658630177379,120.53591557900654,None,121.21695989041764,None,None,121.21695989041764,None,,5,001,2021_Nov_04_1529,searchDisc4,2021.2.3,60.01858343906866,
images/exp1a_trial_154_colour3_distractors4_l.png,l,f,1a,154,3,4,,,,,0,16,16,199,,,,,,,,,,,,,,,,,,,,,,,,,,,,,,,,,,,,,,,,,,,,,,,,,,,,,,,,,,,,,,,,,,,,,,,,,,,,121.21700824901927,None,space,0.5006567260134034,121.21700824901927,None,121.78628865702194,None,f,1,0.779586200020276,121.78628865702194,None,122.58355797440454,None,None,122.58355797440454,None,,5,001,2021_Nov_04_1529,searchDisc4,2021.2.3,60.01858343906866,
images/exp2a_trial_105_colour2_distractors31_r.png,r,j,2a,105,2,31,,,,,0,17,17,534,,,,,,,,,,,,,,,,,,,,,,,,,,,,,,,,,,,,,,,,,,,,,,,,,,,,,,,,,,,,,,,,,,,,,,,,,,,,122.58335933601484,None,space,0.5664054660010152,122.58335933601484,None,123.22229498802335,None,j,1,0.7836169980000705,123.22229498802335,None,124.03384288540401,None,None,124.03384288540401,None,,5,001,2021_Nov_04_1529,searchDisc4,2021.2.3,60.01858343906866,
images/exp1b_trial_190_colour0_distractors0_r.png,r,j,1b,190,0,0,,,,,0,18,18,427,,,,,,,,,,,,,,,,,,,,,,,,,,,,,,,,,,,,,,,,,,,,,,,,,,,,,,,,,,,,,,,,,,,,,,,,,,,,124.03344457602361,None,space,0.5324410600005649,124.03344457602361,None,124.63613875201554,None,j,1,1.2338522319914773,124.63613875201554,None,125.90058382842399,None,None,125.90058382842399,None,,5,001,2021_Nov_04_1529,searchDisc4,2021.2.3,60.01858343906866,
images/exp2c_trial_187_colour3_distractors9_l.png,l,f,2c,187,3,9,,,,,0,19,19,40,,,,,,,,,,,,,,,,,,,,,,,,,,,,,,,,,,,,,,,,,,,,,,,,,,,,,,,,,,,,,,,,,,,,,,,,,,,,125.90056104402174,None,space,0.30539524101186544,125.90056104402174,None,126.28610016600578,None,f,1,0.9119867739791516,126.28610016600578,None,127.21726680841239,None,None,127.21726680841239,None,,5,001,2021_Nov_04_1529,searchDisc4,2021.2.3,60.01858343906866,
images/exp2c_trial_190_colour0_distractors0_r.png,r,j,2c,190,0,0,,,,,0,20,20,43,,,,,,,,,,,,,,,,,,,,,,,,,,,,,,,,,,,,,,,,,,,,,,,,,,,,,,,,,,,,,,,,,,,,,,,,,,,,127.21705808502156,None,space,0.3729840019950643,127.21705808502156,None,127.66940285800956,None,j,1,0.7847172119945753,127.66940285800956,None,128.4838580734242,None,None,128.4838580734242,None,,5,001,2021_Nov_04_1529,searchDisc4,2021.2.3,60.01858343906866,
images/exp2c_trial_183_colour2_distractors19_l.png,l,f,2c,183,2,19,,,,,0,21,21,36,,,,,,,,,,,,,,,,,,,,,,,,,,,,,,,,,,,,,,,,,,,,,,,,,,,,,,,,,,,,,,,,,,,,,,,,,,,,128.48343769501662,None,space,0.31466957001248375,128.48343769501662,None,128.86961192000308,None,f,1,0.8644536710053217,128.86961192000308,None,129.75078594740188,None,None,129.75078594740188,None,,5,001,2021_Nov_04_1529,searchDisc4,2021.2.3,60.01858343906866,
images/exp2b_trial_76_colour3_distractors9_r.png,r,j,2b,76,3,9,,,,,0,22,22,697,,,,,,,,,,,,,,,,,,,,,,,,,,,,,,,,,,,,,,,,,,,,,,,,,,,,,,,,,,,,,,,,,,,,,,,,,,,,129.7506045110058,None,space,0.39944603099138476,129.7506045110058,None,130.2194400190201,None,j,1,0.8428092570102308,130.2194400190201,None,131.08363977642438,None,None,131.08363977642438,None,,5,001,2021_Nov_04_1529,searchDisc4,2021.2.3,60.01858343906866,
images/exp2a_trial_120_colour2_distractors31_l.png,l,f,2a,120,2,31,,,,,0,23,23,549,,,,,,,,,,,,,,,,,,,,,,,,,,,,,,,,,,,,,,,,,,,,,,,,,,,,,,,,,,,,,,,,,,,,,,,,,,,,131.08397652901476,None,space,0.3701547750097234,131.08397652901476,None,131.53829746000702,None,f,1,0.9320242809772026,131.53829746000702,None,132.50069911041936,None,None,132.50069911041936,None,,5,001,2021_Nov_04_1529,searchDisc4,2021.2.3,60.01858343906866,
images/exp1b_trial_71_colour2_distractors9_r.png,r,j,1b,71,2,9,,,,,0,24,24,308,,,,,,,,,,,,,,,,,,,,,,,,,,,,,,,,,,,,,,,,,,,,,,,,,,,,,,,,,,,,,,,,,,,,,,,,,,,,132.50012346400763,None,space,0.3861514389864169,132.50012346400763,None,132.9697015780257,None,j,1,1.0206795599951874,132.9697015780257,None,134.01735382242185,None,None,134.01735382242185,None,,5,001,2021_Nov_04_1529,searchDisc4,2021.2.3,60.01858343906866,
images/exp2b_trial_40_colour2_distractors19_r.png,r,j,2b,40,2,19,,,,,0,25,25,661,,,,,,,,,,,,,,,,,,,,,,,,,,,,,,,,,,,,,,,,,,,,,,,,,,,,,,,,,,,,,,,,,,,,,,,,,,,,134.01719481599866,None,space,0.3891160729981493,134.01719481599866,None,134.4863832660194,None,j,1,0.6560159749933518,134.4863832660194,None,135.16725913141562,None,None,135.16725913141562,None,,5,001,2021_Nov_04_1529,searchDisc4,2021.2.3,60.01858343906866,
images/exp1b_trial_95_colour0_distractors0_l.png,l,f,1b,95,0,0,,,,,0,26,26,332,,,,,,,,,,,,,,,,,,,,,,,,,,,,,,,,,,,,,,,,,,,,,,,,,,,,,,,,,,,,,,,,,,,,,,,,,,,,135.1669792580069,None,space,0.5593888020084705,135.1669792580069,None,135.80297122802585,None,f,1,0.667489691026276,135.80297122802585,None,136.5007821044157,None,None,136.5007821044157,None,,5,001,2021_Nov_04_1529,searchDisc4,2021.2.3,60.01858343906866,
images/exp1a_trial_44_colour3_distractors9_r.png,r,j,1a,44,3,9,,,,,0,27,27,89,,,,,,,,,,,,,,,,,,,,,,,,,,,,,,,,,,,,,,,,,,,,,,,,,,,,,,,,,,,,,,,,,,,,,,,,,,,,136.50091714801965,None,space,0.4094525859982241,136.50091714801965,None,136.98611964200973,None,j,1,0.8364254769985564,136.98611964200973,None,137.85088350641598,None,None,137.85088350641598,None,,5,001,2021_Nov_04_1529,searchDisc4,2021.2.3,60.01858343906866,
images/exp1b_trial_82_colour1_distractors19_l.png,l,f,1b,82,1,19,,,,,0,28,28,319,,,,,,,,,,,,,,,,,,,,,,,,,,,,,,,,,,,,,,,,,,,,,,,,,,,,,,,,,,,,,,,,,,,,,,,,,,,,137.85090188501636,None,space,0.4276015690120403,137.85090188501636,None,138.3531417780032,None,f,1,0.9334631650126539,138.3531417780032,None,139.31740743440167,None,None,139.31740743440167,None,,5,001,2021_Nov_04_1529,searchDisc4,2021.2.3,60.01858343906866,
images/exp2a_trial_130_colour1_distractors9_r.png,r,j,2a,130,1,9,,,,,0,29,29,559,,,,,,,,,,,,,,,,,,,,,,,,,,,,,,,,,,,,,,,,,,,,,,,,,,,,,,,,,,,,,,,,,,,,,,,,,,,,139.31726783601334,None,space,0.3852978259965312,139.31726783601334,None,139.76956412702566,None,j,1,0.70107255000039,139.76956412702566,None,140.50084037141932,None,None,140.50084037141932,None,,5,001,2021_Nov_04_1529,searchDisc4,2021.2.3,60.01858343906866,
images/exp1a_trial_33_colour1_distractors4_r.png,r,j,1a,33,1,4,,,,,0,30,30,78,,,,,,,,,,,,,,,,,,,,,,,,,,,,,,,,,,,,,,,,,,,,,,,,,,,,,,,,,,,,,,,,,,,,,,,,,,,,140.50089817802655,None,space,0.32971903300494887,140.50089817802655,None,140.90323325400823,None,j,1,1.0635175599891227,140.90323325400823,None,141.98443077341943,None,None,141.98443077341943,None,,5,001,2021_Nov_04_1529,searchDisc4,2021.2.3,60.01858343906866,
images/exp2b_trial_38_colour2_distractors4_r.png,r,j,2b,38,2,4,,,,,0,31,31,659,,,,,,,,,,,,,,,,,,,,,,,,,,,,,,,,,,,,,,,,,,,,,,,,,,,,,,,,,,,,,,,,,,,,,,,,,,,,141.98431990700192,None,space,0.3502911980031058,141.98431990700192,None,142.40325797500554,None,j,1,0.6275239620008506,142.40325797500554,None,143.0512732384115,None,None,143.0512732384115,None,,5,001,2021_Nov_04_1529,searchDisc4,2021.2.3,60.01858343906866,
images/exp2c_trial_57_colour3_distractors1_l.png,l,f,2c,57,3,1,,,,,0,32,32,870,,,,,,,,,,,,,,,,,,,,,,,,,,,,,,,,,,,,,,,,,,,,,,,,,,,,,,,,,,,,,,,,,,,,,,,,,,,,143.05111824302003,None,space,0.44363835200783797,143.05111824302003,None,143.56994297599886,None,f,1,0.7728077070205472,143.56994297599886,None,144.36758537139684,None,None,144.36758537139684,None,,5,001,2021_Nov_04_1529,searchDisc4,2021.2.3,60.01858343906866,
images/exp1b_trial_35_colour1_distractors19_r.png,r,j,1b,35,1,19,,,,,0,33,33,272,,,,,,,,,,,,,,,,,,,,,,,,,,,,,,,,,,,,,,,,,,,,,,,,,,,,,,,,,,,,,,,,,,,,,,,,,,,,144.36773180501768,None,space,0.391077636013506,144.36773180501768,None,144.83678822402726,None,j,1,0.9061187519982923,144.83678822402726,None,145.76781719041463,None,None,145.76781719041463,None,,5,001,2021_Nov_04_1529,searchDisc4,2021.2.3,60.01858343906866,
images/exp1b_trial_87_colour2_distractors19_l.png,l,f,1b,87,2,19,,,,,0,34,34,324,,,,,,,,,,,,,,,,,,,,,,,,,,,,,,,,,,,,,,,,,,,,,,,,,,,,,,,,,,,,,,,,,,,,,,,,,,,,145.76766855301685,None,space,0.375199210975552,145.76766855301685,None,146.21959984800196,None,f,1,0.8433480680105276,146.21959984800196,None,147.08424825841502,None,None,147.08424825841502,None,,5,001,2021_Nov_04_1529,searchDisc4,2021.2.3,60.01858343906866,
images/exp2a_trial_47_colour1_distractors1_l.png,l,f,2a,47,1,1,,,,,0,35,35,476,,,,,,,,,,,,,,,,,,,,,,,,,,,,,,,,,,,,,,,,,,,,,,,,,,,,,,,,,,,,,,,,,,,,,,,,,,,,147.08446396602085,None,space,0.3785336689907126,147.08446396602085,None,147.53679819201352,None,f,1,0.7502433390181977,147.53679819201352,None,148.31787338439898,None,None,148.31787338439898,None,,5,001,2021_Nov_04_1529,searchDisc4,2021.2.3,60.01858343906866,
images/exp1a_trial_183_colour2_distractors19_l.png,l,f,1a,183,2,19,,,,,0,36,36,228,,,,,,,,,,,,,,,,,,,,,,,,,,,,,,,,,,,,,,,,,,,,,,,,,,,,,,,,,,,,,,,,,,,,,,,,,,,,148.3178289180214,None,space,0.3530765709874686,148.3178289180214,None,148.75348920800025,None,f,1,0.789587877021404,148.75348920800025,None,149.56803182640868,None,None,149.56803182640868,None,,5,001,2021_Nov_04_1529,searchDisc4,2021.2.3,60.01858343906866,
images/exp1a_trial_149_colour2_distractors4_l.png,l,f,1a,149,2,4,,,,,0,37,37,194,,,,,,,,,,,,,,,,,,,,,,,,,,,,,,,,,,,,,,,,,,,,,,,,,,,,,,,,,,,,,,,,,,,,,,,,,,,,149.56789993401617,None,space,0.3990639249968808,149.56789993401617,None,150.0360547520104,None,f,1,0.6430777649802621,150.0360547520104,None,150.70072599040867,None,None,150.70072599040867,None,,5,001,2021_Nov_04_1529,searchDisc4,2021.2.3,60.01858343906866,
images/exp2c_trial_123_colour3_distractors9_l.png,l,f,2c,123,3,9,,,,,0,38,38,936,,,,,,,,,,,,,,,,,,,,,,,,,,,,,,,,,,,,,,,,,,,,,,,,,,,,,,,,,,,,,,,,,,,,,,,,,,,,150.70115707200603,None,space,0.38585832199896686,150.70115707200603,None,151.1701929840201,None,f,1,0.6930074760166463,151.1701929840201,None,151.88471177840546,None,None,151.88471177840546,None,,5,001,2021_Nov_04_1529,searchDisc4,2021.2.3,60.01858343906866,
images/exp1a_trial_77_colour3_distractors19_r.png,r,j,1a,77,3,19,,,,,0,39,39,122,,,,,,,,,,,,,,,,,,,,,,,,,,,,,,,,,,,,,,,,,,,,,,,,,,,,,,,,,,,,,,,,,,,,,,,,,,,,151.88442713901168,None,space,0.35473549499874935,151.88442713901168,None,152.32001367601333,None,j,1,1.2471709009842016,152.32001367601333,None,153.5846504154062,None,None,153.5846504154062,None,,5,001,2021_Nov_04_1529,searchDisc4,2021.2.3,60.01858343906866,
images/exp2a_trial_161_colour1_distractors4_r.png,r,j,2a,161,1,4,,,,,0,40,40,590,,,,,,,,,,,,,,,,,,,,,,,,,,,,,,,,,,,,,,,,,,,,,,,,,,,,,,,,,,,,,,,,,,,,,,,,,,,,153.58453502101474,None,space,0.3026175790000707,153.58453502101474,None,153.97043298900826,None,j,1,0.9169167609943543,153.97043298900826,None,154.9181127004005,None,None,154.9181127004005,None,,5,001,2021_Nov_04_1529,searchDisc4,2021.2.3,60.01858343906866,
images/exp2a_trial_68_colour1_distractors31_r.png,r,j,2a,68,1,31,,,,,0,41,41,497,,,,,,,,,,,,,,,,,,,,,,,,,,,,,,,,,,,,,,,,,,,,,,,,,,,,,,,,,,,,,,,,,,,,,,,,,,,,154.91810523200547,None,space,0.33718457497889176,154.91810523200547,None,155.33682337400387,None,j,1,0.8225883919803891,155.33682337400387,None,156.1843752473971,None,None,156.1843752473971,None,,5,001,2021_Nov_04_1529,searchDisc4,2021.2.3,60.01858343906866,
images/exp2b_trial_115_colour1_distractors31_l.png,l,f,2b,115,1,31,,,,,0,42,42,736,,,,,,,,,,,,,,,,,,,,,,,,,,,,,,,,,,,,,,,,,,,,,,,,,,,,,,,,,,,,,,,,,,,,,,,,,,,,156.18413008900825,None,space,0.3352340550045483,156.18413008900825,None,156.5870335070067,None,f,1,0.8524270600173622,156.5870335070067,None,157.46815846240787,None,None,157.46815846240787,None,,5,001,2021_Nov_04_1529,searchDisc4,2021.2.3,60.01858343906866,
images/exp1b_trial_125_colour3_distractors31_l.png,l,f,1b,125,3,31,,,,,0,43,43,362,,,,,,,,,,,,,,,,,,,,,,,,,,,,,,,,,,,,,,,,,,,,,,,,,,,,,,,,,,,,,,,,,,,,,,,,,,,,157.46734919800656,None,space,0.36406659201020375,157.46734919800656,None,157.90369859102066,None,f,1,1.3838509220222477,157.90369859102066,None,159.31812856241885,None,None,159.31812856241885,None,,5,001,2021_Nov_04_1529,searchDisc4,2021.2.3,60.01858343906866,
images/exp1b_trial_148_colour2_distractors1_l.png,l,f,1b,148,2,1,,,,,0,44,44,385,,,,,,,,,,,,,,,,,,,,,,,,,,,,,,,,,,,,,,,,,,,,,,,,,,,,,,,,,,,,,,,,,,,,,,,,,,,,159.31805600400548,None,space,0.3214468519727234,159.31805600400548,None,159.72043612902053,None,f,1,0.9512053900107276,159.72043612902053,None,160.70127557742234,None,None,160.70127557742234,None,,5,001,2021_Nov_04_1529,searchDisc4,2021.2.3,60.01858343906866,
images/exp1b_trial_92_colour3_distractors19_l.png,l,f,1b,92,3,19,,,,,0,45,45,329,,,,,,,,,,,,,,,,,,,,,,,,,,,,,,,,,,,,,,,,,,,,,,,,,,,,,,,,,,,,,,,,,,,,,,,,,,,,160.70144920700113,None,space,0.3141121570079122,160.70144920700113,None,161.08705895600724,None,f,1,0.7765702909964602,161.08705895600724,None,161.88490912941342,None,None,161.88490912941342,None,,5,001,2021_Nov_04_1529,searchDisc4,2021.2.3,60.01858343906866,
images/exp1a_trial_98_colour1_distractors9_r.png,r,j,1a,98,1,9,,,,,0,46,46,143,,,,,,,,,,,,,,,,,,,,,,,,,,,,,,,,,,,,,,,,,,,,,,,,,,,,,,,,,,,,,,,,,,,,,,,,,,,,161.88462517299922,None,space,0.34702433497295715,161.88462517299922,None,162.30179638101254,None,j,1,1.1058937649941072,162.30179638101254,None,163.4348329504166,None,None,163.4348329504166,None,,5,001,2021_Nov_04_1529,searchDisc4,2021.2.3,60.01858343906866,
images/exp1b_trial_171_colour3_distractors4_r.png,r,j,1b,171,3,4,,,,,0,47,47,408,,,,,,,,,,,,,,,,,,,,,,,,,,,,,,,,,,,,,,,,,,,,,,,,,,,,,,,,,,,,,,,,,,,,,,,,,,,,163.43508722202387,None,space,0.33250455098459497,163.43508722202387,None,163.83721884401166,None,j,1,0.6745291530096438,163.83721884401166,None,164.5349387814087,None,None,164.5349387814087,None,,5,001,2021_Nov_04_1529,searchDisc4,2021.2.3,60.01858343906866,
images/exp2a_trial_106_colour3_distractors1_r.png,r,j,2a,106,3,1,,,,,0,48,48,535,,,,,,,,,,,,,,,,,,,,,,,,,,,,,,,,,,,,,,,,,,,,,,,,,,,,,,,,,,,,,,,,,,,,,,,,,,,,164.5345361030195,None,space,0.3531252119864803,164.5345361030195,None,164.9705895470106,None,j,1,0.765178075991571,164.9705895470106,None,165.7682984424202,None,None,165.7682984424202,None,,5,001,2021_Nov_04_1529,searchDisc4,2021.2.3,60.01858343906866,
images/exp1b_trial_79_colour1_distractors1_l.png,l,f,1b,79,1,1,,,,,0,49,49,316,,,,,,,,,,,,,,,,,,,,,,,,,,,,,,,,,,,,,,,,,,,,,,,,,,,,,,,,,,,,,,,,,,,,,,,,,,,,165.76817894901615,None,space,0.3115904589940328,165.76817894901615,None,166.1538416140247,None,f,1,1.0139918669883627,166.1538416140247,None,167.18525632639938,None,None,167.18525632639938,None,,5,001,2021_Nov_04_1529,searchDisc4,2021.2.3,60.01858343906866,
images/exp2a_trial_128_colour1_distractors1_r.png,r,j,2a,128,1,1,,,,,0,50,50,557,,,,,,,,,,,,,,,,,,,,,,,,,,,,,,,,,,,,,,,,,,,,,,,,,,,,,,,,,,,,,,,,,,,,,,,,,,,,167.1853190700058,None,space,0.3025286479969509,167.1853190700058,None,167.5677897700225,None,j,1,0.7521792100160383,167.5677897700225,None,168.35121224742323,None,None,168.35121224742323,None,,5,001,2021_Nov_04_1529,searchDisc4,2021.2.3,60.01858343906866,
images/exp2b_trial_120_colour2_distractors31_l.png,l,f,2b,120,2,31,,,,,0,51,51,741,,,,,,,,,,,,,,,,,,,,,,,,,,,,,,,,,,,,,,,,,,,,,,,,,,,,,,,,,,,,,,,,,,,,,,,,,,,,168.35170821100473,None,space,0.26416034300928004,168.35170821100473,None,168.68748911601142,None,f,1,0.6884977799782064,168.68748911601142,None,169.40143729839764,None,None,169.40143729839764,None,,5,001,2021_Nov_04_1529,searchDisc4,2021.2.3,60.01858343906866,
images/exp2a_trial_35_colour1_distractors19_r.png,r,j,2a,35,1,19,,,,,0,52,52,464,,,,,,,,,,,,,,,,,,,,,,,,,,,,,,,,,,,,,,,,,,,,,,,,,,,,,,,,,,,,,,,,,,,,,,,,,,,,169.40118186399923,None,space,0.35068781598238274,169.40118186399923,None,169.82091611402575,None,j,1,0.9231360690027941,169.82091611402575,None,170.7686193314177,None,None,170.7686193314177,None,,5,001,2021_Nov_04_1529,searchDisc4,2021.2.3,60.01858343906866,
images/exp2b_trial_189_colour3_distractors31_l.png,l,f,2b,189,3,31,,,,,0,53,53,810,,,,,,,,,,,,,,,,,,,,,,,,,,,,,,,,,,,,,,,,,,,,,,,,,,,,,,,,,,,,,,,,,,,,,,,,,,,,170.7684261550021,None,space,0.2795904230151791,170.7684261550021,None,171.12076115302625,None,f,1,0.8393438320199493,171.12076115302625,None,171.98491588741598,None,None,171.98491588741598,None,,5,001,2021_Nov_04_1529,searchDisc4,2021.2.3,60.01858343906866,
images/exp2c_trial_162_colour1_distractors9_r.png,r,j,2c,162,1,9,,,,,0,54,54,15,,,,,,,,,,,,,,,,,,,,,,,,,,,,,,,,,,,,,,,,,,,,,,,,,,,,,,,,,,,,,,,,,,,,,,,,,,,,171.98449935601093,None,space,0.29556179998326115,171.98449935601093,None,172.3540056339989,None,j,1,0.7820755100110546,172.3540056339989,None,173.16847292142046,None,None,173.16847292142046,None,,5,001,2021_Nov_04_1529,searchDisc4,2021.2.3,60.01858343906866,
images/exp1b_trial_2_colour1_distractors9_r.png,r,j,1b,2,1,9,,,,,0,55,55,239,,,,,,,,,,,,,,,,,,,,,,,,,,,,,,,,,,,,,,,,,,,,,,,,,,,,,,,,,,,,,,,,,,,,,,,,,,,,173.16827974602347,None,space,0.3037610139872413,173.16827974602347,None,173.5542872880178,None,j,1,0.749950267985696,173.5542872880178,None,174.33530281641578,None,None,174.33530281641578,None,,5,001,2021_Nov_04_1529,searchDisc4,2021.2.3,60.01858343906866,
images/exp1a_trial_66_colour1_distractors9_r.png,r,j,1a,66,1,9,,,,,0,56,56,111,,,,,,,,,,,,,,,,,,,,,,,,,,,,,,,,,,,,,,,,,,,,,,,,,,,,,,,,,,,,,,,,,,,,,,,,,,,,174.33519740900374,None,space,0.3609789960028138,174.33519740900374,None,174.7709068080003,None,j,1,0.6373815549886785,174.7709068080003,None,175.43533220840908,None,None,175.43533220840908,None,,5,001,2021_Nov_04_1529,searchDisc4,2021.2.3,60.01858343906866,
images/exp2a_trial_70_colour2_distractors4_r.png,r,j,2a,70,2,4,,,,,0,57,57,499,,,,,,,,,,,,,,,,,,,,,,,,,,,,,,,,,,,,,,,,,,,,,,,,,,,,,,,,,,,,,,,,,,,,,,,,,,,,175.43520240302314,None,space,0.32505328400293365,175.43520240302314,None,175.8369730390259,None,j,1,0.7954177520005032,175.8369730390259,None,176.65168571440444,None,None,176.65168571440444,None,,5,001,2021_Nov_04_1529,searchDisc4,2021.2.3,60.01858343906866,
images/exp2a_trial_45_colour3_distractors19_r.png,r,j,2a,45,3,19,,,,,0,58,58,474,,,,,,,,,,,,,,,,,,,,,,,,,,,,,,,,,,,,,,,,,,,,,,,,,,,,,,,,,,,,,,,,,,,,,,,,,,,,176.65137389401207,None,space,0.3327827049943153,176.65137389401207,None,177.05414951400599,None,j,1,0.6661254109931178,177.05414951400599,None,177.7514998234139,None,None,177.7514998234139,None,,5,001,2021_Nov_04_1529,searchDisc4,2021.2.3,60.01858343906866,
images/exp1a_trial_22_colour2_distractors9_l.png,l,f,1a,22,2,9,,,,,0,59,59,67,,,,,,,,,,,,,,,,,,,,,,,,,,,,,,,,,,,,,,,,,,,,,,,,,,,,,,,,,,,,,,,,,,,,,,,,,,,,177.75116693601012,None,space,0.4091846289811656,177.75116693601012,None,178.237521846022,None,f,1,0.8509157320077065,178.237521846022,None,179.11864905341935,None,None,179.11864905341935,None,,5,001,2021_Nov_04_1529,searchDisc4,2021.2.3,60.01858343906866,
images/exp2b_trial_168_colour2_distractors19_r.png,r,j,2b,168,2,19,,,,,0,60,60,789,,,,,,,,,,,,,,,,,,,,,,,,,,,,,,,,,,,,,,,,,,,,,,,,,,,,,,,,,,,,,,,,,,,,,,,,,,,,179.11866693300544,None,space,0.32970834500156343,179.11866693300544,None,179.52094744800706,None,j,1,0.7515511350065935,179.52094744800706,None,180.30206381640454,None,None,180.30206381640454,None,,5,001,2021_Nov_04_1529,searchDisc4,2021.2.3,60.01858343906866,
images/exp1b_trial_72_colour2_distractors19_r.png,r,j,1b,72,2,19,,,,,0,61,61,309,,,,,,,,,,,,,,,,,,,,,,,,,,,,,,,,,,,,,,,,,,,,,,,,,,,,,,,,,,,,,,,,,,,,,,,,,,,,180.30170084899873,None,space,0.2987448049825616,180.30170084899873,None,180.67100283200853,None,j,1,0.9535521790094208,180.67100283200853,None,181.65215180442027,None,None,181.65215180442027,None,,5,001,2021_Nov_04_1529,searchDisc4,2021.2.3,60.01858343906866,
images/exp1b_trial_10_colour3_distractors1_r.png,r,j,1b,10,3,1,,,,,0,62,62,247,,,,,,,,,,,,,,,,,,,,,,,,,,,,,,,,,,,,,,,,,,,,,,,,,,,,,,,,,,,,,,,,,,,,,,,,,,,,181.65207043700502,None,space,0.3164201590116136,181.65207043700502,None,182.03763277301914,None,j,1,0.762985380977625,182.03763277301914,None,182.81859444341097,None,None,182.81859444341097,None,,5,001,2021_Nov_04_1529,searchDisc4,2021.2.3,60.01858343906866,
images/exp2b_trial_110_colour3_distractors31_r.png,r,j,2b,110,3,31,,,,,0,63,63,731,,,,,,,,,,,,,,,,,,,,,,,,,,,,,,,,,,,,,,,,,,,,,,,,,,,,,,,,,,,,,,,,,,,,,,,,,,,,182.81823575502494,None,space,0.41433790599694476,182.81823575502494,None,183.3044199620199,None,j,1,0.6801925390027463,183.3044199620199,None,184.0021750224143,None,None,184.0021750224143,None,,5,001,2021_Nov_04_1529,searchDisc4,2021.2.3,60.01858343906866,
images/exp2a_trial_124_colour3_distractors19_l.png,l,f,2a,124,3,19,,,,,0,64,64,553,,,,,,,,,,,,,,,,,,,,,,,,,,,,,,,,,,,,,,,,,,,,,,,,,,,,,,,,,,,,,,,,,,,,,,,,,,,,184.00215655801003,None,space,0.34246743298717774,184.00215655801003,None,184.4210529359989,None,f,1,0.6996616900141817,184.4210529359989,None,185.1521377414203,None,None,185.1521377414203,None,,5,001,2021_Nov_04_1529,searchDisc4,2021.2.3,60.01858343906866,
images/exp2c_trial_146_colour1_distractors19_l.png,l,f,2c,146,1,19,,,,,0,65,65,959,,,,,,,,,,,,,,,,,,,,,,,,,,,,,,,,,,,,,,,,,,,,,,,,,,,,,,,,,,,,,,,,,,,,,,,,,,,,185.15184131200658,None,space,0.44065873499494046,185.15184131200658,None,185.67059600100038,None,f,1,0.6581736240186729,185.67059600100038,None,186.3521562324051,None,None,186.3521562324051,None,,5,001,2021_Nov_04_1529,searchDisc4,2021.2.3,60.01858343906866,
images/exp2b_trial_122_colour3_distractors4_l.png,l,f,2b,122,3,4,,,,,0,66,66,743,,,,,,,,,,,,,,,,,,,,,,,,,,,,,,,,,,,,,,,,,,,,,,,,,,,,,,,,,,,,,,,,,,,,,,,,,,,,186.35169382102322,None,space,0.3770395159954205,186.35169382102322,None,186.80433232401265,None,f,1,0.7244965359859634,186.80433232401265,None,187.55221990539866,None,None,187.55221990539866,None,,5,001,2021_Nov_04_1529,searchDisc4,2021.2.3,60.01858343906866,
images/exp2c_trial_140_colour3_distractors9_r.png,r,j,2c,140,3,9,,,,,0,67,67,953,,,,,,,,,,,,,,,,,,,,,,,,,,,,,,,,,,,,,,,,,,,,,,,,,,,,,,,,,,,,,,,,,,,,,,,,,,,,187.552266239014,None,space,0.3364552370039746,187.552266239014,None,187.97111457100254,None,j,1,0.8616924819943961,187.97111457100254,None,188.851942425422,None,None,188.851942425422,None,,5,001,2021_Nov_04_1529,searchDisc4,2021.2.3,60.01858343906866,
images/exp2b_trial_134_colour2_distractors4_r.png,r,j,2b,134,2,4,,,,,0,68,68,755,,,,,,,,,,,,,,,,,,,,,,,,,,,,,,,,,,,,,,,,,,,,,,,,,,,,,,,,,,,,,,,,,,,,,,,,,,,,188.85195277701132,None,space,0.35690642200643197,188.85195277701132,None,189.28779361001216,None,j,1,0.7211401200038381,189.28779361001216,None,190.03577838040945,None,None,190.03577838040945,None,,5,001,2021_Nov_04_1529,searchDisc4,2021.2.3,60.01858343906866,
images/exp2b_trial_82_colour1_distractors19_l.png,l,f,2b,82,1,19,,,,,0,69,69,703,,,,,,,,,,,,,,,,,,,,,,,,,,,,,,,,,,,,,,,,,,,,,,,,,,,,,,,,,,,,,,,,,,,,,,,,,,,,190.03575737800566,None,space,0.33310326500213705,190.03575737800566,None,190.43781410102383,None,f,1,0.7311220070114359,190.43781410102383,None,191.1857127204159,None,None,191.1857127204159,None,,5,001,2021_Nov_04_1529,searchDisc4,2021.2.3,60.01858343906866,
images/exp2a_trial_3_colour1_distractors19_r.png,r,j,2a,3,1,19,,,,,0,70,70,432,,,,,,,,,,,,,,,,,,,,,,,,,,,,,,,,,,,,,,,,,,,,,,,,,,,,,,,,,,,,,,,,,,,,,,,,,,,,191.18524291701033,None,space,0.32769003199064173,191.18524291701033,None,191.58793592001894,None,j,1,0.9570866979775019,191.58793592001894,None,192.56870093840115,None,None,192.56870093840115,None,,5,001,2021_Nov_04_1529,searchDisc4,2021.2.3,60.01858343906866,
images/exp1a_trial_2_colour1_distractors9_r.png,r,j,1a,2,1,9,,,,,0,71,71,47,,,,,,,,,,,,,,,,,,,,,,,,,,,,,,,,,,,,,,,,,,,,,,,,,,,,,,,,,,,,,,,,,,,,,,,,,,,,192.56857705200673,None,space,0.4004311909957323,192.56857705200673,None,193.03820944900508,None,j,1,0.8028891810099594,193.03820944900508,None,193.86928015342272,None,None,193.86928015342272,None,,5,001,2021_Nov_04_1529,searchDisc4,2021.2.3,60.01858343906866,
images/exp1b_trial_49_colour1_distractors9_l.png,l,f,1b,49,1,9,,,,,0,72,72,286,,,,,,,,,,,,,,,,,,,,,,,,,,,,,,,,,,,,,,,,,,,,,,,,,,,,,,,,,,,,,,,,,,,,,,,,,,,,193.86837436500355,None,space,0.29268538299947977,193.86837436500355,None,194.23797467700206,None,f,1,0.7391855690220837,194.23797467700206,None,195.00252044439839,None,None,195.00252044439839,None,,5,001,2021_Nov_04_1529,searchDisc4,2021.2.3,60.01858343906866,
images/exp1a_trial_189_colour3_distractors31_l.png,l,f,1a,189,3,31,,,,,0,73,73,234,,,,,,,,,,,,,,,,,,,,,,,,,,,,,,,,,,,,,,,,,,,,,,,,,,,,,,,,,,,,,,,,,,,,,,,,,,,,195.0021706460102,None,space,0.37495066301198676,195.0021706460102,None,195.45465447401511,None,f,1,0.7305549880256876,195.45465447401511,None,196.2019864624046,None,None,196.2019864624046,None,,5,001,2021_Nov_04_1529,searchDisc4,2021.2.3,60.01858343906866,
images/exp1a_trial_101_colour2_distractors1_r.png,r,j,1a,101,2,1,,,,,0,74,74,146,,,,,,,,,,,,,,,,,,,,,,,,,,,,,,,,,,,,,,,,,,,,,,,,,,,,,,,,,,,,,,,,,,,,,,,,,,,,196.20198854900082,None,space,0.3752006280119531,196.20198854900082,None,196.65468504102319,None,j,1,0.9065255580062512,196.65468504102319,None,197.58580636541882,None,None,197.58580636541882,None,,5,001,2021_Nov_04_1529,searchDisc4,2021.2.3,60.01858343906866,
images/exp2c_trial_39_colour2_distractors9_r.png,r,j,2c,39,2,9,,,,,0,75,75,852,,,,,,,,,,,,,,,,,,,,,,,,,,,,,,,,,,,,,,,,,,,,,,,,,,,,,,,,,,,,,,,,,,,,,,,,,,,,197.58581655600574,None,space,0.2953462960140314,197.58581655600574,None,197.95478011202067,None,j,1,0.758561525028199,197.95478011202067,None,198.73588876240245,None,None,198.73588876240245,None,,5,001,2021_Nov_04_1529,searchDisc4,2021.2.3,60.01858343906866,
images/exp2b_trial_8_colour2_distractors19_r.png,r,j,2b,8,2,19,,,,,0,76,76,629,,,,,,,,,,,,,,,,,,,,,,,,,,,,,,,,,,,,,,,,,,,,,,,,,,,,,,,,,,,,,,,,,,,,,,,,,,,,198.7358787380217,None,space,0.33742053201422095,198.7358787380217,None,199.15474455800722,None,j,1,0.6865925930032972,199.15474455800722,None,199.8696613034146,None,None,199.8696613034146,None,,5,001,2021_Nov_04_1529,searchDisc4,2021.2.3,60.01858343906866,
images/exp2b_trial_130_colour1_distractors9_r.png,r,j,2b,130,1,9,,,,,0,77,77,751,,,,,,,,,,,,,,,,,,,,,,,,,,,,,,,,,,,,,,,,,,,,,,,,,,,,,,,,,,,,,,,,,,,,,,,,,,,,199.86955579102505,None,space,0.31560315800015815,199.86955579102505,None,200.25488981002127,None,j,1,0.7945455000153743,200.25488981002127,None,201.06850616142327,None,None,201.06850616142327,None,,5,001,2021_Nov_04_1529,searchDisc4,2021.2.3,60.01858343906866,
images/exp2c_trial_164_colour1_distractors31_r.png,r,j,2c,164,1,31,,,,,0,78,78,17,,,,,,,,,,,,,,,,,,,,,,,,,,,,,,,,,,,,,,,,,,,,,,,,,,,,,,,,,,,,,,,,,,,,,,,,,,,,201.06934969700524,None,space,0.3400688440015074,201.06934969700524,None,201.48820552800316,None,j,1,0.729214563005371,201.48820552800316,None,202.23527173040492,None,None,202.23527173040492,None,,5,001,2021_Nov_04_1529,searchDisc4,2021.2.3,60.01858343906866,
images/exp1a_trial_78_colour3_distractors31_r.png,r,j,1a,78,3,31,,,,,0,79,79,123,,,,,,,,,,,,,,,,,,,,,,,,,,,,,,,,,,,,,,,,,,,,,,,,,,,,,,,,,,,,,,,,,,,,,,,,,,,,202.23584574702545,None,space,0.3655294250056613,202.23584574702545,None,202.67106869700365,None,j,1,0.8025687850022223,202.67106869700365,None,203.50271949739835,None,None,203.50271949739835,None,,5,001,2021_Nov_04_1529,searchDisc4,2021.2.3,60.01858343906866,
images/exp2c_trial_122_colour3_distractors4_l.png,l,f,2c,122,3,4,,,,,0,80,80,935,,,,,,,,,,,,,,,,,,,,,,,,,,,,,,,,,,,,,,,,,,,,,,,,,,,,,,,,,,,,,,,,,,,,,,,,,,,,203.5027332160098,None,space,0.3467831130255945,203.5027332160098,None,203.92165498202667,None,f,1,0.7759563830040861,203.92165498202667,None,204.71896802142436,None,None,204.71896802142436,None,,5,001,2021_Nov_04_1529,searchDisc4,2021.2.3,60.01858343906866,
images/exp1b_trial_69_colour2_distractors1_r.png,r,j,1b,69,2,1,,,,,0,81,81,306,,,,,,,,,,,,,,,,,,,,,,,,,,,,,,,,,,,,,,,,,,,,,,,,,,,,,,,,,,,,,,,,,,,,,,,,,,,,204.7188498750038,None,space,0.25073677199543454,204.7188498750038,None,205.03843987701111,None,j,1,0.7471213670214638,205.03843987701111,None,205.80291352642524,None,None,205.80291352642524,None,,5,001,2021_Nov_04_1529,searchDisc4,2021.2.3,60.01858343906866,
images/exp1a_trial_106_colour3_distractors1_r.png,r,j,1a,106,3,1,,,,,0,82,82,151,,,,,,,,,,,,,,,,,,,,,,,,,,,,,,,,,,,,,,,,,,,,,,,,,,,,,,,,,,,,,,,,,,,,,,,,,,,,205.80293404200347,None,space,0.23868153398507275,205.80293404200347,None,206.12157753601787,None,j,1,0.6001349560101517,206.12157753601787,None,206.7528954964102,None,None,206.7528954964102,None,,5,001,2021_Nov_04_1529,searchDisc4,2021.2.3,60.01858343906866,
images/exp1b_trial_191_colour0_distractors0_l.png,l,f,1b,191,0,0,,,,,0,83,83,428,,,,,,,,,,,,,,,,,,,,,,,,,,,,,,,,,,,,,,,,,,,,,,,,,,,,,,,,,,,,,,,,,,,,,,,,,,,,206.75275617701118,None,space,0.3129227699828334,206.75275617701118,None,207.13823347500875,None,f,1,0.8154473459871951,207.13823347500875,None,207.98559735142334,None,None,207.98559735142334,None,,5,001,2021_Nov_04_1529,searchDisc4,2021.2.3,60.01858343906866,
images/exp1a_trial_19_colour1_distractors31_l.png,l,f,1a,19,1,31,,,,,0,84,84,64,,,,,,,,,,,,,,,,,,,,,,,,,,,,,,,,,,,,,,,,,,,,,,,,,,,,,,,,,,,,,,,,,,,,,,,,,,,,207.98622316200635,None,space,0.28751941199880093,207.98622316200635,None,208.35509697700036,None,f,1,0.7827405610005371,208.35509697700036,None,209.16957922140426,None,None,209.16957922140426,None,,5,001,2021_Nov_04_1529,searchDisc4,2021.2.3,60.01858343906866,
images/exp2c_trial_103_colour2_distractors9_r.png,r,j,2c,103,2,9,,,,,0,85,85,916,,,,,,,,,,,,,,,,,,,,,,,,,,,,,,,,,,,,,,,,,,,,,,,,,,,,,,,,,,,,,,,,,,,,,,,,,,,,209.1694641720096,None,space,0.2403370050014928,209.1694641720096,None,209.48844784102403,None,j,1,0.8973379220115021,209.48844784102403,None,210.40283561640825,None,None,210.40283561640825,None,,5,001,2021_Nov_04_1529,searchDisc4,2021.2.3,60.01858343906866,
images/exp2b_trial_59_colour3_distractors9_l.png,l,f,2b,59,3,9,,,,,0,86,86,680,,,,,,,,,,,,,,,,,,,,,,,,,,,,,,,,,,,,,,,,,,,,,,,,,,,,,,,,,,,,,,,,,,,,,,,,,,,,210.4028288500267,None,space,0.23900234498432837,210.4028288500267,None,210.7218535450229,None,f,1,0.9200841860147193,210.7218535450229,None,211.66965135842037,None,None,211.66965135842037,None,,5,001,2021_Nov_04_1529,searchDisc4,2021.2.3,60.01858343906866,
images/exp1a_trial_41_colour2_distractors31_r.png,r,j,1a,41,2,31,,,,,0,87,87,86,,,,,,,,,,,,,,,,,,,,,,,,,,,,,,,,,,,,,,,,,,,,,,,,,,,,,,,,,,,,,,,,,,,,,,,,,,,,211.66946864701458,None,space,0.17242306200205348,211.66946864701458,None,211.92188944402733,None,j,1,0.8800682809960563,211.92188944402733,None,212.8196446194226,None,None,212.8196446194226,None,,5,001,2021_Nov_04_1529,searchDisc4,2021.2.3,60.01858343906866,
images/exp2b_trial_102_colour2_distractors4_r.png,r,j,2b,102,2,4,,,,,0,88,88,723,,,,,,,,,,,,,,,,,,,,,,,,,,,,,,,,,,,,,,,,,,,,,,,,,,,,,,,,,,,,,,,,,,,,,,,,,,,,212.81952733002254,None,space,0.16631977900397032,212.81952733002254,None,213.0552723200235,None,j,1,0.7306938040128443,213.0552723200235,None,213.80283250141946,None,None,213.80283250141946,None,,5,001,2021_Nov_04_1529,searchDisc4,2021.2.3,60.01858343906866,
images/exp2b_trial_60_colour3_distractors19_l.png,l,f,2b,60,3,19,,,,,0,89,89,681,,,,,,,,,,,,,,,,,,,,,,,,,,,,,,,,,,,,,,,,,,,,,,,,,,,,,,,,,,,,,,,,,,,,,,,,,,,,213.80271840802743,None,space,0.2552810519991908,213.80271840802743,None,214.1386695530091,None,f,1,0.8394155800051522,214.1386695530091,None,215.00267781841393,None,None,215.00267781841393,None,,5,001,2021_Nov_04_1529,searchDisc4,2021.2.3,60.01858343906866,
images/exp2b_trial_29_colour3_distractors31_l.png,l,f,2b,29,3,31,,,,,0,90,90,650,,,,,,,,,,,,,,,,,,,,,,,,,,,,,,,,,,,,,,,,,,,,,,,,,,,,,,,,,,,,,,,,,,,,,,,,,,,,215.00271093001356,None,space,0.23135647998424247,215.00271093001356,None,215.30517898401013,None,f,1,0.7609517720120493,215.30517898401013,None,216.08663556940445,None,None,216.08663556940445,None,,5,001,2021_Nov_04_1529,searchDisc4,2021.2.3,60.01858343906866,
images/exp1b_trial_123_colour3_distractors9_l.png,l,f,1b,123,3,9,,,,,0,91,91,360,,,,,,,,,,,,,,,,,,,,,,,,,,,,,,,,,,,,,,,,,,,,,,,,,,,,,,,,,,,,,,,,,,,,,,,,,,,,216.08589367801324,None,space,0.2122033530031331,216.08589367801324,None,216.37202997101122,None,f,1,1.7021104659943376,216.37202997101122,None,218.10327613240514,None,None,218.10327613240514,None,,5,001,2021_Nov_04_1529,searchDisc4,2021.2.3,60.01858343906866,
images/exp1a_trial_42_colour3_distractors1_r.png,r,j,1a,42,3,1,,,,,0,92,92,87,,,,,,,,,,,,,,,,,,,,,,,,,,,,,,,,,,,,,,,,,,,,,,,,,,,,,,,,,,,,,,,,,,,,,,,,,,,,218.10322371701477,None,space,0.19493058798252605,218.10322371701477,None,218.37218881500303,None,j,1,0.7900576920073945,218.37218881500303,None,219.1866634984064,None,None,219.1866634984064,None,,5,001,2021_Nov_04_1529,searchDisc4,2021.2.3,60.01858343906866,
images/exp2c_trial_133_colour2_distractors1_r.png,r,j,2c,133,2,1,,,,,0,93,93,946,,,,,,,,,,,,,,,,,,,,,,,,,,,,,,,,,,,,,,,,,,,,,,,,,,,,,,,,,,,,,,,,,,,,,,,,,,,,219.18575410102494,None,space,0.25643839497934096,219.18575410102494,None,219.5219972830091,None,j,1,0.7443048860004637,219.5219972830091,None,220.28674377641,None,None,220.28674377641,None,,5,001,2021_Nov_04_1529,searchDisc4,2021.2.3,60.01858343906866,
images/exp2c_trial_31_colour0_distractors0_l.png,l,f,2c,31,0,0,,,,,0,94,94,844,,,,,,,,,,,,,,,,,,,,,,,,,,,,,,,,,,,,,,,,,,,,,,,,,,,,,,,,,,,,,,,,,,,,,,,,,,,,220.285681570007,None,space,0.252600687002996,220.285681570007,None,220.60535996200633,None,f,1,0.7489913550089113,220.60535996200633,None,221.38672926440194,None,None,221.38672926440194,None,,5,001,2021_Nov_04_1529,searchDisc4,2021.2.3,60.01858343906866,
images/exp2a_trial_187_colour3_distractors9_l.png,l,f,2a,187,3,9,,,,,0,95,95,616,,,,,,,,,,,,,,,,,,,,,,,,,,,,,,,,,,,,,,,,,,,,,,,,,,,,,,,,,,,,,,,,,,,,,,,,,,,,221.38653143800911,None,space,0.22380498400889337,221.38653143800911,None,221.68870518301264,None,f,1,0.6977306790067814,221.68870518301264,None,222.4032120364165,None,None,222.4032120364165,None,,5,001,2021_Nov_04_1529,searchDisc4,2021.2.3,60.01858343906866,
images/exp1b_trial_124_colour3_distractors19_l.png,l,f,1b,124,3,19,,,,,0,96,96,361,,,,,,,,,,,,,,,,,,,,,,,,,,,,,,,,,,,,,,,,,,,,,,,,,,,,,,,,,,,,,,,,,,,,,,,,,,,,222.4030752670078,None,space,0.20724878498003818,222.4030752670078,None,222.68887654601713,None,f,1,0.7615977879904676,222.68887654601713,None,223.46967185140528,None,None,223.46967185140528,None,,5,001,2021_Nov_04_1529,searchDisc4,2021.2.3,60.01858343906866,
images/exp2a_trial_74_colour3_distractors1_r.png,r,j,2a,74,3,1,,,,,0,97,97,503,,,,,,,,,,,,,,,,,,,,,,,,,,,,,,,,,,,,,,,,,,,,,,,,,,,,,,,,,,,,,,,,,,,,,,,,,,,,223.46930804100703,None,space,0.26113894701120444,223.46930804100703,None,223.80561734799994,None,j,1,0.9409148769918829,223.80561734799994,None,224.77001722340646,None,None,224.77001722340646,None,,5,001,2021_Nov_04_1529,searchDisc4,2021.2.3,60.01858343906866,
images/exp2b_trial_186_colour3_distractors4_l.png,l,f,2b,186,3,4,,,,,0,98,98,807,,,,,,,,,,,,,,,,,,,,,,,,,,,,,,,,,,,,,,,,,,,,,,,,,,,,,,,,,,,,,,,,,,,,,,,,,,,,224.76989320400753,None,space,0.21656116700614803,224.76989320400753,None,225.05556476401398,None,f,1,0.8349527009995654,225.05556476401398,None,225.91983049639674,None,None,225.91983049639674,None,,5,001,2021_Nov_04_1529,searchDisc4,2021.2.3,60.01858343906866,
images/exp1b_trial_3_colour1_distractors19_r.png,r,j,1b,3,1,19,,,,,0,99,99,240,,,,,,,,,,,,,,,,,,,,,,,,,,,,,,,,,,,,,,,,,,,,,,,,,,,,,,,,,,,,,,,,,,,,,,,,,,,,225.91960403101984,None,space,0.20281173402327113,225.91960403101984,None,226.2053110570123,None,j,1,1.021363862004364,226.2053110570123,None,227.2533144764049,None,None,227.2533144764049,None,,5,001,2021_Nov_04_1529,searchDisc4,2021.2.3,60.01858343906866,
images/exp1a_trial_115_colour1_distractors31_l.png,l,f,1a,115,1,31,,,,,0,100,100,160,,,,,,,,,,,,,,,,,,,,,,,,,,,,,,,,,,,,,,,,,,,,,,,,,,,,,,,,,,,,,,,,,,,,,,,,,,,,227.2533625170181,None,space,0.1972341870132368,227.2533625170181,None,227.52221623502555,None,f,1,0.6965030219871551,227.52221623502555,None,228.23637924640497,None,None,228.23637924640497,None,,5,001,2021_Nov_04_1529,searchDisc4,2021.2.3,60.01858343906866,
images/exp1a_trial_58_colour3_distractors4_l.png,l,f,1a,58,3,4,,,,,0,101,101,103,,,,,,,,,,,,,,,,,,,,,,,,,,,,,,,,,,,,,,,,,,,,,,,,,,,,,,,,,,,,,,,,,,,,,,,,,,,,228.2360648890026,None,space,0.26259478100109845,228.2360648890026,None,228.5723476090061,None,f,1,0.8704126529919449,228.5723476090061,None,229.4701796954061,None,None,229.4701796954061,None,,5,001,2021_Nov_04_1529,searchDisc4,2021.2.3,60.01858343906866,
images/exp2c_trial_137_colour2_distractors31_r.png,r,j,2c,137,2,31,,,,,0,102,102,950,,,,,,,,,,,,,,,,,,,,,,,,,,,,,,,,,,,,,,,,,,,,,,,,,,,,,,,,,,,,,,,,,,,,,,,,,,,,229.46984280302422,None,space,0.19685241099796258,229.46984280302422,None,229.73664468200877,None,j,1,0.8740711249993183,229.73664468200877,None,230.63667936242126,None,None,230.63667936242126,None,,5,001,2021_Nov_04_1529,searchDisc4,2021.2.3,60.01858343906866,
images/exp2a_trial_168_colour2_distractors19_r.png,r,j,2a,168,2,19,,,,,0,103,103,597,,,,,,,,,,,,,,,,,,,,,,,,,,,,,,,,,,,,,,,,,,,,,,,,,,,,,,,,,,,,,,,,,,,,,,,,,,,,230.6366362600238,None,space,0.19014596097986214,230.6366362600238,None,230.90602772700367,None,j,1,1.0088457919773646,230.90602772700367,None,231.9362984264182,None,None,231.9362984264182,None,,5,001,2021_Nov_04_1529,searchDisc4,2021.2.3,60.01858343906866,
images/exp2a_trial_156_colour3_distractors19_l.png,l,f,2a,156,3,19,,,,,0,104,104,585,,,,,,,,,,,,,,,,,,,,,,,,,,,,,,,,,,,,,,,,,,,,,,,,,,,,,,,,,,,,,,,,,,,,,,,,,,,,231.93682876002276,None,space,0.31402087802416645,231.93682876002276,None,232.32243125099922,None,f,1,0.7925020509865135,232.32243125099922,None,233.13638468442076,None,None,233.13638468442076,None,,5,001,2021_Nov_04_1529,searchDisc4,2021.2.3,60.01858343906866,
images/exp2c_trial_48_colour1_distractors4_l.png,l,f,2c,48,1,4,,,,,0,105,105,861,,,,,,,,,,,,,,,,,,,,,,,,,,,,,,,,,,,,,,,,,,,,,,,,,,,,,,,,,,,,,,,,,,,,,,,,,,,,233.13613911601715,None,space,0.21073158798390068,233.13613911601715,None,233.4223768460215,None,f,1,0.7725887470005546,233.4223768460215,None,234.22025868640338,None,None,234.22025868640338,None,,5,001,2021_Nov_04_1529,searchDisc4,2021.2.3,60.01858343906866,
images/exp2b_trial_166_colour2_distractors4_r.png,r,j,2b,166,2,4,,,,,0,106,106,787,,,,,,,,,,,,,,,,,,,,,,,,,,,,,,,,,,,,,,,,,,,,,,,,,,,,,,,,,,,,,,,,,,,,,,,,,,,,234.21989537400077,None,space,0.17504217301029712,234.21989537400077,None,234.472464993014,None,j,1,0.8425686499977019,234.472464993014,None,235.336039015415,None,None,235.336039015415,None,,5,001,2021_Nov_04_1529,searchDisc4,2021.2.3,60.01858343906866,
images/exp2c_trial_156_colour3_distractors19_l.png,l,f,2c,156,3,19,,,,,0,107,107,9,,,,,,,,,,,,,,,,,,,,,,,,,,,,,,,,,,,,,,,,,,,,,,,,,,,,,,,,,,,,,,,,,,,,,,,,,,,,235.33641207500477,None,space,0.29058177198749036,235.33641207500477,None,235.70578212401597,None,f,1,0.8733108149899635,235.70578212401597,None,236.60353239940304,None,None,236.60353239940304,None,,5,001,2021_Nov_04_1529,searchDisc4,2021.2.3,60.01858343906866,
images/exp2a_trial_138_colour3_distractors1_r.png,r,j,2a,138,3,1,,,,,0,108,108,567,,,,,,,,,,,,,,,,,,,,,,,,,,,,,,,,,,,,,,,,,,,,,,,,,,,,,,,,,,,,,,,,,,,,,,,,,,,,236.60304314800305,None,space,0.2880076460132841,236.60304314800305,None,236.97237619600492,None,j,1,0.8707922090252396,236.97237619600492,None,237.87033086040464,None,None,237.87033086040464,None,,5,001,2021_Nov_04_1529,searchDisc4,2021.2.3,60.01858343906866,
images/exp1b_trial_22_colour2_distractors9_l.png,l,f,1b,22,2,9,,,,,0,109,109,259,,,,,,,,,,,,,,,,,,,,,,,,,,,,,,,,,,,,,,,,,,,,,,,,,,,,,,,,,,,,,,,,,,,,,,,,,,,,237.8703221900214,None,space,0.27677442799904384,237.8703221900214,None,238.2226176430122,None,f,1,0.612507303012535,238.2226176430122,None,238.85295974242325,None,None,238.85295974242325,None,,5,001,2021_Nov_04_1529,searchDisc4,2021.2.3,60.01858343906866,
images/exp1a_trial_31_colour0_distractors0_l.png,l,f,1a,31,0,0,,,,,0,110,110,76,,,,,,,,,,,,,,,,,,,,,,,,,,,,,,,,,,,,,,,,,,,,,,,,,,,,,,,,,,,,,,,,,,,,,,,,,,,,238.8528349980188,None,space,0.31031467599677853,238.8528349980188,None,239.23921964599867,None,f,1,0.6040418339835014,239.23921964599867,None,239.87036228040523,None,None,239.87036228040523,None,,5,001,2021_Nov_04_1529,searchDisc4,2021.2.3,60.01858343906866,
images/exp2b_trial_160_colour1_distractors1_r.png,r,j,2b,160,1,1,,,,,0,111,111,781,,,,,,,,,,,,,,,,,,,,,,,,,,,,,,,,,,,,,,,,,,,,,,,,,,,,,,,,,,,,,,,,,,,,,,,,,,,,239.8698245770065,None,space,0.2053687110019382,239.8698245770065,None,240.1558817930054,None,j,1,0.8073946599906776,240.1558817930054,None,240.98693587541055,None,None,240.98693587541055,None,,5,001,2021_Nov_04_1529,searchDisc4,2021.2.3,60.01858343906866,
images/exp1b_trial_126_colour0_distractors0_r.png,r,j,1b,126,0,0,,,,,0,112,112,363,,,,,,,,,,,,,,,,,,,,,,,,,,,,,,,,,,,,,,,,,,,,,,,,,,,,,,,,,,,,,,,,,,,,,,,,,,,,240.98671708101756,None,space,0.21642716499627568,240.98671708101756,None,241.27241748099914,None,j,1,0.7788406309846323,241.27241748099914,None,242.07076409639848,None,None,242.07076409639848,None,,5,001,2021_Nov_04_1529,searchDisc4,2021.2.3,60.01858343906866,
images/exp2a_trial_102_colour2_distractors4_r.png,r,j,2a,102,2,4,,,,,0,113,113,531,,,,,,,,,,,,,,,,,,,,,,,,,,,,,,,,,,,,,,,,,,,,,,,,,,,,,,,,,,,,,,,,,,,,,,,,,,,,242.07075973102474,None,space,0.26043555201613344,242.07075973102474,None,242.40595120500075,None,j,1,0.9814224830188323,242.40595120500075,None,243.4204347054212,None,None,243.4204347054212,None,,5,001,2021_Nov_04_1529,searchDisc4,2021.2.3,60.01858343906866,
images/exp1b_trial_88_colour2_distractors31_l.png,l,f,1b,88,2,31,,,,,0,114,114,325,,,,,,,,,,,,,,,,,,,,,,,,,,,,,,,,,,,,,,,,,,,,,,,,,,,,,,,,,,,,,,,,,,,,,,,,,,,,243.42044694401557,None,space,0.2629160319920629,243.42044694401557,None,243.75590699000168,None,f,1,0.8795277460012585,243.75590699000168,None,244.65333951541396,None,None,244.65333951541396,None,,5,001,2021_Nov_04_1529,searchDisc4,2021.2.3,60.01858343906866,
images/exp1a_trial_36_colour1_distractors31_r.png,r,j,1a,36,1,31,,,,,0,115,115,81,,,,,,,,,,,,,,,,,,,,,,,,,,,,,,,,,,,,,,,,,,,,,,,,,,,,,,,,,,,,,,,,,,,,,,,,,,,,244.65311184502207,None,space,0.1903034069982823,244.65311184502207,None,244.92268723301822,None,j,1,1.0807509470032528,244.92268723301822,None,246.02056975840532,None,None,246.02056975840532,None,,5,001,2021_Nov_04_1529,searchDisc4,2021.2.3,60.01858343906866,
images/exp1b_trial_46_colour3_distractors31_r.png,r,j,1b,46,3,31,,,,,0,116,116,283,,,,,,,,,,,,,,,,,,,,,,,,,,,,,,,,,,,,,,,,,,,,,,,,,,,,,,,,,,,,,,,,,,,,,,,,,,,,246.0203934700112,None,space,0.25504272000398487,246.0203934700112,None,246.35603822302073,None,j,1,0.8154202880105004,246.35603822302073,None,247.20378392740093,None,None,247.20378392740093,None,,5,001,2021_Nov_04_1529,searchDisc4,2021.2.3,60.01858343906866,
images/exp2b_trial_61_colour3_distractors31_l.png,l,f,2b,61,3,31,,,,,0,117,117,682,,,,,,,,,,,,,,,,,,,,,,,,,,,,,,,,,,,,,,,,,,,,,,,,,,,,,,,,,,,,,,,,,,,,,,,,,,,,247.20388299800106,None,space,0.2395564229809679,247.20388299800106,None,247.52298658600193,None,f,1,0.7686123999883421,247.52298658600193,None,248.32076195441476,None,None,248.32076195441476,None,,5,001,2021_Nov_04_1529,searchDisc4,2021.2.3,60.01858343906866,
images/exp2b_trial_95_colour0_distractors0_l.png,l,f,2b,95,0,0,,,,,0,118,118,716,,,,,,,,,,,,,,,,,,,,,,,,,,,,,,,,,,,,,,,,,,,,,,,,,,,,,,,,,,,,,,,,,,,,,,,,,,,,248.3205862470204,None,space,0.22696709600859322,248.3205862470204,None,248.62280636501964,None,f,1,0.7888529770134483,248.62280636501964,None,249.43730372941644,None,None,249.43730372941644,None,,5,001,2021_Nov_04_1529,searchDisc4,2021.2.3,60.01858343906866,
images/exp2b_trial_174_colour3_distractors31_r.png,r,j,2b,174,3,31,,,,,0,119,119,795,,,,,,,,,,,,,,,,,,,,,,,,,,,,,,,,,,,,,,,,,,,,,,,,,,,,,,,,,,,,,,,,,,,,,,,,,,,,249.4372824190068,None,space,0.19023505999939516,249.4372824190068,None,249.70627084901207,None,j,1,0.8813539279799443,249.70627084901207,None,250.62058680600603,None,c,250.62058680600603,None,6.207425561005948,5,001,2021_Nov_04_1529,searchDisc4,2021.2.3,60.01858343906866,
images/exp1a_trial_103_colour2_distractors9_r.png,r,j,1a,103,2,9,,,,,0,120,120,148,,,,,,,,,,,,,,,,,,,,,,,,,,,,,,,,,,,,,,,,,,,,,,,,,,,,,,,,,,,,,,,,,,,,,,,,,,,,256.85650130102294,None,space,0.5394998599949758,256.85650130102294,None,257.47324317201856,None,j,1,0.7788332439959049,257.47324317201856,None,258.2701393823983,None,None,258.2701393823983,None,,5,001,2021_Nov_04_1529,searchDisc4,2021.2.3,60.01858343906866,
images/exp2b_trial_65_colour1_distractors4_r.png,r,j,2b,65,1,4,,,,,0,121,121,686,,,,,,,,,,,,,,,,,,,,,,,,,,,,,,,,,,,,,,,,,,,,,,,,,,,,,,,,,,,,,,,,,,,,,,,,,,,,258.2708879340207,None,space,0.3330496750131715,258.2708879340207,None,258.6731786200253,None,j,1,0.7629669920133892,258.6731786200253,None,259.45411163941316,None,None,259.45411163941316,None,,5,001,2021_Nov_04_1529,searchDisc4,2021.2.3,60.01858343906866,
images/exp1a_trial_124_colour3_distractors19_l.png,l,f,1a,124,3,19,,,,,0,122,122,169,,,,,,,,,,,,,,,,,,,,,,,,,,,,,,,,,,,,,,,,,,,,,,,,,,,,,,,,,,,,,,,,,,,,,,,,,,,,259.4540100580198,None,space,0.2780425069795456,259.4540100580198,None,259.80662050802493,None,f,1,0.7335469440149609,259.80662050802493,None,260.57100608339823,None,None,260.57100608339823,None,,5,001,2021_Nov_04_1529,searchDisc4,2021.2.3,60.01858343906866,
images/exp2b_trial_87_colour2_distractors19_l.png,l,f,2b,87,2,19,,,,,0,123,123,708,,,,,,,,,,,,,,,,,,,,,,,,,,,,,,,,,,,,,,,,,,,,,,,,,,,,,,,,,,,,,,,,,,,,,,,,,,,,260.57092327301507,None,space,0.2331500580185093,260.57092327301507,None,260.8732375440013,None,f,1,0.8270056379842572,260.8732375440013,None,261.7206357214047,None,None,261.7206357214047,None,,5,001,2021_Nov_04_1529,searchDisc4,2021.2.3,60.01858343906866,
images/exp2c_trial_8_colour2_distractors19_r.png,r,j,2c,8,2,19,,,,,0,124,124,821,,,,,,,,,,,,,,,,,,,,,,,,,,,,,,,,,,,,,,,,,,,,,,,,,,,,,,,,,,,,,,,,,,,,,,,,,,,,261.72073881101096,None,space,0.23546408000402153,261.72073881101096,None,262.0213292170083,None,j,1,0.8309187050035689,262.0213292170083,None,262.87027769341074,None,None,262.87027769341074,None,,5,001,2021_Nov_04_1529,searchDisc4,2021.2.3,60.01858343906866,
images/exp1b_trial_74_colour3_distractors1_r.png,r,j,1b,74,3,1,,,,,0,125,125,311,,,,,,,,,,,,,,,,,,,,,,,,,,,,,,,,,,,,,,,,,,,,,,,,,,,,,,,,,,,,,,,,,,,,,,,,,,,,262.87032244101283,None,space,0.28596133398241363,262.87032244101283,None,263.22333325000363,None,j,1,0.7330094909993932,263.22333325000363,None,263.9878150774195,None,None,263.9878150774195,None,,5,001,2021_Nov_04_1529,searchDisc4,2021.2.3,60.01858343906866,
images/exp1b_trial_19_colour1_distractors31_l.png,l,f,1b,19,1,31,,,,,0,126,126,256,,,,,,,,,,,,,,,,,,,,,,,,,,,,,,,,,,,,,,,,,,,,,,,,,,,,,,,,,,,,,,,,,,,,,,,,,,,,263.9870911820035,None,space,0.2732143760076724,263.9870911820035,None,264.3399911560118,None,f,1,0.8643321609997656,264.3399911560118,None,265.2211941333982,None,None,265.2211941333982,None,,5,001,2021_Nov_04_1529,searchDisc4,2021.2.3,60.01858343906866,
images/exp1b_trial_176_colour1_distractors4_l.png,l,f,1b,176,1,4,,,,,0,127,127,413,,,,,,,,,,,,,,,,,,,,,,,,,,,,,,,,,,,,,,,,,,,,,,,,,,,,,,,,,,,,,,,,,,,,,,,,,,,,265.22102567201364,None,space,0.27932359199621715,265.22102567201364,None,265.5733849290118,None,f,1,0.9510844829783309,265.5733849290118,None,266.5545550244016,None,None,266.5545550244016,None,,5,001,2021_Nov_04_1529,searchDisc4,2021.2.3,60.01858343906866,
images/exp2c_trial_66_colour1_distractors9_r.png,r,j,2c,66,1,9,,,,,0,128,128,879,,,,,,,,,,,,,,,,,,,,,,,,,,,,,,,,,,,,,,,,,,,,,,,,,,,,,,,,,,,,,,,,,,,,,,,,,,,,266.55444722101674,None,space,0.2259790179959964,266.55444722101674,None,266.85690994901233,None,j,1,0.9076147910091095,266.85690994901233,None,267.78800161442194,None,None,267.78800161442194,None,,5,001,2021_Nov_04_1529,searchDisc4,2021.2.3,60.01858343906866,
images/exp2b_trial_75_colour3_distractors4_r.png,r,j,2b,75,3,4,,,,,0,129,129,696,,,,,,,,,,,,,,,,,,,,,,,,,,,,,,,,,,,,,,,,,,,,,,,,,,,,,,,,,,,,,,,,,,,,,,,,,,,,267.78750923700863,None,space,0.30496799500542693,267.78750923700863,None,268.17309621101595,None,j,1,0.7914423200127203,268.17309621101595,None,268.98792334640456,None,None,268.98792334640456,None,,5,001,2021_Nov_04_1529,searchDisc4,2021.2.3,60.01858343906866,
images/exp2c_trial_151_colour2_distractors19_l.png,l,f,2c,151,2,19,,,,,0,130,130,4,,,,,,,,,,,,,,,,,,,,,,,,,,,,,,,,,,,,,,,,,,,,,,,,,,,,,,,,,,,,,,,,,,,,,,,,,,,,268.9876166230242,None,space,0.29686160798883066,268.9876166230242,None,269.35678382602055,None,f,1,0.7757959989830852,269.35678382602055,None,270.15386099540336,None,None,270.15386099540336,None,,5,001,2021_Nov_04_1529,searchDisc4,2021.2.3,60.01858343906866,
images/exp2b_trial_182_colour2_distractors9_l.png,l,f,2b,182,2,9,,,,,0,131,131,803,,,,,,,,,,,,,,,,,,,,,,,,,,,,,,,,,,,,,,,,,,,,,,,,,,,,,,,,,,,,,,,,,,,,,,,,,,,,270.154630080011,None,space,0.2339470659790095,270.154630080011,None,270.4567957110121,None,f,1,0.7558755729987752,270.4567957110121,None,271.23761249741364,None,None,271.23761249741364,None,,5,001,2021_Nov_04_1529,searchDisc4,2021.2.3,60.01858343906866,
images/exp1a_trial_61_colour3_distractors31_l.png,l,f,1a,61,3,31,,,,,0,132,132,106,,,,,,,,,,,,,,,,,,,,,,,,,,,,,,,,,,,,,,,,,,,,,,,,,,,,,,,,,,,,,,,,,,,,,,,,,,,,271.23744346402236,None,space,0.2631805420096498,271.23744346402236,None,271.57356373101356,None,f,1,0.7751959640008863,271.57356373101356,None,272.3714092914044,None,None,272.3714092914044,None,,5,001,2021_Nov_04_1529,searchDisc4,2021.2.3,60.01858343906866,
images/exp2b_trial_88_colour2_distractors31_l.png,l,f,2b,88,2,31,,,,,0,133,133,709,,,,,,,,,,,,,,,,,,,,,,,,,,,,,,,,,,,,,,,,,,,,,,,,,,,,,,,,,,,,,,,,,,,,,,,,,,,,272.3712975050148,None,space,0.24935158001608215,272.3712975050148,None,272.6901286810171,None,f,1,0.8425409419869538,272.6901286810171,None,273.5541640424082,None,None,273.5541640424082,None,,5,001,2021_Nov_04_1529,searchDisc4,2021.2.3,60.01858343906866,
images/exp2c_trial_128_colour1_distractors1_r.png,r,j,2c,128,1,1,,,,,0,134,134,941,,,,,,,,,,,,,,,,,,,,,,,,,,,,,,,,,,,,,,,,,,,,,,,,,,,,,,,,,,,,,,,,,,,,,,,,,,,,273.55441548101953,None,space,0.258314665989019,273.55441548101953,None,273.89022727002157,None,j,1,0.7305119369993918,273.89022727002157,None,274.6381234914035,None,None,274.6381234914035,None,,5,001,2021_Nov_04_1529,searchDisc4,2021.2.3,60.01858343906866,
images/exp2b_trial_159_colour0_distractors0_l.png,l,f,2b,159,0,0,,,,,0,135,135,780,,,,,,,,,,,,,,,,,,,,,,,,,,,,,,,,,,,,,,,,,,,,,,,,,,,,,,,,,,,,,,,,,,,,,,,,,,,,274.63763229202596,None,space,0.2631168939988129,274.63763229202596,None,274.97356544301147,None,f,1,0.7272932719788514,274.97356544301147,None,275.7210740543989,None,None,275.7210740543989,None,,5,001,2021_Nov_04_1529,searchDisc4,2021.2.3,60.01858343906866,
images/exp1a_trial_126_colour0_distractors0_r.png,r,j,1a,126,0,0,,,,,0,136,136,171,,,,,,,,,,,,,,,,,,,,,,,,,,,,,,,,,,,,,,,,,,,,,,,,,,,,,,,,,,,,,,,,,,,,,,,,,,,,275.7210886400135,None,space,0.2597238879825454,275.7210886400135,None,276.0568964390259,None,j,1,0.756026256014593,276.0568964390259,None,276.8381645923975,None,None,276.8381645923975,None,,5,001,2021_Nov_04_1529,searchDisc4,2021.2.3,60.01858343906866,
images/exp1a_trial_110_colour3_distractors31_r.png,r,j,1a,110,3,31,,,,,0,137,137,155,,,,,,,,,,,,,,,,,,,,,,,,,,,,,,,,,,,,,,,,,,,,,,,,,,,,,,,,,,,,,,,,,,,,,,,,,,,,276.8373703760153,None,space,0.29539039998780936,276.8373703760153,None,277.2068668960128,None,j,1,0.7501105970004573,277.2068668960128,None,277.98822055739873,None,None,277.98822055739873,None,,5,001,2021_Nov_04_1529,searchDisc4,2021.2.3,60.01858343906866,
images/exp2c_trial_175_colour1_distractors1_l.png,l,f,2c,175,1,1,,,,,0,138,138,28,,,,,,,,,,,,,,,,,,,,,,,,,,,,,,,,,,,,,,,,,,,,,,,,,,,,,,,,,,,,,,,,,,,,,,,,,,,,277.98813542100834,None,space,0.20078504100092687,277.98813542100834,None,278.2569598640257,None,f,1,0.8840900569921359,278.2569598640257,None,279.17140775040315,None,None,279.17140775040315,None,,5,001,2021_Nov_04_1529,searchDisc4,2021.2.3,60.01858343906866,
images/exp2c_trial_110_colour3_distractors31_r.png,r,j,2c,110,3,31,,,,,0,139,139,923,,,,,,,,,,,,,,,,,,,,,,,,,,,,,,,,,,,,,,,,,,,,,,,,,,,,,,,,,,,,,,,,,,,,,,,,,,,,279.1714016610058,None,space,0.2255593310110271,279.1714016610058,None,279.47371324599953,None,j,1,0.8353607470053248,279.47371324599953,None,280.3382376184192,None,None,280.3382376184192,None,,5,001,2021_Nov_04_1529,searchDisc4,2021.2.3,60.01858343906866,
images/exp1a_trial_160_colour1_distractors1_r.png,r,j,1a,160,1,1,,,,,0,140,140,205,,,,,,,,,,,,,,,,,,,,,,,,,,,,,,,,,,,,,,,,,,,,,,,,,,,,,,,,,,,,,,,,,,,,,,,,,,,,280.33800987302675,None,space,0.275037051003892,280.33800987302675,None,280.690301472001,None,j,1,0.7868309240147937,280.690301472001,None,281.5047996434179,None,None,281.5047996434179,None,,5,001,2021_Nov_04_1529,searchDisc4,2021.2.3,60.01858343906866,
images/exp1b_trial_168_colour2_distractors19_r.png,r,j,1b,168,2,19,,,,,0,141,141,405,,,,,,,,,,,,,,,,,,,,,,,,,,,,,,,,,,,,,,,,,,,,,,,,,,,,,,,,,,,,,,,,,,,,,,,,,,,,281.50451425102074,None,space,0.2685777830192819,281.50451425102074,None,281.83996043301886,None,j,1,0.9732403160014655,281.83996043301886,None,282.838053750401,None,None,282.838053750401,None,,5,001,2021_Nov_04_1529,searchDisc4,2021.2.3,60.01858343906866,
images/exp1b_trial_51_colour1_distractors31_l.png,l,f,1b,51,1,31,,,,,0,142,142,288,,,,,,,,,,,,,,,,,,,,,,,,,,,,,,,,,,,,,,,,,,,,,,,,,,,,,,,,,,,,,,,,,,,,,,,,,,,,282.8377714980161,None,space,0.2633787399972789,282.8377714980161,None,283.17384549501,None,f,1,0.9594054769841023,283.17384549501,None,284.1545026024134,None,None,284.1545026024134,None,,5,001,2021_Nov_04_1529,searchDisc4,2021.2.3,60.01858343906866,
images/exp2a_trial_129_colour1_distractors4_r.png,r,j,2a,129,1,4,,,,,0,143,143,558,,,,,,,,,,,,,,,,,,,,,,,,,,,,,,,,,,,,,,,,,,,,,,,,,,,,,,,,,,,,,,,,,,,,,,,,,,,,284.15432468801737,None,space,0.2348837809986435,284.15432468801737,None,284.45702782200533,None,j,1,0.9162611710198689,284.45702782200533,None,285.40501548041647,None,None,285.40501548041647,None,,5,001,2021_Nov_04_1529,searchDisc4,2021.2.3,60.01858343906866,
images/exp1b_trial_24_colour2_distractors31_l.png,l,f,1b,24,2,31,,,,,0,144,144,261,,,,,,,,,,,,,,,,,,,,,,,,,,,,,,,,,,,,,,,,,,,,,,,,,,,,,,,,,,,,,,,,,,,,,,,,,,,,285.40502678902703,None,space,0.2642546909919474,285.40502678902703,None,285.74040387701825,None,f,1,0.7049584689957555,285.74040387701825,None,286.4713038414222,None,None,286.4713038414222,None,,5,001,2021_Nov_04_1529,searchDisc4,2021.2.3,60.01858343906866,
images/exp2a_trial_117_colour2_distractors4_l.png,l,f,2a,117,2,4,,,,,0,145,145,546,,,,,,,,,,,,,,,,,,,,,,,,,,,,,,,,,,,,,,,,,,,,,,,,,,,,,,,,,,,,,,,,,,,,,,,,,,,,286.47168297701865,None,space,0.22964866700931452,286.47168297701865,None,286.77391927700955,None,f,1,0.5835134160006419,286.77391927700955,None,287.3884850414208,None,None,287.3884850414208,None,,5,001,2021_Nov_04_1529,searchDisc4,2021.2.3,60.01858343906866,
images/exp1a_trial_163_colour1_distractors19_r.png,r,j,1a,163,1,19,,,,,0,146,146,208,,,,,,,,,,,,,,,,,,,,,,,,,,,,,,,,,,,,,,,,,,,,,,,,,,,,,,,,,,,,,,,,,,,,,,,,,,,,287.3884131970117,None,space,0.2409436369780451,287.3884131970117,None,287.7070511880156,None,j,1,1.0664321799995378,287.7070511880156,None,288.80503260341646,None,None,288.80503260341646,None,,5,001,2021_Nov_04_1529,searchDisc4,2021.2.3,60.01858343906866,
images/exp2c_trial_163_colour1_distractors19_r.png,r,j,2c,163,1,19,,,,,0,147,147,16,,,,,,,,,,,,,,,,,,,,,,,,,,,,,,,,,,,,,,,,,,,,,,,,,,,,,,,,,,,,,,,,,,,,,,,,,,,,288.8045812540222,None,space,0.23282181701506488,288.8045812540222,None,289.1065506710147,None,j,1,0.6508758209820371,289.1065506710147,None,289.7885994174023,None,None,289.7885994174023,None,,5,001,2021_Nov_04_1529,searchDisc4,2021.2.3,60.01858343906866,
images/exp2a_trial_101_colour2_distractors1_r.png,r,j,2a,101,2,1,,,,,0,148,148,530,,,,,,,,,,,,,,,,,,,,,,,,,,,,,,,,,,,,,,,,,,,,,,,,,,,,,,,,,,,,,,,,,,,,,,,,,,,,289.78854733202024,None,space,0.22491549598635174,289.78854733202024,None,290.0908215480158,None,j,1,0.6986431890109088,290.0908215480158,None,290.8216908904171,None,None,290.8216908904171,None,,5,001,2021_Nov_04_1529,searchDisc4,2021.2.3,60.01858343906866,
images/exp2b_trial_16_colour1_distractors4_l.png,l,f,2b,16,1,4,,,,,0,149,149,637,,,,,,,,,,,,,,,,,,,,,,,,,,,,,,,,,,,,,,,,,,,,,,,,,,,,,,,,,,,,,,,,,,,,,,,,,,,,290.8217334720248,None,space,0.2237470289983321,290.8217334720248,None,291.1234416110092,None,f,1,0.6901765189832076,291.1234416110092,None,291.83845223940733,None,None,291.83845223940733,None,,5,001,2021_Nov_04_1529,searchDisc4,2021.2.3,60.01858343906866,
images/exp1b_trial_135_colour2_distractors9_r.png,r,j,1b,135,2,9,,,,,0,150,150,372,,,,,,,,,,,,,,,,,,,,,,,,,,,,,,,,,,,,,,,,,,,,,,,,,,,,,,,,,,,,,,,,,,,,,,,,,,,,291.8381648710056,None,space,0.24741345600341447,291.8381648710056,None,292.1576713420218,None,j,1,1.0400334899895824,292.1576713420218,None,293.2220967664063,None,None,293.2220967664063,None,,5,001,2021_Nov_04_1529,searchDisc4,2021.2.3,60.01858343906866,
images/exp2a_trial_24_colour2_distractors31_l.png,l,f,2a,24,2,31,,,,,0,151,151,453,,,,,,,,,,,,,,,,,,,,,,,,,,,,,,,,,,,,,,,,,,,,,,,,,,,,,,,,,,,,,,,,,,,,,,,,,,,,293.2217038460076,None,space,0.2399467169889249,293.2217038460076,None,293.54131630199845,None,f,1,0.6803103989805095,293.54131630199845,None,294.23872197341115,None,None,294.23872197341115,None,,5,001,2021_Nov_04_1529,searchDisc4,2021.2.3,60.01858343906866,
images/exp2b_trial_30_colour0_distractors0_r.png,r,j,2b,30,0,0,,,,,0,152,152,651,,,,,,,,,,,,,,,,,,,,,,,,,,,,,,,,,,,,,,,,,,,,,,,,,,,,,,,,,,,,,,,,,,,,,,,,,,,,294.23858256600215,None,space,0.223114140011603,294.23858256600215,None,294.5406593110238,None,j,1,1.0330488040053751,294.5406593110238,None,295.6052008694125,None,None,295.6052008694125,None,,5,001,2021_Nov_04_1529,searchDisc4,2021.2.3,60.01858343906866,
images/exp2a_trial_148_colour2_distractors1_l.png,l,f,2a,148,2,1,,,,,0,153,153,577,,,,,,,,,,,,,,,,,,,,,,,,,,,,,,,,,,,,,,,,,,,,,,,,,,,,,,,,,,,,,,,,,,,,,,,,,,,,295.60486472400953,None,space,0.2007879690208938,295.60486472400953,None,295.8741762920108,None,f,1,0.7556561020028312,295.8741762920108,None,296.6552620624163,None,None,296.6552620624163,None,,5,001,2021_Nov_04_1529,searchDisc4,2021.2.3,60.01858343906866,
images/exp1b_trial_184_colour2_distractors31_l.png,l,f,1b,184,2,31,,,,,0,154,154,421,,,,,,,,,,,,,,,,,,,,,,,,,,,,,,,,,,,,,,,,,,,,,,,,,,,,,,,,,,,,,,,,,,,,,,,,,,,,296.6550623040239,None,space,0.2467359970032703,296.6550623040239,None,296.974237707007,None,f,1,0.9836706730129663,296.974237707007,None,297.988660842416,None,None,297.988660842416,None,,5,001,2021_Nov_04_1529,searchDisc4,2021.2.3,60.01858343906866,
images/exp2a_trial_97_colour1_distractors4_r.png,r,j,2a,97,1,4,,,,,0,155,155,526,,,,,,,,,,,,,,,,,,,,,,,,,,,,,,,,,,,,,,,,,,,,,,,,,,,,,,,,,,,,,,,,,,,,,,,,,,,,297.9887013010157,None,space,0.24906826901133172,297.9887013010157,None,298.3055339080165,None,j,1,0.8764742799976375,298.3055339080165,None,299.20508210439874,None,None,299.20508210439874,None,,5,001,2021_Nov_04_1529,searchDisc4,2021.2.3,60.01858343906866,
images/exp2c_trial_36_colour1_distractors31_r.png,r,j,2c,36,1,31,,,,,0,156,156,849,,,,,,,,,,,,,,,,,,,,,,,,,,,,,,,,,,,,,,,,,,,,,,,,,,,,,,,,,,,,,,,,,,,,,,,,,,,,299.2047206630232,None,space,0.24108650401467457,299.2047206630232,None,299.52424962600344,None,j,1,0.8578181659977417,299.52424962600344,None,300.40563433541973,None,None,300.40563433541973,None,,5,001,2021_Nov_04_1529,searchDisc4,2021.2.3,60.01858343906866,
images/exp2a_trial_58_colour3_distractors4_l.png,l,f,2a,58,3,4,,,,,0,157,157,487,,,,,,,,,,,,,,,,,,,,,,,,,,,,,,,,,,,,,,,,,,,,,,,,,,,,,,,,,,,,,,,,,,,,,,,,,,,,300.4054817550059,None,space,0.3044946499867365,300.4054817550059,None,300.7910347520083,None,f,1,0.7030107570171822,300.7910347520083,None,301.5222365394031,None,None,301.5222365394031,None,,5,001,2021_Nov_04_1529,searchDisc4,2021.2.3,60.01858343906866,
images/exp2b_trial_153_colour3_distractors1_l.png,l,f,2b,153,3,1,,,,,0,158,158,774,,,,,,,,,,,,,,,,,,,,,,,,,,,,,,,,,,,,,,,,,,,,,,,,,,,,,,,,,,,,,,,,,,,,,,,,,,,,301.52178003502195,None,space,0.23613852899870835,301.52178003502195,None,301.84092751101707,None,f,1,0.7571490599948447,301.84092751101707,None,302.6218325163965,None,None,302.6218325163965,None,,5,001,2021_Nov_04_1529,searchDisc4,2021.2.3,60.01858343906866,
images/exp2c_trial_130_colour1_distractors9_r.png,r,j,2c,130,1,9,,,,,0,159,159,943,,,,,,,,,,,,,,,,,,,,,,,,,,,,,,,,,,,,,,,,,,,,,,,,,,,,,,,,,,,,,,,,,,,,,,,,,,,,302.62198775602155,None,space,0.2239902860019356,302.62198775602155,None,302.9243178690085,None,j,1,0.8098292619979475,302.9243178690085,None,303.75548477241244,None,None,303.75548477241244,None,,5,001,2021_Nov_04_1529,searchDisc4,2021.2.3,60.01858343906866,
images/exp2b_trial_51_colour1_distractors31_l.png,l,f,2b,51,1,31,,,,,0,160,160,672,,,,,,,,,,,,,,,,,,,,,,,,,,,,,,,,,,,,,,,,,,,,,,,,,,,,,,,,,,,,,,,,,,,,,,,,,,,,303.75533383802394,None,space,0.26666314699104987,303.75533383802394,None,304.09140759002184,None,f,1,0.8827801129955333,304.09140759002184,None,305.00550324539944,None,None,305.00550324539944,None,,5,001,2021_Nov_04_1529,searchDisc4,2021.2.3,60.01858343906866,
images/exp1a_trial_147_colour1_distractors31_l.png,l,f,1a,147,1,31,,,,,0,161,161,192,,,,,,,,,,,,,,,,,,,,,,,,,,,,,,,,,,,,,,,,,,,,,,,,,,,,,,,,,,,,,,,,,,,,,,,,,,,,305.0050013740256,None,space,0.21716400800505653,305.0050013740256,None,305.29102901602164,None,f,1,0.9071483229927253,305.29102901602164,None,306.22234134740137,None,None,306.22234134740137,None,,5,001,2021_Nov_04_1529,searchDisc4,2021.2.3,60.01858343906866,
images/exp2c_trial_64_colour1_distractors1_r.png,r,j,2c,64,1,1,,,,,0,162,162,877,,,,,,,,,,,,,,,,,,,,,,,,,,,,,,,,,,,,,,,,,,,,,,,,,,,,,,,,,,,,,,,,,,,,,,,,,,,,306.22213394602295,None,space,0.2080691180017311,306.22213394602295,None,306.489042494999,None,j,1,0.9252661929931492,306.489042494999,None,307.4392397184012,None,None,307.4392397184012,None,,5,001,2021_Nov_04_1529,searchDisc4,2021.2.3,60.01858343906866,
images/exp2b_trial_138_colour3_distractors1_r.png,r,j,2b,138,3,1,,,,,0,163,163,759,,,,,,,,,,,,,,,,,,,,,,,,,,,,,,,,,,,,,,,,,,,,,,,,,,,,,,,,,,,,,,,,,,,,,,,,,,,,307.43842198702623,None,space,0.23985218402231112,307.43842198702623,None,307.75784422201104,None,j,1,0.6884460450091865,307.75784422201104,None,308.47220666340144,None,None,308.47220666340144,None,,5,001,2021_Nov_04_1529,searchDisc4,2021.2.3,60.01858343906866,
images/exp1a_trial_68_colour1_distractors31_r.png,r,j,1a,68,1,31,,,,,0,164,164,113,,,,,,,,,,,,,,,,,,,,,,,,,,,,,,,,,,,,,,,,,,,,,,,,,,,,,,,,,,,,,,,,,,,,,,,,,,,,308.4721729440207,None,space,0.31020941998576745,308.4721729440207,None,308.8549314470147,None,j,1,0.8234947519958951,308.8549314470147,None,309.70578464641875,None,None,309.70578464641875,None,,5,001,2021_Nov_04_1529,searchDisc4,2021.2.3,60.01858343906866,
images/exp1a_trial_10_colour3_distractors1_r.png,r,j,1a,10,3,1,,,,,0,165,165,55,,,,,,,,,,,,,,,,,,,,,,,,,,,,,,,,,,,,,,,,,,,,,,,,,,,,,,,,,,,,,,,,,,,,,,,,,,,,309.70560635701986,None,space,0.25270063101197593,309.70560635701986,None,310.0410689410055,None,j,1,0.765314493997721,310.0410689410055,None,310.83905035539937,None,None,310.83905035539937,None,,5,001,2021_Nov_04_1529,searchDisc4,2021.2.3,60.01858343906866,
images/exp2a_trial_86_colour2_distractors9_l.png,l,f,2a,86,2,9,,,,,0,166,166,515,,,,,,,,,,,,,,,,,,,,,,,,,,,,,,,,,,,,,,,,,,,,,,,,,,,,,,,,,,,,,,,,,,,,,,,,,,,,310.83913384302286,None,space,0.25531822798075154,310.83913384302286,None,311.17463234302704,None,f,1,0.7038958250195719,311.17463234302704,None,311.9059760964039,None,None,311.9059760964039,None,,5,001,2021_Nov_04_1529,searchDisc4,2021.2.3,60.01858343906866,
images/exp2c_trial_147_colour1_distractors31_l.png,l,f,2c,147,1,31,,,,,0,167,167,0,,,,,,,,,,,,,,,,,,,,,,,,,,,,,,,,,,,,,,,,,,,,,,,,,,,,,,,,,,,,,,,,,,,,,,,,,,,,311.905556482001,None,space,0.22093364401371218,311.905556482001,None,312.20812632900197,None,f,1,0.734467506990768,312.20812632900197,None,312.9726110463991,None,None,312.9726110463991,None,,5,001,2021_Nov_04_1529,searchDisc4,2021.2.3,60.01858343906866,
images/exp1b_trial_165_colour2_distractors1_r.png,r,j,1b,165,2,1,,,,,0,168,168,402,,,,,,,,,,,,,,,,,,,,,,,,,,,,,,,,,,,,,,,,,,,,,,,,,,,,,,,,,,,,,,,,,,,,,,,,,,,,312.9723259820021,None,space,0.2502057290112134,312.9723259820021,None,313.29117117699934,None,j,1,0.7553968699940015,313.29117117699934,None,314.0724379713967,None,None,314.0724379713967,None,,5,001,2021_Nov_04_1529,searchDisc4,2021.2.3,60.01858343906866,
images/exp1a_trial_127_colour0_distractors0_l.png,l,f,1a,127,0,0,,,,,0,169,169,172,,,,,,,,,,,,,,,,,,,,,,,,,,,,,,,,,,,,,,,,,,,,,,,,,,,,,,,,,,,,,,,,,,,,,,,,,,,,314.07230158001767,None,space,0.2782800589920953,314.07230158001767,None,314.4133165210078,None,f,1,0.8653890110144857,314.4133165210078,None,315.30574373039707,None,None,315.30574373039707,None,,5,001,2021_Nov_04_1529,searchDisc4,2021.2.3,60.01858343906866,
images/exp1b_trial_76_colour3_distractors9_r.png,r,j,1b,76,3,9,,,,,0,170,170,313,,,,,,,,,,,,,,,,,,,,,,,,,,,,,,,,,,,,,,,,,,,,,,,,,,,,,,,,,,,,,,,,,,,,,,,,,,,,315.30553395702736,None,space,0.20511134798289277,315.30553395702736,None,315.59144992299844,None,j,1,0.8311982500017621,315.59144992299844,None,316.4557972724171,None,None,316.4557972724171,None,,5,001,2021_Nov_04_1529,searchDisc4,2021.2.3,60.01858343906866,
images/exp2a_trial_165_colour2_distractors1_r.png,r,j,2a,165,2,1,,,,,0,171,171,594,,,,,,,,,,,,,,,,,,,,,,,,,,,,,,,,,,,,,,,,,,,,,,,,,,,,,,,,,,,,,,,,,,,,,,,,,,,,316.4557903930254,None,space,0.20692990798852406,316.4557903930254,None,316.74146090401337,None,j,1,0.7693634460156318,316.74146090401337,None,317.53930208442324,None,None,317.53930208442324,None,,5,001,2021_Nov_04_1529,searchDisc4,2021.2.3,60.01858343906866,
images/exp1a_trial_166_colour2_distractors4_r.png,r,j,1a,166,2,4,,,,,0,172,172,211,,,,,,,,,,,,,,,,,,,,,,,,,,,,,,,,,,,,,,,,,,,,,,,,,,,,,,,,,,,,,,,,,,,,,,,,,,,,317.53918703400996,None,space,0.2675588690035511,317.53918703400996,None,317.8747700540116,None,j,1,0.7880970529804472,317.8747700540116,None,318.68939584339677,None,None,318.68939584339677,None,,5,001,2021_Nov_04_1529,searchDisc4,2021.2.3,60.01858343906866,
images/exp1a_trial_93_colour3_distractors31_l.png,l,f,1a,93,3,31,,,,,0,173,173,138,,,,,,,,,,,,,,,,,,,,,,,,,,,,,,,,,,,,,,,,,,,,,,,,,,,,,,,,,,,,,,,,,,,,,,,,,,,,318.68918360501993,None,space,0.22161284898174927,318.68918360501993,None,318.9913633300166,None,f,1,0.9195524280075915,318.9913633300166,None,319.9392786604032,None,None,319.9392786604032,None,,5,001,2021_Nov_04_1529,searchDisc4,2021.2.3,60.01858343906866,
images/exp1a_trial_65_colour1_distractors4_r.png,r,j,1a,65,1,4,,,,,0,174,174,110,,,,,,,,,,,,,,,,,,,,,,,,,,,,,,,,,,,,,,,,,,,,,,,,,,,,,,,,,,,,,,,,,,,,,,,,,,,,319.93956509500276,None,space,0.27530169099918567,319.93956509500276,None,320.2906140120176,None,j,1,0.8283313779975288,320.2906140120176,None,321.1392399924254,None,None,321.1392399924254,None,,5,001,2021_Nov_04_1529,searchDisc4,2021.2.3,60.01858343906866,
images/exp2b_trial_171_colour3_distractors4_r.png,r,j,2b,171,3,4,,,,,0,175,175,792,,,,,,,,,,,,,,,,,,,,,,,,,,,,,,,,,,,,,,,,,,,,,,,,,,,,,,,,,,,,,,,,,,,,,,,,,,,,321.1392243100272,None,space,0.24362679800833575,321.1392243100272,None,321.458203385002,None,j,1,0.7888068829779513,321.458203385002,None,322.2726906654163,None,None,322.2726906654163,None,,5,001,2021_Nov_04_1529,searchDisc4,2021.2.3,60.01858343906866,
images/exp2a_trial_11_colour3_distractors4_r.png,r,j,2a,11,3,4,,,,,0,176,176,440,,,,,,,,,,,,,,,,,,,,,,,,,,,,,,,,,,,,,,,,,,,,,,,,,,,,,,,,,,,,,,,,,,,,,,,,,,,,322.27243847900536,None,space,0.25443351099966094,322.27243847900536,None,322.6082728790061,None,j,1,0.598697584006004,322.6082728790061,None,323.2394033964112,None,None,323.2394033964112,None,,5,001,2021_Nov_04_1529,searchDisc4,2021.2.3,60.01858343906866,
images/exp2c_trial_67_colour1_distractors19_r.png,r,j,2c,67,1,19,,,,,0,177,177,880,,,,,,,,,,,,,,,,,,,,,,,,,,,,,,,,,,,,,,,,,,,,,,,,,,,,,,,,,,,,,,,,,,,,,,,,,,,,323.239163692022,None,space,0.2878589309984818,323.239163692022,None,323.60837575400365,None,j,1,0.8067426450143103,323.60837575400365,None,324.43959499142073,None,None,324.43959499142073,None,,5,001,2021_Nov_04_1529,searchDisc4,2021.2.3,60.01858343906866,
images/exp2b_trial_89_colour3_distractors1_l.png,l,f,2b,89,3,1,,,,,0,178,178,710,,,,,,,,,,,,,,,,,,,,,,,,,,,,,,,,,,,,,,,,,,,,,,,,,,,,,,,,,,,,,,,,,,,,,,,,,,,,324.4393637700123,None,space,0.25571678098640405,324.4393637700123,None,324.7750925500004,None,f,1,0.7920811359945219,324.7750925500004,None,325.5887921024143,None,None,325.5887921024143,None,,5,001,2021_Nov_04_1529,searchDisc4,2021.2.3,60.01858343906866,
images/exp2a_trial_37_colour2_distractors1_r.png,r,j,2a,37,2,1,,,,,0,179,179,466,,,,,,,,,,,,,,,,,,,,,,,,,,,,,,,,,,,,,,,,,,,,,,,,,,,,,,,,,,,,,,,,,,,,,,,,,,,,325.58951653999975,None,space,0.2016036770073697,325.58951653999975,None,325.85830227000406,None,j,1,0.6689045120147057,325.85830227000406,None,326.556221341397,None,None,326.556221341397,None,,5,001,2021_Nov_04_1529,searchDisc4,2021.2.3,60.01858343906866,
images/exp1b_trial_128_colour1_distractors1_r.png,r,j,1b,128,1,1,,,,,0,180,180,365,,,,,,,,,,,,,,,,,,,,,,,,,,,,,,,,,,,,,,,,,,,,,,,,,,,,,,,,,,,,,,,,,,,,,,,,,,,,326.5558735180239,None,space,0.24331447799340822,326.5558735180239,None,326.8750058180012,None,j,1,1.068283820990473,326.8750058180012,None,327.97284736240107,None,None,327.97284736240107,None,,5,001,2021_Nov_04_1529,searchDisc4,2021.2.3,60.01858343906866,
images/exp2a_trial_186_colour3_distractors4_l.png,l,f,2a,186,3,4,,,,,0,181,181,615,,,,,,,,,,,,,,,,,,,,,,,,,,,,,,,,,,,,,,,,,,,,,,,,,,,,,,,,,,,,,,,,,,,,,,,,,,,,327.97291120301816,None,space,0.2661672839894891,327.97291120301816,None,328.30660604999866,None,f,1,0.692710935982177,328.30660604999866,None,329.0230333164247,None,None,329.0230333164247,None,,5,001,2021_Nov_04_1529,searchDisc4,2021.2.3,60.01858343906866,
images/exp2c_trial_107_colour3_distractors4_r.png,r,j,2c,107,3,4,,,,,0,182,182,920,,,,,,,,,,,,,,,,,,,,,,,,,,,,,,,,,,,,,,,,,,,,,,,,,,,,,,,,,,,,,,,,,,,,,,,,,,,,329.0225389940024,None,space,0.22475480599678122,329.0225389940024,None,329.3252358500031,None,j,1,0.7061290769779589,329.3252358500031,None,330.0562147984194,None,None,330.0562147984194,None,,5,001,2021_Nov_04_1529,searchDisc4,2021.2.3,60.01858343906866,
images/exp1b_trial_108_colour3_distractors9_r.png,r,j,1b,108,3,9,,,,,0,183,183,345,,,,,,,,,,,,,,,,,,,,,,,,,,,,,,,,,,,,,,,,,,,,,,,,,,,,,,,,,,,,,,,,,,,,,,,,,,,,330.05601460899925,None,space,0.2633401950006373,330.05601460899925,None,330.3911938960082,None,j,1,0.816149015998235,330.3911938960082,None,331.2396844004135,None,None,331.2396844004135,None,,5,001,2021_Nov_04_1529,searchDisc4,2021.2.3,60.01858343906866,
images/exp1b_trial_177_colour1_distractors9_l.png,l,f,1b,177,1,9,,,,,0,184,184,414,,,,,,,,,,,,,,,,,,,,,,,,,,,,,,,,,,,,,,,,,,,,,,,,,,,,,,,,,,,,,,,,,,,,,,,,,,,,331.2398730300192,None,space,0.2314550429873634,331.2398730300192,None,331.5418569550093,None,f,1,0.8176015270000789,331.5418569550093,None,332.3898134504008,None,None,332.3898134504008,None,,5,001,2021_Nov_04_1529,searchDisc4,2021.2.3,60.01858343906866,
images/exp2b_trial_10_colour3_distractors1_r.png,r,j,2b,10,3,1,,,,,0,185,185,631,,,,,,,,,,,,,,,,,,,,,,,,,,,,,,,,,,,,,,,,,,,,,,,,,,,,,,,,,,,,,,,,,,,,,,,,,,,,332.3898473640147,None,space,0.2575391969876364,332.3898473640147,None,332.7250274149992,None,j,1,0.8824601859960239,332.7250274149992,None,333.6397669504251,None,None,333.6397669504251,None,,5,001,2021_Nov_04_1529,searchDisc4,2021.2.3,60.01858343906866,
images/exp2c_trial_34_colour1_distractors9_r.png,r,j,2c,34,1,9,,,,,0,186,186,847,,,,,,,,,,,,,,,,,,,,,,,,,,,,,,,,,,,,,,,,,,,,,,,,,,,,,,,,,,,,,,,,,,,,,,,,,,,,333.63954346702667,None,space,0.2079115139786154,333.63954346702667,None,333.92553657499957,None,j,1,0.6740339120151475,333.92553657499957,None,334.623251220418,None,None,334.623251220418,None,,5,001,2021_Nov_04_1529,searchDisc4,2021.2.3,60.01858343906866,
images/exp2a_trial_84_colour2_distractors1_l.png,l,f,2a,84,2,1,,,,,0,187,187,513,,,,,,,,,,,,,,,,,,,,,,,,,,,,,,,,,,,,,,,,,,,,,,,,,,,,,,,,,,,,,,,,,,,,,,,,,,,,334.6223448130186,None,space,0.24111138202715665,334.6223448130186,None,334.94192314799875,None,f,1,0.6736984000017401,334.94192314799875,None,335.6392387104017,None,None,335.6392387104017,None,,5,001,2021_Nov_04_1529,searchDisc4,2021.2.3,60.01858343906866,
images/exp2b_trial_114_colour1_distractors19_l.png,l,f,2b,114,1,19,,,,,0,188,188,735,,,,,,,,,,,,,,,,,,,,,,,,,,,,,,,,,,,,,,,,,,,,,,,,,,,,,,,,,,,,,,,,,,,,,,,,,,,,335.6398826210061,None,space,0.2076705950021278,335.6398826210061,None,335.92545778202475,None,f,1,0.8102639190037735,335.92545778202475,None,336.755902728418,None,None,336.755902728418,None,,5,001,2021_Nov_04_1529,searchDisc4,2021.2.3,60.01858343906866,
images/exp2a_trial_64_colour1_distractors1_r.png,r,j,2a,64,1,1,,,,,0,189,189,493,,,,,,,,,,,,,,,,,,,,,,,,,,,,,,,,,,,,,,,,,,,,,,,,,,,,,,,,,,,,,,,,,,,,,,,,,,,,336.75606007300667,None,space,0.24355364497750998,336.75606007300667,None,337.07544212101493,None,j,1,0.9322624149790499,337.07544212101493,None,338.03981143041455,None,None,338.03981143041455,None,,5,001,2021_Nov_04_1529,searchDisc4,2021.2.3,60.01858343906866,
images/exp2c_trial_167_colour2_distractors9_r.png,r,j,2c,167,2,9,,,,,0,190,190,20,,,,,,,,,,,,,,,,,,,,,,,,,,,,,,,,,,,,,,,,,,,,,,,,,,,,,,,,,,,,,,,,,,,,,,,,,,,,338.0397925430152,None,space,0.20781274800538085,338.0397925430152,None,338.3254518000176,None,j,1,0.6822923900035676,338.3254518000176,None,339.039986787425,None,None,339.039986787425,None,,5,001,2021_Nov_04_1529,searchDisc4,2021.2.3,60.01858343906866,
images/exp2b_trial_179_colour1_distractors31_l.png,l,f,2b,179,1,31,,,,,0,191,191,800,,,,,,,,,,,,,,,,,,,,,,,,,,,,,,,,,,,,,,,,,,,,,,,,,,,,,,,,,,,,,,,,,,,,,,,,,,,,339.0396842150076,None,space,0.2399987310054712,339.0396842150076,None,339.3588228110166,None,f,1,0.9450456999766175,339.3588228110166,None,340.32316324540005,None,None,340.32316324540005,None,,5,001,2021_Nov_04_1529,searchDisc4,2021.2.3,60.01858343906866,
images/exp2c_trial_55_colour2_distractors19_l.png,l,f,2c,55,2,19,,,,,0,192,192,868,,,,,,,,,,,,,,,,,,,,,,,,,,,,,,,,,,,,,,,,,,,,,,,,,,,,,,,,,,,,,,,,,,,,,,,,,,,,340.32319990202086,None,space,0.2685737920110114,340.32319990202086,None,340.6587918800069,None,f,1,0.7810948240221478,340.6587918800069,None,341.45667283740767,None,None,341.45667283740767,None,,5,001,2021_Nov_04_1529,searchDisc4,2021.2.3,60.01858343906866,
images/exp1a_trial_133_colour2_distractors1_r.png,r,j,1a,133,2,1,,,,,0,193,193,178,,,,,,,,,,,,,,,,,,,,,,,,,,,,,,,,,,,,,,,,,,,,,,,,,,,,,,,,,,,,,,,,,,,,,,,,,,,,341.456500343018,None,space,0.24732024199329317,341.456500343018,None,341.7734385190124,None,j,1,0.7785118939937092,341.7734385190124,None,342.573300059422,None,None,342.573300059422,None,,5,001,2021_Nov_04_1529,searchDisc4,2021.2.3,60.01858343906866,
images/exp2c_trial_27_colour3_distractors9_l.png,l,f,2c,27,3,9,,,,,0,194,194,840,,,,,,,,,,,,,,,,,,,,,,,,,,,,,,,,,,,,,,,,,,,,,,,,,,,,,,,,,,,,,,,,,,,,,,,,,,,,342.5732828080072,None,space,0.2266333650040906,342.5732828080072,None,342.87558355301735,None,f,1,0.7564722149982117,342.87558355301735,None,343.6569511354057,None,None,343.6569511354057,None,,5,001,2021_Nov_04_1529,searchDisc4,2021.2.3,60.01858343906866,
images/exp1a_trial_165_colour2_distractors1_r.png,r,j,1a,165,2,1,,,,,0,195,195,210,,,,,,,,,,,,,,,,,,,,,,,,,,,,,,,,,,,,,,,,,,,,,,,,,,,,,,,,,,,,,,,,,,,,,,,,,,,,343.65659513600986,None,space,0.24734958101180382,343.65659513600986,None,343.97571608400904,None,j,1,0.7603294220170937,343.97571608400904,None,344.75633231841783,None,None,344.75633231841783,None,,5,001,2021_Nov_04_1529,searchDisc4,2021.2.3,60.01858343906866,
images/exp2c_trial_148_colour2_distractors1_l.png,l,f,2c,148,2,1,,,,,0,196,196,1,,,,,,,,,,,,,,,,,,,,,,,,,,,,,,,,,,,,,,,,,,,,,,,,,,,,,,,,,,,,,,,,,,,,,,,,,,,,344.75603964499896,None,space,0.23593721599900164,344.75603964499896,None,345.05891652501305,None,f,1,0.7011771819961723,345.05891652501305,None,345.7900225603982,None,None,345.7900225603982,None,,5,001,2021_Nov_04_1529,searchDisc4,2021.2.3,60.01858343906866,
images/exp2b_trial_157_colour3_distractors31_l.png,l,f,2b,157,3,31,,,,,0,197,197,778,,,,,,,,,,,,,,,,,,,,,,,,,,,,,,,,,,,,,,,,,,,,,,,,,,,,,,,,,,,,,,,,,,,,,,,,,,,,345.7899486590177,None,space,0.2501231939822901,345.7899486590177,None,346.10889677802334,None,f,1,0.8112416029907763,346.10889677802334,None,346.9405662784149,None,None,346.9405662784149,None,,5,001,2021_Nov_04_1529,searchDisc4,2021.2.3,60.01858343906866,
images/exp1b_trial_40_colour2_distractors19_r.png,r,j,1b,40,2,19,,,,,0,198,198,277,,,,,,,,,,,,,,,,,,,,,,,,,,,,,,,,,,,,,,,,,,,,,,,,,,,,,,,,,,,,,,,,,,,,,,,,,,,,346.93979481302085,None,space,0.24430030302028172,346.93979481302085,None,347.25897796600475,None,j,1,0.9332454740069807,347.25897796600475,None,348.22354009442205,None,None,348.22354009442205,None,,5,001,2021_Nov_04_1529,searchDisc4,2021.2.3,60.01858343906866,
images/exp2a_trial_13_colour3_distractors19_r.png,r,j,2a,13,3,19,,,,,0,199,199,442,,,,,,,,,,,,,,,,,,,,,,,,,,,,,,,,,,,,,,,,,,,,,,,,,,,,,,,,,,,,,,,,,,,,,,,,,,,,348.2238163430011,None,space,0.24033581599360332,348.2238163430011,None,348.54238978700596,None,j,1,0.6978175329859369,348.54238978700596,None,349.2569560044241,None,None,349.2569560044241,None,,5,001,2021_Nov_04_1529,searchDisc4,2021.2.3,60.01858343906866,
images/exp1a_trial_82_colour1_distractors19_l.png,l,f,1a,82,1,19,,,,,0,200,200,127,,,,,,,,,,,,,,,,,,,,,,,,,,,,,,,,,,,,,,,,,,,,,,,,,,,,,,,,,,,,,,,,,,,,,,,,,,,,349.25694693400874,None,space,0.2312106280005537,349.25694693400874,None,349.55899749402306,None,f,1,0.8491976850200444,349.55899749402306,None,350.4403364204074,None,None,350.4403364204074,None,,5,001,2021_Nov_04_1529,searchDisc4,2021.2.3,60.01858343906866,
images/exp2b_trial_69_colour2_distractors1_r.png,r,j,2b,69,2,1,,,,,0,201,201,690,,,,,,,,,,,,,,,,,,,,,,,,,,,,,,,,,,,,,,,,,,,,,,,,,,,,,,,,,,,,,,,,,,,,,,,,,,,,350.44023412800743,None,space,0.2240341709984932,350.44023412800743,None,350.74251907202415,None,j,1,0.8817351220059209,350.74251907202415,None,351.65682529640907,None,None,351.65682529640907,None,,5,001,2021_Nov_04_1529,searchDisc4,2021.2.3,60.01858343906866,
images/exp2c_trial_119_colour2_distractors19_l.png,l,f,2c,119,2,19,,,,,0,202,202,932,,,,,,,,,,,,,,,,,,,,,,,,,,,,,,,,,,,,,,,,,,,,,,,,,,,,,,,,,,,,,,,,,,,,,,,,,,,,351.6564611400245,None,space,0.23184033398865722,351.6564611400245,None,351.95905066101113,None,f,1,0.7453549769998062,351.95905066101113,None,352.7237129973975,None,None,352.7237129973975,None,,5,001,2021_Nov_04_1529,searchDisc4,2021.2.3,60.01858343906866,
images/exp1b_trial_160_colour1_distractors1_r.png,r,j,1b,160,1,1,,,,,0,203,203,397,,,,,,,,,,,,,,,,,,,,,,,,,,,,,,,,,,,,,,,,,,,,,,,,,,,,,,,,,,,,,,,,,,,,,,,,,,,,352.7233260880166,None,space,0.21305537997977808,352.7233260880166,None,353.00721692101797,None,j,1,0.8652699009981006,353.00721692101797,None,353.89020217140495,None,None,353.89020217140495,None,,5,001,2021_Nov_04_1529,searchDisc4,2021.2.3,60.01858343906866,
images/exp2b_trial_56_colour2_distractors31_l.png,l,f,2b,56,2,31,,,,,0,204,204,677,,,,,,,,,,,,,,,,,,,,,,,,,,,,,,,,,,,,,,,,,,,,,,,,,,,,,,,,,,,,,,,,,,,,,,,,,,,,353.8902957900136,None,space,0.22212921001482755,353.8902957900136,None,354.19015086302534,None,f,1,0.7143615139939357,354.19015086302534,None,354.92369424942007,None,None,354.92369424942007,None,,5,001,2021_Nov_04_1529,searchDisc4,2021.2.3,60.01858343906866,
images/exp2a_trial_95_colour0_distractors0_l.png,l,f,2a,95,0,0,,,,,0,205,205,524,,,,,,,,,,,,,,,,,,,,,,,,,,,,,,,,,,,,,,,,,,,,,,,,,,,,,,,,,,,,,,,,,,,,,,,,,,,,354.9233551780053,None,space,0.2931290840206202,354.9233551780053,None,355.2740322420141,None,f,1,0.8065355790022295,355.2740322420141,None,356.107082383419,None,None,356.107082383419,None,,5,001,2021_Nov_04_1529,searchDisc4,2021.2.3,60.01858343906866,
images/exp1a_trial_175_colour1_distractors1_l.png,l,f,1a,175,1,1,,,,,0,206,206,220,,,,,,,,,,,,,,,,,,,,,,,,,,,,,,,,,,,,,,,,,,,,,,,,,,,,,,,,,,,,,,,,,,,,,,,,,,,,356.10684502799995,None,space,0.2296569189929869,356.10684502799995,None,356.39056024400634,None,j,0,3.6660829769971315,356.39056024400634,None,360.0739699914149,None,None,360.0739699914149,None,,5,001,2021_Nov_04_1529,searchDisc4,2021.2.3,60.01858343906866,
images/exp2c_trial_142_colour3_distractors31_r.png,r,j,2c,142,3,31,,,,,0,207,207,955,,,,,,,,,,,,,,,,,,,,,,,,,,,,,,,,,,,,,,,,,,,,,,,,,,,,,,,,,,,,,,,,,,,,,,,,,,,,360.0731828790158,None,space,0.21551376397837885,360.0731828790158,None,360.35968456300907,None,j,1,0.7770449200179428,360.35968456300907,None,361.15711920342,None,None,361.15711920342,None,,5,001,2021_Nov_04_1529,searchDisc4,2021.2.3,60.01858343906866,
images/exp1a_trial_49_colour1_distractors9_l.png,l,f,1a,49,1,9,,,,,0,208,208,94,,,,,,,,,,,,,,,,,,,,,,,,,,,,,,,,,,,,,,,,,,,,,,,,,,,,,,,,,,,,,,,,,,,,,,,,,,,,361.15680303401314,None,space,0.22785826100152917,361.15680303401314,None,361.4594334110152,None,f,1,0.8693925550032873,361.4594334110152,None,362.3573801884224,None,None,362.3573801884224,None,,5,001,2021_Nov_04_1529,searchDisc4,2021.2.3,60.01858343906866,
images/exp2c_trial_93_colour3_distractors31_l.png,l,f,2c,93,3,31,,,,,0,209,209,906,,,,,,,,,,,,,,,,,,,,,,,,,,,,,,,,,,,,,,,,,,,,,,,,,,,,,,,,,,,,,,,,,,,,,,,,,,,,362.35671086100047,None,space,0.24409009600640275,362.35671086100047,None,362.67411718302174,None,f,1,0.8227763519971631,362.67411718302174,None,363.524067436406,None,None,363.524067436406,None,,5,001,2021_Nov_04_1529,searchDisc4,2021.2.3,60.01858343906866,
images/exp1b_trial_119_colour2_distractors19_l.png,l,f,1b,119,2,19,,,,,0,210,210,356,,,,,,,,,,,,,,,,,,,,,,,,,,,,,,,,,,,,,,,,,,,,,,,,,,,,,,,,,,,,,,,,,,,,,,,,,,,,363.52381864900235,None,space,0.293020709999837,363.52381864900235,None,363.89305668501765,None,f,1,0.9958679440023843,363.89305668501765,None,364.9068550374097,None,None,364.9068550374097,None,,5,001,2021_Nov_04_1529,searchDisc4,2021.2.3,60.01858343906866,
images/exp2b_trial_187_colour3_distractors9_l.png,l,f,2b,187,3,9,,,,,0,211,211,808,,,,,,,,,,,,,,,,,,,,,,,,,,,,,,,,,,,,,,,,,,,,,,,,,,,,,,,,,,,,,,,,,,,,,,,,,,,,364.9065686990216,None,space,0.24633128597633913,364.9065686990216,None,365.2261990219995,None,f,1,0.7188307600154076,365.2261990219995,None,365.97361012842447,None,None,365.97361012842447,None,,5,001,2021_Nov_04_1529,searchDisc4,2021.2.3,60.01858343906866,
images/exp2c_trial_4_colour1_distractors31_r.png,r,j,2c,4,1,31,,,,,0,212,212,817,,,,,,,,,,,,,,,,,,,,,,,,,,,,,,,,,,,,,,,,,,,,,,,,,,,,,,,,,,,,,,,,,,,,,,,,,,,,365.97336221000296,None,space,0.227605954016326,365.97336221000296,None,366.27428871701704,None,j,1,0.8228018730005715,366.27428871701704,None,367.1242041734251,None,None,367.1242041734251,None,,5,001,2021_Nov_04_1529,searchDisc4,2021.2.3,60.01858343906866,
images/exp1b_trial_18_colour1_distractors19_l.png,l,f,1b,18,1,19,,,,,0,213,213,255,,,,,,,,,,,,,,,,,,,,,,,,,,,,,,,,,,,,,,,,,,,,,,,,,,,,,,,,,,,,,,,,,,,,,,,,,,,,367.1238704060088,None,space,0.2291313210153021,367.1238704060088,None,367.4261776560161,None,f,1,0.8949448590283282,367.4261776560161,None,368.3404811214161,None,None,368.3404811214161,None,,5,001,2021_Nov_04_1529,searchDisc4,2021.2.3,60.01858343906866,
images/exp2a_trial_175_colour1_distractors1_l.png,l,f,2a,175,1,1,,,,,0,214,214,604,,,,,,,,,,,,,,,,,,,,,,,,,,,,,,,,,,,,,,,,,,,,,,,,,,,,,,,,,,,,,,,,,,,,,,,,,,,,368.3408255120157,None,space,0.21223082099459134,368.3408255120157,None,368.62622795501375,None,f,1,0.7749567870050669,368.62622795501375,None,369.42370102741114,None,None,369.42370102741114,None,,5,001,2021_Nov_04_1529,searchDisc4,2021.2.3,60.01858343906866,
images/exp1a_trial_18_colour1_distractors19_l.png,l,f,1a,18,1,19,,,,,0,215,215,63,,,,,,,,,,,,,,,,,,,,,,,,,,,,,,,,,,,,,,,,,,,,,,,,,,,,,,,,,,,,,,,,,,,,,,,,,,,,369.4234449650103,None,space,0.22569238900905475,369.4234449650103,None,369.7262311580125,None,f,1,0.7790309599949978,369.7262311580125,None,370.5232382854185,None,None,370.5232382854185,None,,5,001,2021_Nov_04_1529,searchDisc4,2021.2.3,60.01858343906866,
