ImageFile,targ_side,correctAnswer,colour,distNo,targetType,trials_2.thisRepN,trials_2.thisTrialN,trials_2.thisN,trials_2.thisIndex,trials.thisRepN,trials.thisTrialN,trials.thisN,trials.thisIndex,text_6.started,text_6.stopped,buttonBox.keys,buttonBox.rt,buttonBox.started,buttonBox.stopped,text_7.started,text_7.stopped,buttonBox_3.keys,buttonBox_3.rt,buttonBox_3.started,buttonBox_3.stopped,text_8.started,text_8.stopped,buttonBox_4.keys,buttonBox_4.rt,buttonBox_4.started,buttonBox_4.stopped,text_9.started,text_9.stopped,buttonBox_5.keys,buttonBox_5.rt,buttonBox_5.started,buttonBox_5.stopped,text_2.started,text_2.stopped,buttonBox_6.keys,buttonBox_6.rt,buttonBox_6.started,buttonBox_6.stopped,text_5.started,text_5.stopped,buttonBox_7.keys,buttonBox_7.rt,image_2.started,image_2.stopped,image_3.started,image_3.stopped,buttonBox_8.keys,buttonBox_8.rt,buttonBox_8.started,buttonBox_8.stopped,polygon.started,polygon.stopped,buttonBox_9.keys,buttonBox_9.rt,buttonBox_9.started,buttonBox_9.stopped,image.started,image.stopped,buttonBox_10.keys,buttonBox_10.corr,buttonBox_10.rt,buttonBox_10.started,buttonBox_10.stopped,text_4.started,text_4.stopped,text.started,text.stopped,buttonBox_11.keys,buttonBox_11.rt,buttonBox_11.started,buttonBox_11.stopped,targetTypeInstruction.started,targetTypeInstruction.stopped,buttonBox_2.keys,buttonBox_2.rt,buttonBox_2.started,buttonBox_2.stopped,dispStimuli.started,dispStimuli.stopped,buttonBox_12.keys,buttonBox_12.corr,buttonBox_12.rt,buttonBox_12.started,buttonBox_12.stopped,breakMessage.started,breakMessage.stopped,buttonBox_13.keys,buttonBox_13.started,buttonBox_13.stopped,buttonBox_13.rt,participant,session,date,expName,psychopyVersion,frameRate,
,,,,,,,,,,,,,,38.339122150995536,None,2,48.10780808699201,38.339122150995536,None,,,,,,,,,,,,,,,,,,,,,,,,,,,,,,,,,,,,,,,,,,,,,,,,,,,,,,,,,,,,,,,,,,,,,,,,,,,,,04,001,2023_Jan_18_1147,searchDisc5,2021.2.3,59.99479364848192,
,,,,,,,,,,,,,,,,,,,,86.43836637499044,None,2,32.751062227995135,86.43836637499044,None,,,,,,,,,,,,,,,,,,,,,,,,,,,,,,,,,,,,,,,,,,,,,,,,,,,,,,,,,,,,,,,,,,,,,,,04,001,2023_Jan_18_1147,searchDisc5,2021.2.3,59.99479364848192,
,,,,,,,,,,,,,,,,,,,,,,,,,,119.18863809399772,None,2,3.880736945022363,119.18863809399772,None,,,,,,,,,,,,,,,,,,,,,,,,,,,,,,,,,,,,,,,,,,,,,,,,,,,,,,,,,,,,,,,,,04,001,2023_Jan_18_1147,searchDisc5,2021.2.3,59.99479364848192,
,,,,,,,,,,,,,,,,,,,,,,,,,,,,,,,,123.07272909997846,None,2,8.795944284007419,123.07272909997846,None,,,,,,,,,,,,,,,,,,,,,,,,,,,,,,,,,,,,,,,,,,,,,,,,,,,,,,,,,,,04,001,2023_Jan_18_1147,searchDisc5,2021.2.3,59.99479364848192,
,,,,,,,,,,,,,,,,,,,,,,,,,,,,,,,,,,,,,,131.87280885499786,None,2,5.74803558998974,132.85813002698706,None,,,,,,,,,,,,,,,,,,,,,,,,,,,,,,,,,,,,,,,,,,,,,,,,,,,,,04,001,2023_Jan_18_1147,searchDisc5,2021.2.3,59.99479364848192,
,,,,,,,,,,,,,,,,,,,,,,,,,,,,,,,,,,,,,,,,,,,,138.6063941779721,None,2,12.064976371999364,,,,,,,,,,,,,,,,,,,,,,,,,,,,,,,,,,,,,,,,,,,,,,,,,04,001,2023_Jan_18_1147,searchDisc5,2021.2.3,59.99479364848192,
,,,,,,,,,,,,,,,,,,,,,,,,,,,,,,,,,,,,,,,,,,,,,,,,153.67338661800022,None,153.67338661800022,None,2,6.017614504991798,153.67338661800022,None,,,,,,,,,,,,,,,,,,,,,,,,,,,,,,,,,,,,,,,,,04,001,2023_Jan_18_1147,searchDisc5,2021.2.3,59.99479364848192,
Practice arrays/exp1a_trial_30_colour0_distractors0_r.png,r,3,,,,0,0,0,14,,,,,,,,,,,,,,,,,,,,,,,,,,,,,,,,,,,,,,,,,,,,,,,159.72358864897978,None,2,1.3657053670031019,159.72358864897978,None,161.1398325089831,None,3,1,0.6750362169987056,161.1398325089831,None,161.8069840009848,None,,,,,,,,,,,,,,,,,,,,,,,,,,04,001,2023_Jan_18_1147,searchDisc5,2021.2.3,59.99479364848192,
Practice arrays/exp1a_trial_1_colour1_distractors4_r.png,r,3,,,,0,1,1,1,,,,,,,,,,,,,,,,,,,,,,,,,,,,,,,,,,,,,,,,,,,,,,,163.8091632409778,None,2,0.4133144240186084,163.8091632409778,None,164.27385010497528,None,3,1,1.4237634759920184,164.27385010497528,None,165.69018877399503,None,,,,,,,,,,,,,,,,,,,,,,,,,,04,001,2023_Jan_18_1147,searchDisc5,2021.2.3,59.99479364848192,
Practice arrays/exp1a_trial_10_colour3_distractors1_r.png,r,3,,,,0,2,2,4,,,,,,,,,,,,,,,,,,,,,,,,,,,,,,,,,,,,,,,,,,,,,,,167.69245679397136,None,2,0.715910007013008,167.69245679397136,None,168.459388208983,None,3,1,1.1837721189949661,168.459388208983,None,169.6405630329973,None,,,,,,,,,,,,,,,,,,,,,,,,,,04,001,2023_Jan_18_1147,searchDisc5,2021.2.3,59.99479364848192,
Practice arrays/exp1a_trial_27_colour3_distractors9_l.png,l,1,,,,0,3,3,12,,,,,,,,,,,,,,,,,,,,,,,,,,,,,,,,,,,,,,,,,,,,,,,171.64281348898658,None,2,0.24720650698873214,171.64281348898658,None,171.940576028981,None,1,1,1.0541783809894696,171.940576028981,None,172.99057713299408,None,,,,,,,,,,,,,,,,,,,,,,,,,,04,001,2023_Jan_18_1147,searchDisc5,2021.2.3,59.99479364848192,
Practice arrays/exp1a_trial_8_colour2_distractors19_r.png,r,3,,,,0,4,4,3,,,,,,,,,,,,,,,,,,,,,,,,,,,,,,,,,,,,,,,,,,,,,,,174.9923605779768,None,2,0.4992456799955107,174.9923605779768,None,175.5429680669913,None,3,1,0.7150909450137988,175.5429680669913,None,176.259428379999,None,,,,,,,,,,,,,,,,,,,,,,,,,,04,001,2023_Jan_18_1147,searchDisc5,2021.2.3,59.99479364848192,
Practice arrays/exp1a_trial_7_colour2_distractors9_r.png,r,3,,,,0,5,5,2,,,,,,,,,,,,,,,,,,,,,,,,,,,,,,,,,,,,,,,,,,,,,,,178.2592540519836,None,2,0.6801124229968991,178.2592540519836,None,178.9924647269945,None,3,1,0.7391005519893952,178.9924647269945,None,179.72367146098986,None,,,,,,,,,,,,,,,,,,,,,,,,,,04,001,2023_Jan_18_1147,searchDisc5,2021.2.3,59.99479364848192,
Practice arrays/exp1a_trial_17_colour1_distractors9_l.png,l,1,,,,0,6,6,7,,,,,,,,,,,,,,,,,,,,,,,,,,,,,,,,,,,,,,,,,,,,,,,181.72612427198328,None,2,0.8968305040034465,181.72612427198328,None,182.67674874997465,None,1,1,1.1381069929921068,182.67674874997465,None,183.80741865799064,None,,,,,,,,,,,,,,,,,,,,,,,,,,04,001,2023_Jan_18_1147,searchDisc5,2021.2.3,59.99479364848192,
Practice arrays/exp1a_trial_12_colour3_distractors9_r.png,r,3,,,,0,7,7,5,,,,,,,,,,,,,,,,,,,,,,,,,,,,,,,,,,,,,,,,,,,,,,,185.8094322119723,None,2,0.8306570129934698,185.8094322119723,None,186.6905182209739,None,3,1,0.6371428499987815,186.6905182209739,None,187.32420678899507,None,,,,,,,,,,,,,,,,,,,,,,,,,,04,001,2023_Jan_18_1147,searchDisc5,2021.2.3,59.99479364848192,
Practice arrays/exp1a_trial_25_colour3_distractors1_l.png,l,1,,,,0,8,8,11,,,,,,,,,,,,,,,,,,,,,,,,,,,,,,,,,,,,,,,,,,,,,,,189.32621426298283,None,2,0.8136971140047535,189.32621426298283,None,190.19118175198673,None,1,1,0.9229741340095643,190.19118175198673,None,191.10787474599783,None,,,,,,,,,,,,,,,,,,,,,,,,,,04,001,2023_Jan_18_1147,searchDisc5,2021.2.3,59.99479364848192,
Practice arrays/exp1a_trial_14_colour3_distractors31_r.png,r,3,,,,0,9,9,6,,,,,,,,,,,,,,,,,,,,,,,,,,,,,,,,,,,,,,,,,,,,,,,193.1095109389862,None,2,0.6463882650132291,193.1095109389862,None,193.81026291497983,None,3,1,0.732279310002923,193.81026291497983,None,194.54074779499206,None,,,,,,,,,,,,,,,,,,,,,,,,,,04,001,2023_Jan_18_1147,searchDisc5,2021.2.3,59.99479364848192,
Practice arrays/exp1a_trial_23_colour2_distractors19_l.png,l,1,,,,0,10,10,10,,,,,,,,,,,,,,,,,,,,,,,,,,,,,,,,,,,,,,,,,,,,,,,196.54330856798333,None,2,0.8639880580012687,196.54330856798333,None,197.45803618998616,None,1,1,0.767709507024847,197.45803618998616,None,198.22468832298182,None,,,,,,,,,,,,,,,,,,,,,,,,,,04,001,2023_Jan_18_1147,searchDisc5,2021.2.3,59.99479364848192,
Practice arrays/exp1a_trial_31_colour0_distractors0_l.png,l,1,,,,0,11,11,15,,,,,,,,,,,,,,,,,,,,,,,,,,,,,,,,,,,,,,,,,,,,,,,200.22625379197416,None,2,0.732604688993888,200.22625379197416,None,201.00968928899965,None,1,1,0.6202125690178946,201.00968928899965,None,201.6248079109937,None,,,,,,,,,,,,,,,,,,,,,,,,,,04,001,2023_Jan_18_1147,searchDisc5,2021.2.3,59.99479364848192,
Practice arrays/exp1a_trial_0_colour1_distractors1_r.png,r,3,,,,0,12,12,0,,,,,,,,,,,,,,,,,,,,,,,,,,,,,,,,,,,,,,,,,,,,,,,203.62651412497507,None,2,0.5303964050253853,203.62651412497507,None,204.20865026398678,None,3,1,0.5714252140023746,204.20865026398678,None,204.77489395198063,None,,,,,,,,,,,,,,,,,,,,,,,,,,04,001,2023_Jan_18_1147,searchDisc5,2021.2.3,59.99479364848192,
Practice arrays/exp1a_trial_21_colour2_distractors4_l.png,l,1,,,,0,13,13,9,,,,,,,,,,,,,,,,,,,,,,,,,,,,,,,,,,,,,,,,,,,,,,,206.77687658998184,None,2,0.8658083920017816,206.77687658998184,None,207.69189147697762,None,1,1,0.7532282530155499,207.69189147697762,None,208.44171750999521,None,,,,,,,,,,,,,,,,,,,,,,,,,,04,001,2023_Jan_18_1147,searchDisc5,2021.2.3,59.99479364848192,
Practice arrays/exp1a_trial_16_colour1_distractors4_l.png,l,1,,,,0,14,14,13,,,,,,,,,,,,,,,,,,,,,,,,,,,,,,,,,,,,,,,,,,,,,,,210.4431676589884,None,2,0.899237973993877,210.4431676589884,None,211.3933670949773,None,1,1,0.9694591219886206,211.3933670949773,None,212.35822831798578,None,,,,,,,,,,,,,,,,,,,,,,,,,,04,001,2023_Jan_18_1147,searchDisc5,2021.2.3,59.99479364848192,
Practice arrays/exp1a_trial_18_colour1_distractors19_l.png,l,1,,,,0,15,15,8,,,,,,,,,,,,,,,,,,,,,,,,,,,,,,,,,,,,,,,,,,,,,,,214.35988410998834,None,2,0.5134186189970933,214.35988410998834,None,214.92720801499672,None,3,0,0.7520936399814673,214.92720801499672,None,215.6744511249999,None,,,,,,,,,,,,,,,,,,,,,,,,,,04,001,2023_Jan_18_1147,searchDisc5,2021.2.3,59.99479364848192,
,,,,,,,,,,,,,,,,,,,,,,,,,,,,,,,,,,,,,,,,,,,,,,,,,,,,,,,,,,,,,,,,,,,,,,,217.76044377099606,None,2,6.315210336004384,218.72733786999015,None,,,,,,,,,,,,,,,,,,,,04,001,2023_Jan_18_1147,searchDisc5,2021.2.3,59.99479364848192,
images/exp2a_trial_240_colour1_distractors4_l.png,l,1,1,4,0,,,,,0,0,0,0,,,,,,,,,,,,,,,,,,,,,,,,,,,,,,,,,,,,,,,,,,,232.70874061697396,None,2,1.895851361012319,232.70874061697396,None,,,,,,,,,,,,,,,,225.64410885397228,None,2,5.083705713012023,227.62495236998075,None,234.66582721599843,None,1,1,0.5825251819915138,234.66582721599843,None,235.2592344507866,None,None,None,None,,04,001,2023_Jan_18_1147,searchDisc5,2021.2.3,59.99479364848192,
images/exp2c_trial_102_colour2_distractors4_r.png,r,3,2,4,0,,,,,0,1,1,1,,,,,,,,,,,,,,,,,,,,,,,,,,,,,,,,,,,,,,,,,,,235.27751194898156,None,2,1.1050216389994603,235.27751194898156,None,,,,,,,,,,,,,,,,None,None,None,,None,None,236.42762439299258,None,3,1,0.5564872320101131,236.42762439299258,None,236.97598698739603,None,None,None,None,,04,001,2023_Jan_18_1147,searchDisc5,2021.2.3,59.99479364848192,
images/exp2a_trial_177_colour1_distractors9_l.png,l,1,1,9,0,,,,,0,2,2,2,,,,,,,,,,,,,,,,,,,,,,,,,,,,,,,,,,,,,,,,,,,236.99241132999305,None,2,1.0166531519789714,236.99241132999305,None,,,,,,,,,,,,,,,,None,None,None,,None,None,238.05952873898786,None,1,1,0.5042449939937796,238.05952873898786,None,238.55854965937033,None,None,None,None,,04,001,2023_Jan_18_1147,searchDisc5,2021.2.3,59.99479364848192,
images/exp1a_trial_272_colour1_distractors4_l.png,l,1,1,4,0,,,,,0,3,3,3,,,,,,,,,,,,,,,,,,,,,,,,,,,,,,,,,,,,,,,,,,,238.57551990897628,None,2,1.0067361910187174,238.57551990897628,None,,,,,,,,,,,,,,,,None,None,None,,None,None,239.6253900869924,None,1,1,0.7859964469971601,239.6253900869924,None,240.40923535938782,None,None,None,None,,04,001,2023_Jan_18_1147,searchDisc5,2021.2.3,59.99479364848192,
images/exp1a_trial_46_colour3_distractors31_r.png,r,3,3,31,0,,,,,0,4,4,4,,,,,,,,,,,,,,,,,,,,,,,,,,,,,,,,,,,,,,,,,,,240.4272963819967,None,2,1.0035402050125413,240.4272963819967,None,,,,,,,,,,,,,,,,None,None,None,,None,None,241.47598117598682,None,3,1,0.6468331709911581,241.47598117598682,None,242.125970924375,None,None,None,None,,04,001,2023_Jan_18_1147,searchDisc5,2021.2.3,59.99479364848192,
images/exp2b_trial_161_colour1_distractors4_r.png,r,3,1,4,0,,,,,0,5,5,5,,,,,,,,,,,,,,,,,,,,,,,,,,,,,,,,,,,,,,,,,,,242.1421574879787,None,2,0.9546166949730832,242.1421574879787,None,,,,,,,,,,,,,,,,None,None,None,,None,None,243.14195751099032,None,3,1,0.6718330149888061,243.14195751099032,None,243.80949900839187,None,None,None,None,,04,001,2023_Jan_18_1147,searchDisc5,2021.2.3,59.99479364848192,
images/exp2a_trial_305_colour1_distractors9_l.png,l,1,1,9,0,,,,,0,6,6,6,,,,,,,,,,,,,,,,,,,,,,,,,,,,,,,,,,,,,,,,,,,243.82559413698618,None,2,0.8583054960181471,243.82559413698618,None,,,,,,,,,,,,,,,,None,None,None,,None,None,244.72747899597744,None,1,1,0.5840586590056773,244.72747899597744,None,245.30941247138253,None,None,None,None,,04,001,2023_Jan_18_1147,searchDisc5,2021.2.3,59.99479364848192,
images/exp1a_trial_78_colour3_distractors31_r.png,r,3,3,31,0,,,,,0,7,7,7,,,,,,,,,,,,,,,,,,,,,,,,,,,,,,,,,,,,,,,,,,,245.3257877729775,None,2,0.8378372010192834,245.3257877729775,None,,,,,,,,,,,,,,,,None,None,None,,None,None,246.20930217398563,None,3,1,0.6830605749855749,246.20930217398563,None,246.89265989237174,None,None,None,None,,04,001,2023_Jan_18_1147,searchDisc5,2021.2.3,59.99479364848192,
images/exp2c_trial_193_colour1_distractors4_r.png,r,3,1,4,0,,,,,0,8,8,8,,,,,,,,,,,,,,,,,,,,,,,,,,,,,,,,,,,,,,,,,,,246.911133349,None,2,0.7546196859912015,246.911133349,None,,,,,,,,,,,,,,,,None,None,None,,None,None,247.71150879998459,None,3,1,0.6387177260185126,247.71150879998459,None,248.34280388739717,None,None,None,None,,04,001,2023_Jan_18_1147,searchDisc5,2021.2.3,59.99479364848192,
images/exp2c_trial_160_colour1_distractors1_r.png,r,3,1,1,0,,,,,0,9,9,9,,,,,,,,,,,,,,,,,,,,,,,,,,,,,,,,,,,,,,,,,,,248.3590472099895,None,2,0.7200120720081031,248.3590472099895,None,,,,,,,,,,,,,,,,None,None,None,,None,None,249.1260822849872,None,3,1,0.5894811209873296,249.1260822849872,None,249.70974618037872,None,None,None,None,,04,001,2023_Jan_18_1147,searchDisc5,2021.2.3,59.99479364848192,
images/exp2b_trial_21_colour2_distractors4_l.png,l,1,2,4,0,,,,,0,10,10,10,,,,,,,,,,,,,,,,,,,,,,,,,,,,,,,,,,,,,,,,,,,249.7259191229823,None,2,0.787634567997884,249.7259191229823,None,,,,,,,,,,,,,,,,None,None,None,,None,None,250.5618861229741,None,1,1,0.6382841860176995,250.5618861229741,None,251.19291692237312,None,None,None,None,,04,001,2023_Jan_18_1147,searchDisc5,2021.2.3,59.99479364848192,
images/exp2b_trial_11_colour3_distractors4_r.png,r,3,3,4,0,,,,,0,11,11,11,,,,,,,,,,,,,,,,,,,,,,,,,,,,,,,,,,,,,,,,,,,251.2093200669915,None,2,0.6542900129861664,251.2093200669915,None,,,,,,,,,,,,,,,,None,None,None,,None,None,251.9114945899928,None,3,1,0.6384675709996372,251.9114945899928,None,252.54306668137724,None,None,None,None,,04,001,2023_Jan_18_1147,searchDisc5,2021.2.3,59.99479364848192,
images/exp2c_trial_250_colour3_distractors4_l.png,l,1,3,4,0,,,,,0,12,12,12,,,,,,,,,,,,,,,,,,,,,,,,,,,,,,,,,,,,,,,,,,,252.55909629899543,None,2,0.623107680992689,252.55909629899543,None,,,,,,,,,,,,,,,,None,None,None,,None,None,253.22593337998842,None,1,1,0.7533356670173816,253.22593337998842,None,253.97636075237824,None,None,None,None,,04,001,2023_Jan_18_1147,searchDisc5,2021.2.3,59.99479364848192,
images/exp2c_trial_73_colour2_distractors31_r.png,r,3,2,31,0,,,,,0,13,13,13,,,,,,,,,,,,,,,,,,,,,,,,,,,,,,,,,,,,,,,,,,,253.9922089149768,None,2,0.573019203991862,253.9922089149768,None,,,,,,,,,,,,,,,,None,None,None,,None,None,254.61155673197936,None,3,1,0.6352364750055131,254.61155673197936,None,255.24288473838533,None,None,None,None,,04,001,2023_Jan_18_1147,searchDisc5,2021.2.3,59.99479364848192,
images/exp2a_trial_43_colour3_distractors4_r.png,r,3,3,4,0,,,,,0,14,14,14,,,,,,,,,,,,,,,,,,,,,,,,,,,,,,,,,,,,,,,,,,,255.25951844497467,None,2,0.5884600270073861,255.25951844497467,None,,,,,,,,,,,,,,,,None,None,None,,None,None,255.89494048498455,None,3,1,0.5865182370180264,255.89494048498455,None,256.4762973133911,None,None,None,None,,04,001,2023_Jan_18_1147,searchDisc5,2021.2.3,59.99479364848192,
images/exp2b_trial_271_colour1_distractors1_l.png,l,1,1,1,0,,,,,0,15,15,15,,,,,,,,,,,,,,,,,,,,,,,,,,,,,,,,,,,,,,,,,,,256.4930804479809,None,2,0.6373635320051108,256.4930804479809,None,,,,,,,,,,,,,,,,None,None,None,,None,None,257.176156675996,None,1,1,0.6058550140005536,257.176156675996,None,257.7757716233755,None,None,None,None,,04,001,2023_Jan_18_1147,searchDisc5,2021.2.3,59.99479364848192,
images/exp2a_trial_108_colour3_distractors9_r.png,r,3,3,9,0,,,,,0,16,16,16,,,,,,,,,,,,,,,,,,,,,,,,,,,,,,,,,,,,,,,,,,,257.79262050497346,None,2,0.6385858519934118,257.79262050497346,None,,,,,,,,,,,,,,,,None,None,None,,None,None,258.47589042497566,None,3,1,0.6203162860183511,258.47589042497566,None,259.0930121133715,None,None,None,None,,04,001,2023_Jan_18_1147,searchDisc5,2021.2.3,59.99479364848192,
images/exp2c_trial_317_colour3_distractors31_l.png,l,1,3,31,0,,,,,0,17,17,17,,,,,,,,,,,,,,,,,,,,,,,,,,,,,,,,,,,,,,,,,,,259.10933882999234,None,2,0.5874705740134232,259.10933882999234,None,,,,,,,,,,,,,,,,None,None,None,,None,None,259.7429221489874,None,1,1,0.7535515300114639,259.7429221489874,None,260.4931472673925,None,None,None,None,,04,001,2023_Jan_18_1147,searchDisc5,2021.2.3,59.99479364848192,
images/exp1a_trial_319_colour0_distractors0_l.png,l,1,0,0,0,,,,,0,18,18,18,,,,,,,,,,,,,,,,,,,,,,,,,,,,,,,,,,,,,,,,,,,260.50895754699013,None,2,0.5544640709995292,260.50895754699013,None,,,,,,,,,,,,,,,,None,None,None,,None,None,261.10968054799014,None,1,1,0.6210070989909582,261.10968054799014,None,261.7264619143825,None,None,None,None,,04,001,2023_Jan_18_1147,searchDisc5,2021.2.3,59.99479364848192,
images/exp2b_trial_46_colour3_distractors31_r.png,r,3,3,31,0,,,,,0,19,19,19,,,,,,,,,,,,,,,,,,,,,,,,,,,,,,,,,,,,,,,,,,,261.7428352749848,None,2,0.6064828129892703,261.7428352749848,None,,,,,,,,,,,,,,,,None,None,None,,None,None,262.39454896299867,None,3,1,0.8184728079941124,262.39454896299867,None,263.20991380639316,None,None,None,None,,04,001,2023_Jan_18_1147,searchDisc5,2021.2.3,59.99479364848192,
images/exp1a_trial_188_colour3_distractors19_l.png,l,1,3,19,0,,,,,0,20,20,20,,,,,,,,,,,,,,,,,,,,,,,,,,,,,,,,,,,,,,,,,,,263.22823563497514,None,2,0.5041930350125767,263.22823563497514,None,,,,,,,,,,,,,,,,None,None,None,,None,None,263.77623097097967,None,1,1,0.7524544170009904,263.77623097097967,None,264.5265992493805,None,None,None,None,,04,001,2023_Jan_18_1147,searchDisc5,2021.2.3,59.99479364848192,
images/exp1a_trial_143_colour1_distractors1_l.png,l,1,1,1,0,,,,,0,21,21,21,,,,,,,,,,,,,,,,,,,,,,,,,,,,,,,,,,,,,,,,,,,264.5424701059819,None,2,0.5039138510182966,264.5424701059819,None,,,,,,,,,,,,,,,,None,None,None,,None,None,265.09319631999824,None,1,1,0.89000324299559,265.09319631999824,None,265.9767565413931,None,None,None,None,,04,001,2023_Jan_18_1147,searchDisc5,2021.2.3,59.99479364848192,
images/exp1a_trial_64_colour1_distractors1_r.png,r,3,1,1,0,,,,,0,22,22,22,,,,,,,,,,,,,,,,,,,,,,,,,,,,,,,,,,,,,,,,,,,265.9928723599878,None,2,0.4730816910159774,265.9928723599878,None,,,,,,,,,,,,,,,,None,None,None,,None,None,266.50992229697295,None,3,1,0.555033603013726,266.50992229697295,None,267.0599218313728,None,None,None,None,,04,001,2023_Jan_18_1147,searchDisc5,2021.2.3,59.99479364848192,
images/exp2a_trial_6_colour2_distractors4_r.png,r,3,2,4,0,,,,,0,23,23,23,,,,,,,,,,,,,,,,,,,,,,,,,,,,,,,,,,,,,,,,,,,267.07625860499684,None,2,0.4881557970074937,267.07625860499684,None,,,,,,,,,,,,,,,,None,None,None,,None,None,267.61148457898526,None,3,1,0.6519769250007812,267.61148457898526,None,268.26002395038086,None,None,None,None,,04,001,2023_Jan_18_1147,searchDisc5,2021.2.3,59.99479364848192,
images/exp2c_trial_164_colour1_distractors31_r.png,r,3,1,31,0,,,,,0,24,24,24,,,,,,,,,,,,,,,,,,,,,,,,,,,,,,,,,,,,,,,,,,,268.27576458698604,None,2,0.4383444289851468,268.27576458698604,None,,,,,,,,,,,,,,,,None,None,None,,None,None,268.75954478699714,None,3,1,0.6008629019779619,268.75954478699714,None,269.35992694938614,None,None,None,None,,04,001,2023_Jan_18_1147,searchDisc5,2021.2.3,59.99479364848192,
images/exp2b_trial_218_colour3_distractors4_l.png,l,1,3,4,0,,,,,0,25,25,25,,,,,,,,,,,,,,,,,,,,,,,,,,,,,,,,,,,,,,,,,,,269.37634364998667,None,2,0.47006513201631606,269.37634364998667,None,,,,,,,,,,,,,,,,None,None,None,,None,None,269.8932372519921,None,1,1,0.9029517250019126,269.8932372519921,None,270.793406741388,None,None,None,None,,04,001,2023_Jan_18_1147,searchDisc5,2021.2.3,59.99479364848192,
images/exp2b_trial_99_colour1_distractors19_r.png,r,3,1,19,0,,,,,0,26,26,26,,,,,,,,,,,,,,,,,,,,,,,,,,,,,,,,,,,,,,,,,,,270.8092425529903,None,2,0.6732594439818058,270.8092425529903,None,,,,,,,,,,,,,,,,None,None,None,,None,None,271.5283217849792,None,3,1,1.1347985219908878,271.5283217849792,None,272.66005852837407,None,None,None,None,,04,001,2023_Jan_18_1147,searchDisc5,2021.2.3,59.99479364848192,
images/exp2c_trial_226_colour1_distractors9_r.png,r,3,1,9,0,,,,,0,27,27,27,,,,,,,,,,,,,,,,,,,,,,,,,,,,,,,,,,,,,,,,,,,272.6760478959768,None,2,0.4877621060004458,272.6760478959768,None,,,,,,,,,,,,,,,,None,None,None,,None,None,273.20991745599895,None,3,1,0.6038222950010095,273.20991745599895,None,273.81006510539737,None,None,None,None,,04,001,2023_Jan_18_1147,searchDisc5,2021.2.3,59.99479364848192,
images/exp2a_trial_263_colour2_distractors9_r.png,r,3,2,9,0,,,,,0,28,28,28,,,,,,,,,,,,,,,,,,,,,,,,,,,,,,,,,,,,,,,,,,,273.82843419499113,None,2,0.47091582798748277,273.82843419499113,None,,,,,,,,,,,,,,,,None,None,None,,None,None,274.3454979729722,None,3,1,0.8340486180095468,274.3454979729722,None,275.17682801336923,None,None,None,None,,04,001,2023_Jan_18_1147,searchDisc5,2021.2.3,59.99479364848192,
images/exp2b_trial_234_colour3_distractors1_r.png,r,3,3,1,0,,,,,0,29,29,29,,,,,,,,,,,,,,,,,,,,,,,,,,,,,,,,,,,,,,,,,,,275.19321722499444,None,2,0.4711978650011588,275.19321722499444,None,,,,,,,,,,,,,,,,None,None,None,,None,None,275.71040996699594,None,1,0,0.5059432830021251,275.71040996699594,None,276.2101626883814,None,None,None,None,,04,001,2023_Jan_18_1147,searchDisc5,2021.2.3,59.99479364848192,
images/exp2a_trial_190_colour0_distractors0_r.png,r,3,0,0,0,,,,,0,30,30,30,,,,,,,,,,,,,,,,,,,,,,,,,,,,,,,,,,,,,,,,,,,276.22600580198923,None,2,1.1212559299892746,276.22600580198923,None,,,,,,,,,,,,,,,,None,None,None,,None,None,277.3934992319846,None,3,1,0.5368103689979762,277.3934992319846,None,277.92692705839,None,None,None,None,,04,001,2023_Jan_18_1147,searchDisc5,2021.2.3,59.99479364848192,
images/exp2a_trial_143_colour1_distractors1_l.png,l,1,1,1,0,,,,,0,31,31,31,,,,,,,,,,,,,,,,,,,,,,,,,,,,,,,,,,,,,,,,,,,277.9434268049954,None,2,0.521234227984678,277.9434268049954,None,,,,,,,,,,,,,,,,None,None,None,,None,None,278.5116991819814,None,1,1,0.7042042399989441,278.5116991819814,None,279.20963211038907,None,None,None,None,,04,001,2023_Jan_18_1147,searchDisc5,2021.2.3,59.99479364848192,
images/exp1a_trial_248_colour2_distractors31_l.png,l,1,2,31,0,,,,,0,32,32,32,,,,,,,,,,,,,,,,,,,,,,,,,,,,,,,,,,,,,,,,,,,279.2265633829811,None,2,0.5052906020137016,279.2265633829811,None,,,,,,,,,,,,,,,,None,None,None,,None,None,279.77631084498717,None,1,1,0.8328519650094677,279.77631084498717,None,280.61011143137875,None,None,None,None,,04,001,2023_Jan_18_1147,searchDisc5,2021.2.3,59.99479364848192,
images/exp2c_trial_191_colour0_distractors0_l.png,l,1,0,0,0,,,,,0,33,33,33,,,,,,,,,,,,,,,,,,,,,,,,,,,,,,,,,,,,,,,,,,,280.62609589498607,None,2,0.4547445969947148,280.62609589498607,None,,,,,,,,,,,,,,,,None,None,None,,None,None,281.1292444339779,None,1,1,0.8079995409934781,281.1292444339779,None,281.927002125376,None,None,None,None,,04,001,2023_Jan_18_1147,searchDisc5,2021.2.3,59.99479364848192,
images/exp2b_trial_214_colour2_distractors9_l.png,l,1,2,9,0,,,,,0,34,34,34,,,,,,,,,,,,,,,,,,,,,,,,,,,,,,,,,,,,,,,,,,,281.94324775299174,None,2,0.43797268901835196,281.94324775299174,None,,,,,,,,,,,,,,,,None,None,None,,None,None,282.4286158209725,None,1,1,0.9859530089888722,282.4286158209725,None,283.4102504913899,None,None,None,None,,04,001,2023_Jan_18_1147,searchDisc5,2021.2.3,59.99479364848192,
images/exp2c_trial_147_colour1_distractors31_l.png,l,1,1,31,0,,,,,0,35,35,35,,,,,,,,,,,,,,,,,,,,,,,,,,,,,,,,,,,,,,,,,,,283.4287884909718,None,2,0.43783176099532284,283.4287884909718,None,,,,,,,,,,,,,,,,None,None,None,,None,None,283.90970821498195,None,1,1,0.7696932519902475,283.90970821498195,None,284.67699715738127,None,None,None,None,,04,001,2023_Jan_18_1147,searchDisc5,2021.2.3,59.99479364848192,
images/exp2b_trial_91_colour3_distractors9_l.png,l,1,3,9,0,,,,,0,36,36,36,,,,,,,,,,,,,,,,,,,,,,,,,,,,,,,,,,,,,,,,,,,284.69567893998465,None,2,0.4535325329925399,284.69567893998465,None,,,,,,,,,,,,,,,,None,None,None,,None,None,285.19365873298375,None,1,1,0.7400528780126479,285.19365873298375,None,285.92708476838015,None,None,None,None,,04,001,2023_Jan_18_1147,searchDisc5,2021.2.3,59.99479364848192,
images/exp2b_trial_180_colour2_distractors1_l.png,l,1,2,1,0,,,,,0,37,37,37,,,,,,,,,,,,,,,,,,,,,,,,,,,,,,,,,,,,,,,,,,,285.9432013659971,None,2,0.4027014599996619,285.9432013659971,None,,,,,,,,,,,,,,,,None,None,None,,None,None,286.393261219986,None,1,1,0.7385596889944281,286.393261219986,None,287.1264900473907,None,None,None,None,,04,001,2023_Jan_18_1147,searchDisc5,2021.2.3,59.99479364848192,
images/exp2a_trial_253_colour3_distractors31_l.png,l,1,3,31,0,,,,,0,38,38,38,,,,,,,,,,,,,,,,,,,,,,,,,,,,,,,,,,,,,,,,,,,287.1434360249841,None,2,0.4218165429774672,287.1434360249841,None,,,,,,,,,,,,,,,,None,None,None,,None,None,287.6126164459856,None,1,1,0.686365923989797,287.6126164459856,None,288.2937498383835,None,None,None,None,,04,001,2023_Jan_18_1147,searchDisc5,2021.2.3,59.99479364848192,
images/exp1a_trial_69_colour2_distractors1_r.png,r,3,2,1,0,,,,,0,39,39,39,,,,,,,,,,,,,,,,,,,,,,,,,,,,,,,,,,,,,,,,,,,288.3102157599933,None,2,0.40617198499967344,288.3102157599933,None,,,,,,,,,,,,,,,,None,None,None,,None,None,288.7625393679773,None,3,1,0.6869780499837361,288.7625393679773,None,289.4440019453905,None,None,None,None,,04,001,2023_Jan_18_1147,searchDisc5,2021.2.3,59.99479364848192,
images/exp2a_trial_109_colour3_distractors19_r.png,r,3,3,19,0,,,,,0,40,40,40,,,,,,,,,,,,,,,,,,,,,,,,,,,,,,,,,,,,,,,,,,,289.46190452799783,None,2,0.38991949197952636,289.46190452799783,None,,,,,,,,,,,,,,,,None,None,None,,None,None,289.8953761989833,None,3,1,0.7683918799739331,289.8953761989833,None,290.66045572237635,None,None,None,None,,04,001,2023_Jan_18_1147,searchDisc5,2021.2.3,59.99479364848192,
images/exp2a_trial_131_colour1_distractors19_r.png,r,3,1,19,0,,,,,0,41,41,41,,,,,,,,,,,,,,,,,,,,,,,,,,,,,,,,,,,,,,,,,,,290.6786499309819,None,2,0.3547717869805638,290.6786499309819,None,,,,,,,,,,,,,,,,None,None,None,,None,None,291.07924928798457,None,3,1,0.7034175820008386,291.07924928798457,None,291.7774706713826,None,None,None,None,,04,001,2023_Jan_18_1147,searchDisc5,2021.2.3,59.99479364848192,
images/exp1a_trial_81_colour1_distractors9_l.png,l,1,1,9,0,,,,,0,42,42,42,,,,,,,,,,,,,,,,,,,,,,,,,,,,,,,,,,,,,,,,,,,291.79330270999344,None,2,0.3398182280070614,291.79330270999344,None,,,,,,,,,,,,,,,,None,None,None,,None,None,292.1771916419966,None,1,1,0.9013858860125765,292.1771916419966,None,293.07719151138735,None,None,None,None,,04,001,2023_Jan_18_1147,searchDisc5,2021.2.3,59.99479364848192,
images/exp2b_trial_130_colour1_distractors9_r.png,r,3,1,9,0,,,,,0,43,43,43,,,,,,,,,,,,,,,,,,,,,,,,,,,,,,,,,,,,,,,,,,,293.0933161789726,None,2,0.3543941229872871,293.0933161789726,None,,,,,,,,,,,,,,,,None,None,None,,None,None,293.4937913089816,None,3,1,0.8376569679821841,293.4937913089816,None,294.327247137393,None,None,None,None,,04,001,2023_Jan_18_1147,searchDisc5,2021.2.3,59.99479364848192,
images/exp2a_trial_62_colour0_distractors0_r.png,r,3,0,0,0,,,,,0,44,44,44,,,,,,,,,,,,,,,,,,,,,,,,,,,,,,,,,,,,,,,,,,,294.34332778997486,None,2,0.3544858990062494,294.34332778997486,None,,,,,,,,,,,,,,,,None,None,None,,None,None,294.743915198982,None,3,1,0.7392957440169994,294.743915198982,None,295.47732704239024,None,None,None,None,,04,001,2023_Jan_18_1147,searchDisc5,2021.2.3,59.99479364848192,
images/exp1a_trial_154_colour3_distractors4_l.png,l,1,3,4,0,,,,,0,45,45,45,,,,,,,,,,,,,,,,,,,,,,,,,,,,,,,,,,,,,,,,,,,295.4964069739799,None,2,0.3547084760211874,295.4964069739799,None,,,,,,,,,,,,,,,,None,None,None,,None,None,295.89589101599995,None,1,1,0.7219174229830969,295.89589101599995,None,296.61077839638165,None,None,None,None,,04,001,2023_Jan_18_1147,searchDisc5,2021.2.3,59.99479364848192,
images/exp2a_trial_139_colour3_distractors4_r.png,r,3,3,4,0,,,,,0,46,46,46,,,,,,,,,,,,,,,,,,,,,,,,,,,,,,,,,,,,,,,,,,,296.6266705929884,None,2,0.3728848499886226,296.6266705929884,None,,,,,,,,,,,,,,,,None,None,None,,None,None,297.0439340409939,None,3,1,0.703133257018635,297.0439340409939,None,297.74403590838483,None,None,None,None,,04,001,2023_Jan_18_1147,searchDisc5,2021.2.3,59.99479364848192,
images/exp2b_trial_79_colour1_distractors1_l.png,l,1,1,1,0,,,,,0,47,47,47,,,,,,,,,,,,,,,,,,,,,,,,,,,,,,,,,,,,,,,,,,,297.7607328109734,None,2,0.387708634021692,297.7607328109734,None,,,,,,,,,,,,,,,,None,None,None,,None,None,298.195996075985,None,1,1,0.7231281280110124,298.195996075985,None,298.91091309937474,None,None,None,None,,04,001,2023_Jan_18_1147,searchDisc5,2021.2.3,59.99479364848192,
images/exp2a_trial_114_colour1_distractors19_l.png,l,1,1,19,0,,,,,0,48,48,48,,,,,,,,,,,,,,,,,,,,,,,,,,,,,,,,,,,,,,,,,,,298.9272164309805,None,2,0.4043921670236159,298.9272164309805,None,,,,,,,,,,,,,,,,None,None,None,,None,None,299.37913698499324,None,1,1,0.7030319000186864,299.37913698499324,None,300.07694948739663,None,None,None,None,,04,001,2023_Jan_18_1147,searchDisc5,2021.2.3,59.99479364848192,
images/exp2b_trial_200_colour2_distractors19_r.png,r,3,2,19,0,,,,,0,49,49,49,,,,,,,,,,,,,,,,,,,,,,,,,,,,,,,,,,,,,,,,,,,300.09388662999845,None,2,0.4409566809772514,300.09388662999845,None,,,,,,,,,,,,,,,,None,None,None,,None,None,300.57761549399584,None,3,1,0.6680292089877184,300.57761549399584,None,301.2440422113723,None,None,None,None,,04,001,2023_Jan_18_1147,searchDisc5,2021.2.3,59.99479364848192,
images/exp1a_trial_276_colour2_distractors1_l.png,l,1,2,1,0,,,,,0,50,50,50,,,,,,,,,,,,,,,,,,,,,,,,,,,,,,,,,,,,,,,,,,,301.2622967849893,None,2,0.3540777929883916,301.2622967849893,None,,,,,,,,,,,,,,,,None,None,None,,None,None,301.66222574099083,None,1,1,0.6745655999984592,301.66222574099083,None,302.3276353193942,None,None,None,None,,04,001,2023_Jan_18_1147,searchDisc5,2021.2.3,59.99479364848192,
images/exp2a_trial_311_colour2_distractors19_l.png,l,1,2,19,0,,,,,0,51,51,51,,,,,,,,,,,,,,,,,,,,,,,,,,,,,,,,,,,,,,,,,,,302.3438278969843,None,2,0.370935808023205,302.3438278969843,None,,,,,,,,,,,,,,,,None,None,None,,None,None,302.7668274049938,None,1,1,1.577406044001691,302.7668274049938,None,304.3444158683851,None,None,None,None,,04,001,2023_Jan_18_1147,searchDisc5,2021.2.3,59.99479364848192,
images/exp2b_trial_208_colour1_distractors4_l.png,l,1,1,4,0,,,,,0,52,52,52,,,,,,,,,,,,,,,,,,,,,,,,,,,,,,,,,,,,,,,,,,,304.36077412599116,None,2,0.369244137982605,304.36077412599116,None,,,,,,,,,,,,,,,,None,None,None,,None,None,304.77741718298057,None,1,1,1.0555085040105041,304.77741718298057,None,305.82774175038503,None,None,None,None,,04,001,2023_Jan_18_1147,searchDisc5,2021.2.3,59.99479364848192,
images/exp1a_trial_287_colour0_distractors0_l.png,l,1,0,0,0,,,,,0,53,53,53,,,,,,,,,,,,,,,,,,,,,,,,,,,,,,,,,,,,,,,,,,,305.84383706597146,None,2,0.35472309999749996,305.84383706597146,None,,,,,,,,,,,,,,,,None,None,None,,None,None,306.244516635983,None,1,1,0.7562988889985718,306.244516635983,None,306.99454967038764,None,None,None,None,,04,001,2023_Jan_18_1147,searchDisc5,2021.2.3,59.99479364848192,
images/exp2a_trial_74_colour3_distractors1_r.png,r,3,3,1,0,,,,,0,54,54,54,,,,,,,,,,,,,,,,,,,,,,,,,,,,,,,,,,,,,,,,,,,307.01063565397635,None,2,0.3878442389832344,307.01063565397635,None,,,,,,,,,,,,,,,,None,None,None,,None,None,307.4443404979829,None,3,1,0.705891227000393,307.4443404979829,None,308.1444144553825,None,None,None,None,,04,001,2023_Jan_18_1147,searchDisc5,2021.2.3,59.99479364848192,
images/exp2c_trial_251_colour3_distractors9_l.png,l,1,3,9,0,,,,,0,55,55,55,,,,,,,,,,,,,,,,,,,,,,,,,,,,,,,,,,,,,,,,,,,308.16082879298483,None,2,0.35451019500033,308.16082879298483,None,,,,,,,,,,,,,,,,None,None,None,,None,None,308.5608237790002,None,1,1,0.8212541829852853,308.5608237790002,None,309.37788293238555,None,None,None,None,,04,001,2023_Jan_18_1147,searchDisc5,2021.2.3,59.99479364848192,
images/exp2a_trial_106_colour3_distractors1_r.png,r,3,3,1,0,,,,,0,56,56,56,,,,,,,,,,,,,,,,,,,,,,,,,,,,,,,,,,,,,,,,,,,309.39622452497133,None,2,0.3375153779925313,309.39622452497133,None,,,,,,,,,,,,,,,,None,None,None,,None,None,309.779175018979,None,3,1,0.7057639079866931,309.779175018979,None,310.4779830813786,None,None,None,None,,04,001,2023_Jan_18_1147,searchDisc5,2021.2.3,59.99479364848192,
images/exp1a_trial_275_colour1_distractors31_l.png,l,1,1,31,0,,,,,0,57,57,57,,,,,,,,,,,,,,,,,,,,,,,,,,,,,,,,,,,,,,,,,,,310.49412542098435,None,2,0.32295735701336525,310.49412542098435,None,,,,,,,,,,,,,,,,None,None,None,,None,None,310.8605385949777,None,1,1,0.832000453985529,310.8605385949777,None,311.6944536233932,None,None,None,None,,04,001,2023_Jan_18_1147,searchDisc5,2021.2.3,59.99479364848192,
images/exp1a_trial_166_colour2_distractors4_r.png,r,3,2,4,0,,,,,0,58,58,58,,,,,,,,,,,,,,,,,,,,,,,,,,,,,,,,,,,,,,,,,,,311.7109641029965,None,2,0.35614288298529573,311.7109641029965,None,,,,,,,,,,,,,,,,None,None,None,,None,None,312.1113515239849,None,3,1,0.8370426170004066,312.1113515239849,None,312.94464871838863,None,None,None,None,,04,001,2023_Jan_18_1147,searchDisc5,2021.2.3,59.99479364848192,
images/exp2b_trial_119_colour2_distractors19_l.png,l,1,2,19,0,,,,,0,59,59,59,,,,,,,,,,,,,,,,,,,,,,,,,,,,,,,,,,,,,,,,,,,312.9611997639877,None,2,0.33692841199808754,312.9611997639877,None,,,,,,,,,,,,,,,,None,None,None,,None,None,313.34427921898896,None,1,1,0.7044218069931958,313.34427921898896,None,314.04453956538055,None,None,None,None,,04,001,2023_Jan_18_1147,searchDisc5,2021.2.3,59.99479364848192,
images/exp1a_trial_21_colour2_distractors4_l.png,l,1,2,4,0,,,,,0,60,60,60,,,,,,,,,,,,,,,,,,,,,,,,,,,,,,,,,,,,,,,,,,,314.06081953799,None,2,0.3554826129984576,314.06081953799,None,,,,,,,,,,,,,,,,None,None,None,,None,None,314.4614355049853,None,1,1,0.770688236982096,314.4614355049853,None,315.22808537639503,None,None,None,None,,04,001,2023_Jan_18_1147,searchDisc5,2021.2.3,59.99479364848192,
images/exp2a_trial_94_colour0_distractors0_r.png,r,3,0,0,0,,,,,0,61,61,61,,,,,,,,,,,,,,,,,,,,,,,,,,,,,,,,,,,,,,,,,,,315.2442367259937,None,2,0.3712247249786742,315.2442367259937,None,,,,,,,,,,,,,,,,None,None,None,,None,None,315.6612516939931,None,3,1,0.6554346749908291,315.6612516939931,None,316.3112563183968,None,None,None,None,,04,001,2023_Jan_18_1147,searchDisc5,2021.2.3,59.99479364848192,
images/exp2c_trial_12_colour3_distractors9_r.png,r,3,3,9,0,,,,,0,62,62,62,,,,,,,,,,,,,,,,,,,,,,,,,,,,,,,,,,,,,,,,,,,316.32766531198286,None,2,0.3733211999933701,316.32766531198286,None,,,,,,,,,,,,,,,,None,None,None,,None,None,316.7445040079765,None,3,1,0.6526837669953238,316.7445040079765,None,317.3940091373952,None,None,None,None,,04,001,2023_Jan_18_1147,searchDisc5,2021.2.3,59.99479364848192,
images/exp2b_trial_181_colour2_distractors4_l.png,l,1,2,4,0,,,,,0,63,63,63,,,,,,,,,,,,,,,,,,,,,,,,,,,,,,,,,,,,,,,,,,,317.410456231999,None,2,0.3382035640242975,317.410456231999,None,,,,,,,,,,,,,,,,None,None,None,,None,None,317.794257379981,None,1,1,0.7056600299838465,317.794257379981,None,318.49492019538593,None,None,None,None,,04,001,2023_Jan_18_1147,searchDisc5,2021.2.3,59.99479364848192,
images/exp2a_trial_22_colour2_distractors9_l.png,l,1,2,9,0,,,,,0,64,64,64,,,,,,,,,,,,,,,,,,,,,,,,,,,,,,,,,,,,,,,,,,,318.5110237839981,None,2,0.4042324739857577,318.5110237839981,None,,,,,,,,,,,,,,,,None,None,None,,None,None,318.9633067819814,None,1,1,0.7179555390030146,318.9633067819814,None,319.67809892738296,None,None,None,None,,04,001,2023_Jan_18_1147,searchDisc5,2021.2.3,59.99479364848192,
images/exp1a_trial_253_colour3_distractors31_l.png,l,1,3,31,0,,,,,0,65,65,65,,,,,,,,,,,,,,,,,,,,,,,,,,,,,,,,,,,,,,,,,,,319.6940552779997,None,2,0.3733354239957407,319.6940552779997,None,,,,,,,,,,,,,,,,None,None,None,,None,None,320.11354120098986,None,1,1,0.7814159470144659,320.11354120098986,None,320.8950057953916,None,None,None,None,,04,001,2023_Jan_18_1147,searchDisc5,2021.2.3,59.99479364848192,
images/exp2a_trial_95_colour0_distractors0_l.png,l,1,0,0,0,,,,,0,66,66,66,,,,,,,,,,,,,,,,,,,,,,,,,,,,,,,,,,,,,,,,,,,320.91077740397304,None,2,0.4043921009870246,320.91077740397304,None,,,,,,,,,,,,,,,,None,None,None,,None,None,321.3635517539806,None,1,1,0.7561539040179923,321.3635517539806,None,322.11154025439464,None,None,None,None,,04,001,2023_Jan_18_1147,searchDisc5,2021.2.3,59.99479364848192,
images/exp2b_trial_118_colour2_distractors9_l.png,l,1,2,9,0,,,,,0,67,67,67,,,,,,,,,,,,,,,,,,,,,,,,,,,,,,,,,,,,,,,,,,,322.12793980297283,None,2,0.38972498301882297,322.12793980297283,None,,,,,,,,,,,,,,,,None,None,None,,None,None,322.56330606198753,None,1,1,0.6876216680102516,322.56330606198753,None,323.24485610339616,None,None,None,None,,04,001,2023_Jan_18_1147,searchDisc5,2021.2.3,59.99479364848192,
images/exp2c_trial_202_colour3_distractors1_r.png,r,3,3,1,0,,,,,0,68,68,68,,,,,,,,,,,,,,,,,,,,,,,,,,,,,,,,,,,,,,,,,,,323.26126635298715,None,2,0.4047255909827072,323.26126635298715,None,,,,,,,,,,,,,,,,None,None,None,,None,None,323.7134356859897,None,3,1,0.6536307829956058,323.7134356859897,None,324.36112478938594,None,None,None,None,,04,001,2023_Jan_18_1147,searchDisc5,2021.2.3,59.99479364848192,
images/exp1a_trial_243_colour1_distractors31_l.png,l,1,1,31,0,,,,,0,69,69,69,,,,,,,,,,,,,,,,,,,,,,,,,,,,,,,,,,,,,,,,,,,324.3778924229846,None,2,0.3565746409876738,324.3778924229846,None,,,,,,,,,,,,,,,,None,None,None,,None,None,324.77784963999875,None,1,1,0.6807309319847263,324.77784963999875,None,325.46081134337874,None,None,None,None,,04,001,2023_Jan_18_1147,searchDisc5,2021.2.3,59.99479364848192,
images/exp2b_trial_191_colour0_distractors0_l.png,l,1,0,0,0,,,,,0,70,70,70,,,,,,,,,,,,,,,,,,,,,,,,,,,,,,,,,,,,,,,,,,,325.4777048419928,None,2,0.38889549401937984,325.4777048419928,None,,,,,,,,,,,,,,,,None,None,None,,None,None,325.91334358998574,None,1,1,0.706508435017895,325.91334358998574,None,326.6117853353935,None,None,None,None,,04,001,2023_Jan_18_1147,searchDisc5,2021.2.3,59.99479364848192,
images/exp2b_trial_42_colour3_distractors1_r.png,r,3,3,1,0,,,,,0,71,71,71,,,,,,,,,,,,,,,,,,,,,,,,,,,,,,,,,,,,,,,,,,,326.62788803697913,None,2,0.3555896719917655,326.62788803697913,None,,,,,,,,,,,,,,,,None,None,None,,None,None,327.0278545379988,None,3,1,0.687918126990553,327.0278545379988,None,327.711717819373,None,None,None,None,,04,001,2023_Jan_18_1147,searchDisc5,2021.2.3,59.99479364848192,
images/exp2c_trial_6_colour2_distractors4_r.png,r,3,2,4,0,,,,,0,72,72,72,,,,,,,,,,,,,,,,,,,,,,,,,,,,,,,,,,,,,,,,,,,327.7298103819776,None,2,0.3212916679913178,327.7298103819776,None,,,,,,,,,,,,,,,,None,None,None,,None,None,328.0952835729986,None,3,1,0.6883754110021982,328.0952835729986,None,328.7783224683808,None,None,None,None,,04,001,2023_Jan_18_1147,searchDisc5,2021.2.3,59.99479364848192,
images/exp2c_trial_235_colour3_distractors4_r.png,r,3,3,4,0,,,,,0,73,73,73,,,,,,,,,,,,,,,,,,,,,,,,,,,,,,,,,,,,,,,,,,,328.7941664909886,None,2,0.3378297929884866,328.7941664909886,None,,,,,,,,,,,,,,,,None,None,None,,None,None,329.17824900799314,None,3,1,0.671818357979646,329.17824900799314,None,329.8451223073789,None,None,None,None,,04,001,2023_Jan_18_1147,searchDisc5,2021.2.3,59.99479364848192,
images/exp2a_trial_200_colour2_distractors19_r.png,r,3,2,19,0,,,,,0,74,74,74,,,,,,,,,,,,,,,,,,,,,,,,,,,,,,,,,,,,,,,,,,,329.8614383559907,None,2,0.37320157201611437,329.8614383559907,None,,,,,,,,,,,,,,,,None,None,None,,None,None,330.27803251097794,None,3,1,0.6452043669996783,330.27803251097794,None,330.92838349837984,None,None,None,None,,04,001,2023_Jan_18_1147,searchDisc5,2021.2.3,59.99479364848192,
images/exp2a_trial_208_colour1_distractors4_l.png,l,1,1,4,0,,,,,0,75,75,75,,,,,,,,,,,,,,,,,,,,,,,,,,,,,,,,,,,,,,,,,,,330.9447735029971,None,2,0.3707690800074488,330.9447735029971,None,,,,,,,,,,,,,,,,None,None,None,,None,None,331.36091608798597,None,1,1,0.7059069429815281,331.36091608798597,None,332.06174698138784,None,None,None,None,,04,001,2023_Jan_18_1147,searchDisc5,2021.2.3,59.99479364848192,
images/exp2b_trial_211_colour1_distractors31_l.png,l,1,1,31,0,,,,,0,76,76,76,,,,,,,,,,,,,,,,,,,,,,,,,,,,,,,,,,,,,,,,,,,332.08026519598207,None,2,0.37321953699574806,332.08026519598207,None,,,,,,,,,,,,,,,,None,None,None,,None,None,332.4971189359785,None,1,1,0.7002957990043797,332.4971189359785,None,333.19526641738776,None,None,None,None,,04,001,2023_Jan_18_1147,searchDisc5,2021.2.3,59.99479364848192,
images/exp2c_trial_63_colour0_distractors0_l.png,l,1,0,0,0,,,,,0,77,77,77,,,,,,,,,,,,,,,,,,,,,,,,,,,,,,,,,,,,,,,,,,,333.2131730779947,None,2,0.37125069499597885,333.2131730779947,None,,,,,,,,,,,,,,,,None,None,None,,None,None,333.63049082498765,None,1,1,0.7060141310212202,333.63049082498765,None,334.3283045303979,None,None,None,None,,04,001,2023_Jan_18_1147,searchDisc5,2021.2.3,59.99479364848192,
images/exp2c_trial_154_colour3_distractors4_l.png,l,1,3,4,0,,,,,0,78,78,78,,,,,,,,,,,,,,,,,,,,,,,,,,,,,,,,,,,,,,,,,,,334.3449759169889,None,2,0.37156647100346163,334.3449759169889,None,,,,,,,,,,,,,,,,None,None,None,,None,None,334.7617268769827,None,1,1,0.6886926879815292,334.7617268769827,None,335.44508940038213,None,None,None,None,,04,001,2023_Jan_18_1147,searchDisc5,2021.2.3,59.99479364848192,
images/exp2b_trial_149_colour2_distractors4_l.png,l,1,2,4,0,,,,,0,79,79,79,,,,,,,,,,,,,,,,,,,,,,,,,,,,,,,,,,,,,,,,,,,335.46140211698366,None,2,0.40443035002681427,335.46140211698366,None,,,,,,,,,,,,,,,,None,None,None,,None,None,335.91396828799043,None,1,1,0.6722189360007178,335.91396828799043,None,336.57863181737775,None,None,None,None,,04,001,2023_Jan_18_1147,searchDisc5,2021.2.3,59.99479364848192,
images/exp2c_trial_101_colour2_distractors1_r.png,r,3,2,1,0,,,,,0,80,80,80,,,,,,,,,,,,,,,,,,,,,,,,,,,,,,,,,,,,,,,,,,,336.5950624559773,None,2,0.37108770001214,336.5950624559773,None,,,,,,,,,,,,,,,,None,None,None,,None,None,337.01359755097656,None,3,1,0.6720925609988626,337.01359755097656,None,337.6784669393819,None,None,None,None,,04,001,2023_Jan_18_1147,searchDisc5,2021.2.3,59.99479364848192,
images/exp2b_trial_226_colour1_distractors9_r.png,r,3,1,9,0,,,,,0,81,81,81,,,,,,,,,,,,,,,,,,,,,,,,,,,,,,,,,,,,,,,,,,,337.6945686649997,None,2,0.33816687398939393,337.6945686649997,None,,,,,,,,,,,,,,,,None,None,None,,None,None,338.0785762129817,None,3,1,0.687503054010449,338.0785762129817,None,338.76199697739503,None,None,None,None,,04,001,2023_Jan_18_1147,searchDisc5,2021.2.3,59.99479364848192,
images/exp2c_trial_291_colour1_distractors19_r.png,r,3,1,19,0,,,,,0,82,82,82,,,,,,,,,,,,,,,,,,,,,,,,,,,,,,,,,,,,,,,,,,,338.7778285649838,None,2,0.3564501619839575,338.7778285649838,None,,,,,,,,,,,,,,,,None,None,None,,None,None,339.1785812409944,None,3,1,0.7346387070138007,339.1785812409944,None,339.91184270339727,None,None,None,None,,04,001,2023_Jan_18_1147,searchDisc5,2021.2.3,59.99479364848192,
images/exp2a_trial_5_colour2_distractors1_r.png,r,3,2,1,0,,,,,0,83,83,83,,,,,,,,,,,,,,,,,,,,,,,,,,,,,,,,,,,,,,,,,,,339.92828554997686,None,2,0.3213315749890171,339.92828554997686,None,,,,,,,,,,,,,,,,None,None,None,,None,None,340.29515963298036,None,3,1,0.7222134040202945,340.29515963298036,None,341.01205701839353,None,None,None,None,,04,001,2023_Jan_18_1147,searchDisc5,2021.2.3,59.99479364848192,
images/exp2b_trial_128_colour1_distractors1_r.png,r,3,1,1,0,,,,,0,84,84,84,,,,,,,,,,,,,,,,,,,,,,,,,,,,,,,,,,,,,,,,,,,341.02792244398734,None,2,0.3212401119817514,341.02792244398734,None,,,,,,,,,,,,,,,,None,None,None,,None,None,341.39460484997835,None,3,1,0.7225585880223662,341.39460484997835,None,342.11213091337413,None,None,None,None,,04,001,2023_Jan_18_1147,searchDisc5,2021.2.3,59.99479364848192,
images/exp2c_trial_294_colour2_distractors4_r.png,r,3,2,4,0,,,,,0,85,85,85,,,,,,,,,,,,,,,,,,,,,,,,,,,,,,,,,,,,,,,,,,,342.12843211897416,None,2,0.37120266901911236,342.12843211897416,None,,,,,,,,,,,,,,,,None,None,None,,None,None,342.5452400619979,None,3,1,0.7549408199847676,342.5452400619979,None,343.2952818633785,None,None,None,None,,04,001,2023_Jan_18_1147,searchDisc5,2021.2.3,59.99479364848192,
images/exp2b_trial_306_colour1_distractors19_l.png,l,1,1,19,0,,,,,0,86,86,86,,,,,,,,,,,,,,,,,,,,,,,,,,,,,,,,,,,,,,,,,,,343.31199933498283,None,2,0.35900019100517966,343.31199933498283,None,,,,,,,,,,,,,,,,None,None,None,,None,None,343.7118838519964,None,1,1,1.0657396860187873,343.7118838519964,None,344.7782193013845,None,None,None,None,,04,001,2023_Jan_18_1147,searchDisc5,2021.2.3,59.99479364848192,
images/exp1a_trial_100_colour1_distractors31_r.png,r,3,1,31,0,,,,,0,87,87,87,,,,,,,,,,,,,,,,,,,,,,,,,,,,,,,,,,,,,,,,,,,344.7951835009735,None,2,0.33849283898598514,344.7951835009735,None,,,,,,,,,,,,,,,,None,None,None,,None,None,345.17835016699973,None,3,1,1.4329764730064198,345.17835016699973,None,346.61218310637923,None,None,None,None,,04,001,2023_Jan_18_1147,searchDisc5,2021.2.3,59.99479364848192,
images/exp2a_trial_47_colour1_distractors1_l.png,l,1,1,1,0,,,,,0,88,88,88,,,,,,,,,,,,,,,,,,,,,,,,,,,,,,,,,,,,,,,,,,,346.62808423297247,None,2,0.32139813600224443,346.62808423297247,None,,,,,,,,,,,,,,,,None,None,None,,None,None,346.99488675099565,None,1,1,0.8059254550025798,346.99488675099565,None,347.795440916394,None,None,None,None,,04,001,2023_Jan_18_1147,searchDisc5,2021.2.3,59.99479364848192,
images/exp2c_trial_298_colour3_distractors1_r.png,r,3,3,1,0,,,,,0,89,89,89,,,,,,,,,,,,,,,,,,,,,,,,,,,,,,,,,,,,,,,,,,,347.81185174998245,None,2,0.35751910699764267,347.81185174998245,None,,,,,,,,,,,,,,,,None,None,None,,None,None,348.21425411797827,None,3,1,0.7536411459732335,348.21425411797827,None,348.9623115913855,None,None,None,None,,04,001,2023_Jan_18_1147,searchDisc5,2021.2.3,59.99479364848192,
images/exp1a_trial_180_colour2_distractors1_l.png,l,1,2,1,0,,,,,0,90,90,90,,,,,,,,,,,,,,,,,,,,,,,,,,,,,,,,,,,,,,,,,,,348.9783024369972,None,2,0.32115450900164433,348.9783024369972,None,,,,,,,,,,,,,,,,None,None,None,,None,None,349.3455448629975,None,1,1,0.7561137510056142,349.3455448629975,None,350.0957511073939,None,None,None,None,,04,001,2023_Jan_18_1147,searchDisc5,2021.2.3,59.99479364848192,
images/exp2b_trial_94_colour0_distractors0_r.png,r,3,0,0,0,,,,,0,91,91,91,,,,,,,,,,,,,,,,,,,,,,,,,,,,,,,,,,,,,,,,,,,350.11165514498134,None,2,0.32131118600955233,350.11165514498134,None,,,,,,,,,,,,,,,,None,None,None,,None,None,350.47910202798084,None,3,1,0.6728498830052558,350.47910202798084,None,351.14572071238945,None,None,None,None,,04,001,2023_Jan_18_1147,searchDisc5,2021.2.3,59.99479364848192,
images/exp2a_trial_170_colour3_distractors1_r.png,r,3,3,1,0,,,,,0,92,92,92,,,,,,,,,,,,,,,,,,,,,,,,,,,,,,,,,,,,,,,,,,,351.16179395499057,None,2,0.37255992798600346,351.16179395499057,None,,,,,,,,,,,,,,,,None,None,None,,None,None,351.5789832119772,None,3,1,0.6724011799960863,351.5789832119772,None,352.2476078953914,None,None,None,None,,04,001,2023_Jan_18_1147,searchDisc5,2021.2.3,59.99479364848192,
images/exp1a_trial_62_colour0_distractors0_r.png,r,3,0,0,0,,,,,0,93,93,93,,,,,,,,,,,,,,,,,,,,,,,,,,,,,,,,,,,,,,,,,,,352.2639095329796,None,2,0.33576087799156085,352.2639095329796,None,,,,,,,,,,,,,,,,None,None,None,,None,None,352.6476055549865,None,3,1,0.6916718819993548,352.6476055549865,None,353.32898782037955,None,None,None,None,,04,001,2023_Jan_18_1147,searchDisc5,2021.2.3,59.99479364848192,
images/exp2b_trial_173_colour3_distractors19_r.png,r,3,3,19,0,,,,,0,94,94,94,,,,,,,,,,,,,,,,,,,,,,,,,,,,,,,,,,,,,,,,,,,353.34506710397545,None,2,0.3190183669794351,353.34506710397545,None,,,,,,,,,,,,,,,,None,None,None,,None,None,353.71169584299787,None,3,1,0.68645108101191,353.71169584299787,None,354.39502865938994,None,None,None,None,,04,001,2023_Jan_18_1147,searchDisc5,2021.2.3,59.99479364848192,
images/exp2c_trial_86_colour2_distractors9_l.png,l,1,2,9,0,,,,,0,95,95,95,,,,,,,,,,,,,,,,,,,,,,,,,,,,,,,,,,,,,,,,,,,354.4120375789935,None,2,0.3555074509931728,354.4120375789935,None,,,,,,,,,,,,,,,,None,None,None,,None,None,354.8121502729773,None,1,1,0.6876736990234349,354.8121502729773,None,355.4949249133788,None,None,None,None,,04,001,2023_Jan_18_1147,searchDisc5,2021.2.3,59.99479364848192,
images/exp2c_trial_200_colour2_distractors19_r.png,r,3,2,19,0,,,,,0,96,96,96,,,,,,,,,,,,,,,,,,,,,,,,,,,,,,,,,,,,,,,,,,,355.51205022700015,None,2,0.3886671880027279,355.51205022700015,None,,,,,,,,,,,,,,,,None,None,None,,None,None,355.9477984889818,None,3,1,0.6536125729908235,355.9477984889818,None,356.5957653263904,None,None,None,None,,04,001,2023_Jan_18_1147,searchDisc5,2021.2.3,59.99479364848192,
images/exp2c_trial_309_colour2_distractors4_l.png,l,1,2,4,0,,,,,0,97,97,97,,,,,,,,,,,,,,,,,,,,,,,,,,,,,,,,,,,,,,,,,,,356.61198812999646,None,2,0.3554520450124983,356.61198812999646,None,,,,,,,,,,,,,,,,None,None,None,,None,None,357.012349142984,None,1,1,0.6709071329969447,357.012349142984,None,357.67910128137737,None,None,None,None,,04,001,2023_Jan_18_1147,searchDisc5,2021.2.3,59.99479364848192,
images/exp2b_trial_209_colour1_distractors9_l.png,l,1,1,9,0,,,,,0,98,98,98,,,,,,,,,,,,,,,,,,,,,,,,,,,,,,,,,,,,,,,,,,,357.69506544899195,None,2,0.37203173100715503,357.69506544899195,None,,,,,,,,,,,,,,,,None,None,None,,None,None,358.11235889198724,None,1,1,0.7368287550052628,358.11235889198724,None,358.84520429237455,None,None,None,None,,04,001,2023_Jan_18_1147,searchDisc5,2021.2.3,59.99479364848192,
images/exp1a_trial_178_colour1_distractors19_l.png,l,1,1,19,0,,,,,0,99,99,99,,,,,,,,,,,,,,,,,,,,,,,,,,,,,,,,,,,,,,,,,,,358.86175051998,None,2,0.3557660119840875,358.86175051998,None,,,,,,,,,,,,,,,,None,None,None,,None,None,359.2621045659762,None,1,1,0.7018518809927627,359.2621045659762,None,359.96222248139384,None,None,None,None,,04,001,2023_Jan_18_1147,searchDisc5,2021.2.3,59.99479364848192,
images/exp1a_trial_260_colour1_distractors31_r.png,r,3,1,31,0,,,,,0,100,100,100,,,,,,,,,,,,,,,,,,,,,,,,,,,,,,,,,,,,,,,,,,,359.98097065498587,None,2,0.38964452798245475,359.98097065498587,None,,,,,,,,,,,,,,,,None,None,None,,None,None,360.4145237959747,None,3,1,1.0485769090009853,360.4145237959747,None,361.4626838393888,None,None,None,None,,04,001,2023_Jan_18_1147,searchDisc5,2021.2.3,59.99479364848192,
images/exp2c_trial_210_colour1_distractors19_l.png,l,1,1,19,0,,,,,0,101,101,101,,,,,,,,,,,,,,,,,,,,,,,,,,,,,,,,,,,,,,,,,,,361.47916235699086,None,2,0.35624096999526955,361.47916235699086,None,,,,,,,,,,,,,,,,None,None,None,,None,None,361.87916022498393,None,1,1,0.7014769829984289,361.87916022498393,None,362.5791887263913,None,None,None,None,,04,001,2023_Jan_18_1147,searchDisc5,2021.2.3,59.99479364848192,
images/exp2b_trial_315_colour3_distractors9_l.png,l,1,3,9,0,,,,,0,102,102,102,,,,,,,,,,,,,,,,,,,,,,,,,,,,,,,,,,,,,,,,,,,362.59552938697743,None,2,0.35464274100377224,362.59552938697743,None,,,,,,,,,,,,,,,,None,None,None,,None,None,362.99531640598434,None,1,1,0.671374266006751,362.99531640598434,None,363.6627225913835,None,None,None,None,,04,001,2023_Jan_18_1147,searchDisc5,2021.2.3,59.99479364848192,
images/exp1a_trial_150_colour2_distractors9_l.png,l,1,2,9,0,,,,,0,103,103,103,,,,,,,,,,,,,,,,,,,,,,,,,,,,,,,,,,,,,,,,,,,363.67900485999417,None,2,0.4233088359760586,363.67900485999417,None,,,,,,,,,,,,,,,,None,None,None,,None,None,364.147985824995,None,1,1,0.6012927209958434,364.147985824995,None,364.7459122273867,None,None,None,None,,04,001,2023_Jan_18_1147,searchDisc5,2021.2.3,59.99479364848192,
images/exp2b_trial_93_colour3_distractors31_l.png,l,1,3,31,0,,,,,0,104,104,104,,,,,,,,,,,,,,,,,,,,,,,,,,,,,,,,,,,,,,,,,,,364.7638677159848,None,2,0.40672670598723926,364.7638677159848,None,,,,,,,,,,,,,,,,None,None,None,,None,None,365.2148484349891,None,1,1,0.717469588998938,365.2148484349891,None,365.9292154573923,None,None,None,None,,04,001,2023_Jan_18_1147,searchDisc5,2021.2.3,59.99479364848192,
images/exp2a_trial_239_colour1_distractors1_l.png,l,1,1,1,0,,,,,0,105,105,105,,,,,,,,,,,,,,,,,,,,,,,,,,,,,,,,,,,,,,,,,,,365.94578413298586,None,2,0.3710610620037187,365.94578413298586,None,,,,,,,,,,,,,,,,None,None,None,,None,None,366.36255444199196,None,1,1,0.5894759859947953,366.36255444199196,None,366.9460591373936,None,None,None,None,,04,001,2023_Jan_18_1147,searchDisc5,2021.2.3,59.99479364848192,
images/exp2b_trial_38_colour2_distractors4_r.png,r,3,2,4,0,,,,,0,106,106,106,,,,,,,,,,,,,,,,,,,,,,,,,,,,,,,,,,,,,,,,,,,366.96389069699217,None,2,0.42332772800000384,366.96389069699217,None,,,,,,,,,,,,,,,,None,None,None,,None,None,367.42899736599065,None,3,1,0.6051873530086596,367.42899736599065,None,368.0295832903794,None,None,None,None,,04,001,2023_Jan_18_1147,searchDisc5,2021.2.3,59.99479364848192,
images/exp1a_trial_168_colour2_distractors19_r.png,r,3,2,19,0,,,,,0,107,107,107,,,,,,,,,,,,,,,,,,,,,,,,,,,,,,,,,,,,,,,,,,,368.0455405959801,None,2,0.3689165459945798,368.0455405959801,None,,,,,,,,,,,,,,,,None,None,None,,None,None,368.46455906299525,None,3,1,0.6021908370021265,368.46455906299525,None,369.06266853438865,None,None,None,None,,04,001,2023_Jan_18_1147,searchDisc5,2021.2.3,59.99479364848192,
images/exp1a_trial_200_colour2_distractors19_r.png,r,3,2,19,0,,,,,0,108,108,108,,,,,,,,,,,,,,,,,,,,,,,,,,,,,,,,,,,,,,,,,,,369.0791582139791,None,2,0.35695337402285077,369.0791582139791,None,,,,,,,,,,,,,,,,None,None,None,,None,None,369.4790726119827,None,3,1,0.5824771199841052,369.4790726119827,None,370.06271602738707,None,None,None,None,,04,001,2023_Jan_18_1147,searchDisc5,2021.2.3,59.99479364848192,
images/exp1a_trial_49_colour1_distractors9_l.png,l,1,1,9,0,,,,,0,109,109,109,,,,,,,,,,,,,,,,,,,,,,,,,,,,,,,,,,,,,,,,,,,370.07916348599247,None,2,0.38778061702032574,370.07916348599247,None,,,,,,,,,,,,,,,,None,None,None,,None,None,370.5148338029976,None,1,1,0.7882907559978776,370.5148338029976,None,371.29609994737257,None,None,None,None,,04,001,2023_Jan_18_1147,searchDisc5,2021.2.3,59.99479364848192,
images/exp2c_trial_132_colour1_distractors31_r.png,r,3,1,31,0,,,,,0,110,110,110,,,,,,,,,,,,,,,,,,,,,,,,,,,,,,,,,,,,,,,,,,,371.3141590919986,None,2,0.35450588300591335,371.3141590919986,None,,,,,,,,,,,,,,,,None,None,None,,None,None,371.71491437699297,None,3,1,0.5685221070016269,371.71491437699297,None,372.27878455737664,None,None,None,None,,04,001,2023_Jan_18_1147,searchDisc5,2021.2.3,59.99479364848192,
images/exp2b_trial_103_colour2_distractors9_r.png,r,3,2,9,0,,,,,0,111,111,111,,,,,,,,,,,,,,,,,,,,,,,,,,,,,,,,,,,,,,,,,,,372.2957608929719,None,2,0.32396465400233865,372.2957608929719,None,,,,,,,,,,,,,,,,None,None,None,,None,None,372.6629312709847,None,3,1,0.5859907309932169,372.6629312709847,None,373.2461844513746,None,None,None,None,,04,001,2023_Jan_18_1147,searchDisc5,2021.2.3,59.99479364848192,
images/exp2c_trial_240_colour1_distractors4_l.png,l,1,1,4,0,,,,,0,112,112,112,,,,,,,,,,,,,,,,,,,,,,,,,,,,,,,,,,,,,,,,,,,373.2618412839947,None,2,0.3218220320122782,373.2618412839947,None,,,,,,,,,,,,,,,,None,None,None,,None,None,373.6295341649966,None,1,1,0.6218080859980546,373.6295341649966,None,374.2462197723944,None,None,None,None,,04,001,2023_Jan_18_1147,searchDisc5,2021.2.3,59.99479364848192,
images/exp1a_trial_79_colour1_distractors1_l.png,l,1,1,1,0,,,,,0,113,113,113,,,,,,,,,,,,,,,,,,,,,,,,,,,,,,,,,,,,,,,,,,,374.26264751298004,None,2,0.3876166899863165,374.26264751298004,None,,,,,,,,,,,,,,,,None,None,None,,None,None,374.69777451397385,None,1,1,0.6388990019913763,374.69777451397385,None,375.3295172473736,None,None,None,None,,04,001,2023_Jan_18_1147,searchDisc5,2021.2.3,59.99479364848192,
images/exp2c_trial_306_colour1_distractors19_l.png,l,1,1,19,0,,,,,0,114,114,114,,,,,,,,,,,,,,,,,,,,,,,,,,,,,,,,,,,,,,,,,,,375.34596378399874,None,2,0.371302964980714,375.34596378399874,None,,,,,,,,,,,,,,,,None,None,None,,None,None,375.76294850197155,None,1,1,0.7031533160188701,375.76294850197155,None,376.4629856603715,None,None,None,None,,04,001,2023_Jan_18_1147,searchDisc5,2021.2.3,59.99479364848192,
images/exp1a_trial_219_colour3_distractors9_l.png,l,1,3,9,0,,,,,0,115,115,115,,,,,,,,,,,,,,,,,,,,,,,,,,,,,,,,,,,,,,,,,,,376.4790805359953,None,2,0.35447140797623433,376.4790805359953,None,,,,,,,,,,,,,,,,None,None,None,,None,None,376.8794423559739,None,1,1,0.6708873469906393,376.8794423559739,None,377.54634089137835,None,None,None,None,,04,001,2023_Jan_18_1147,searchDisc5,2021.2.3,59.99479364848192,
images/exp1a_trial_90_colour3_distractors4_l.png,l,1,3,4,0,,,,,0,116,116,116,,,,,,,,,,,,,,,,,,,,,,,,,,,,,,,,,,,,,,,,,,,377.56222267099656,None,2,0.406645875016693,377.56222267099656,None,,,,,,,,,,,,,,,,None,None,None,,None,None,378.0148658779799,None,1,1,0.7190229559782892,378.0148658779799,None,378.7297771313897,None,None,None,None,,04,001,2023_Jan_18_1147,searchDisc5,2021.2.3,59.99479364848192,
images/exp2b_trial_4_colour1_distractors31_r.png,r,3,1,31,0,,,,,0,117,117,117,,,,,,,,,,,,,,,,,,,,,,,,,,,,,,,,,,,,,,,,,,,378.74600092999754,None,2,0.37106071299058385,378.74600092999754,None,,,,,,,,,,,,,,,,None,None,None,,None,None,379.1634523679968,None,3,1,0.8360984629835002,379.1634523679968,None,379.9964749793726,None,None,None,None,,04,001,2023_Jan_18_1147,searchDisc5,2021.2.3,59.99479364848192,
images/exp2b_trial_317_colour3_distractors31_l.png,l,1,3,31,0,,,,,0,118,118,118,,,,,,,,,,,,,,,,,,,,,,,,,,,,,,,,,,,,,,,,,,,380.01447077299235,None,2,0.32120947900693864,380.01447077299235,None,,,,,,,,,,,,,,,,None,None,None,,None,None,380.379193433997,None,1,1,0.6866098979953676,380.379193433997,None,381.06302852639055,None,None,None,None,,04,001,2023_Jan_18_1147,searchDisc5,2021.2.3,59.99479364848192,
images/exp2a_trial_102_colour2_distractors4_r.png,r,3,2,4,0,,,,,0,119,119,119,,,,,,,,,,,,,,,,,,,,,,,,,,,,,,,,,,,,,,,,,,,381.07917644199915,None,2,0.33802866301266477,381.07917644199915,None,,,,,,,,,,,,,,,,None,None,None,,None,None,381.4650794939953,None,3,1,0.6561442730017006,381.4650794939953,None,382.1152878463763,None,None,None,None,,04,001,2023_Jan_18_1147,searchDisc5,2021.2.3,59.99479364848192,
images/exp2c_trial_220_colour3_distractors19_l.png,l,1,3,19,0,,,,,0,120,120,120,,,,,,,,,,,,,,,,,,,,,,,,,,,,,,,,,,,,,,,,,,,382.13154973697965,None,2,0.3544624880014453,382.13154973697965,None,,,,,,,,,,,,,,,,None,None,None,,None,None,382.5297329709865,None,1,1,0.7012910679914057,382.5297329709865,None,383.2296722083847,None,None,None,None,,04,001,2023_Jan_18_1147,searchDisc5,2021.2.3,59.99479364848192,
images/exp2a_trial_247_colour2_distractors19_l.png,l,1,2,19,0,,,,,0,121,121,121,,,,,,,,,,,,,,,,,,,,,,,,,,,,,,,,,,,,,,,,,,,383.24570937198587,None,2,0.33823208199464716,383.24570937198587,None,,,,,,,,,,,,,,,,None,None,None,,None,None,383.6299232739839,None,1,1,0.7976355309947394,383.6299232739839,None,384.4297720333707,None,None,None,None,,04,001,2023_Jan_18_1147,searchDisc5,2021.2.3,59.99479364848192,
images/exp1a_trial_258_colour1_distractors9_r.png,r,3,1,9,0,,,,,0,122,122,122,,,,,,,,,,,,,,,,,,,,,,,,,,,,,,,,,,,,,,,,,,,384.446016803995,None,2,0.3379321669926867,384.446016803995,None,,,,,,,,,,,,,,,,None,None,None,,None,None,384.8295340309851,None,3,1,0.7366865020012483,384.8295340309851,None,385.56322835937317,None,None,None,None,,04,001,2023_Jan_18_1147,searchDisc5,2021.2.3,59.99479364848192,
images/exp2a_trial_20_colour2_distractors1_l.png,l,1,2,1,0,,,,,0,123,123,123,,,,,,,,,,,,,,,,,,,,,,,,,,,,,,,,,,,,,,,,,,,385.5793069789943,None,2,0.32109191300696693,385.5793069789943,None,,,,,,,,,,,,,,,,None,None,None,,None,None,385.94595095998375,None,1,1,0.8394360349921044,385.94595095998375,None,386.7795485993702,None,None,None,None,,04,001,2023_Jan_18_1147,searchDisc5,2021.2.3,59.99479364848192,
images/exp2c_trial_139_colour3_distractors4_r.png,r,3,3,4,0,,,,,0,124,124,124,,,,,,,,,,,,,,,,,,,,,,,,,,,,,,,,,,,,,,,,,,,386.79628893898916,None,2,0.3398308659961913,386.79628893898916,None,,,,,,,,,,,,,,,,None,None,None,,None,None,387.1792293089966,None,3,1,0.5533701560052577,387.1792293089966,None,387.72940430439485,None,None,None,None,,04,001,2023_Jan_18_1147,searchDisc5,2021.2.3,59.99479364848192,
images/exp2a_trial_59_colour3_distractors9_l.png,l,1,3,9,0,,,,,0,125,125,125,,,,,,,,,,,,,,,,,,,,,,,,,,,,,,,,,,,,,,,,,,,387.7462349079724,None,2,0.337967113009654,387.7462349079724,None,,,,,,,,,,,,,,,,None,None,None,,None,None,388.12961070699384,None,1,1,0.6067659389809705,388.12961070699384,None,388.7314819753956,None,None,None,None,,04,001,2023_Jan_18_1147,searchDisc5,2021.2.3,59.99479364848192,
images/exp2c_trial_140_colour3_distractors9_r.png,r,3,3,9,0,,,,,0,126,126,126,,,,,,,,,,,,,,,,,,,,,,,,,,,,,,,,,,,,,,,,,,,388.74833640499855,None,2,0.3363489950133953,388.74833640499855,None,,,,,,,,,,,,,,,,None,None,None,,None,None,389.13142337597674,None,3,1,0.6900410839880351,389.13142337597674,None,389.8134229573916,None,None,None,None,,04,001,2023_Jan_18_1147,searchDisc5,2021.2.3,59.99479364848192,
images/exp1a_trial_24_colour2_distractors31_l.png,l,1,2,31,0,,,,,0,127,127,127,,,,,,,,,,,,,,,,,,,,,,,,,,,,,,,,,,,,,,,,,,,389.82965871997294,None,2,0.2889023919997271,389.82965871997294,None,,,,,,,,,,,,,,,,None,None,None,,None,None,390.1631824579963,None,1,1,0.7796470350003801,390.1631824579963,None,390.94665452338813,None,None,None,None,,04,001,2023_Jan_18_1147,searchDisc5,2021.2.3,59.99479364848192,
images/exp2c_trial_82_colour1_distractors19_l.png,l,1,1,19,0,,,,,0,128,128,128,,,,,,,,,,,,,,,,,,,,,,,,,,,,,,,,,,,,,,,,,,,390.96466898097424,None,2,0.3213891309860628,390.96466898097424,None,,,,,,,,,,,,,,,,None,None,None,,None,None,391.3293372959888,None,1,1,0.6367446149815805,391.3293372959888,None,391.9629319833912,None,None,None,None,,04,001,2023_Jan_18_1147,searchDisc5,2021.2.3,59.99479364848192,
images/exp2b_trial_274_colour1_distractors19_l.png,l,1,1,19,0,,,,,0,129,129,129,,,,,,,,,,,,,,,,,,,,,,,,,,,,,,,,,,,,,,,,,,,391.97951097998885,None,2,0.33846482101944275,391.97951097998885,None,,,,,,,,,,,,,,,,None,None,None,,None,None,392.36336086899973,None,1,1,0.7200279149983544,392.36336086899973,None,393.0801417723851,None,None,None,None,,04,001,2023_Jan_18_1147,searchDisc5,2021.2.3,59.99479364848192,
images/exp2c_trial_196_colour1_distractors31_r.png,r,3,1,31,0,,,,,0,130,130,130,,,,,,,,,,,,,,,,,,,,,,,,,,,,,,,,,,,,,,,,,,,393.0964515489759,None,2,0.3377150390006136,393.0964515489759,None,,,,,,,,,,,,,,,,None,None,None,,None,None,393.4800878249807,None,3,1,0.6024676880042534,393.4800878249807,None,394.08004220538714,None,None,None,None,,04,001,2023_Jan_18_1147,searchDisc5,2021.2.3,59.99479364848192,
images/exp2a_trial_273_colour1_distractors9_l.png,l,1,1,9,0,,,,,0,131,131,131,,,,,,,,,,,,,,,,,,,,,,,,,,,,,,,,,,,,,,,,,,,394.09595559799345,None,2,0.34011315801762976,394.09595559799345,None,,,,,,,,,,,,,,,,None,None,None,,None,None,394.4817062909715,None,1,1,0.8191431560262572,394.4817062909715,None,395.29677303637436,None,None,None,None,,04,001,2023_Jan_18_1147,searchDisc5,2021.2.3,59.99479364848192,
images/exp2a_trial_110_colour3_distractors31_r.png,r,3,3,31,0,,,,,0,132,132,132,,,,,,,,,,,,,,,,,,,,,,,,,,,,,,,,,,,,,,,,,,,395.31316440197406,None,2,0.3376121150213294,395.31316440197406,None,,,,,,,,,,,,,,,,None,None,None,,None,None,395.6971210259944,None,3,1,0.6029706659901422,395.6971210259944,None,396.2968426983716,None,None,None,None,,04,001,2023_Jan_18_1147,searchDisc5,2021.2.3,59.99479364848192,
images/exp2b_trial_15_colour1_distractors1_l.png,l,1,1,1,0,,,,,0,133,133,133,,,,,,,,,,,,,,,,,,,,,,,,,,,,,,,,,,,,,,,,,,,396.31275248597376,None,2,0.35650070500560105,396.31275248597376,None,,,,,,,,,,,,,,,,None,None,None,,None,None,396.713578830997,None,1,1,0.7395874180074316,396.713578830997,None,397.44627838737506,None,None,None,None,,04,001,2023_Jan_18_1147,searchDisc5,2021.2.3,59.99479364848192,
images/exp2b_trial_229_colour2_distractors1_r.png,r,3,2,1,0,,,,,0,134,134,134,,,,,,,,,,,,,,,,,,,,,,,,,,,,,,,,,,,,,,,,,,,397.4627240119735,None,2,0.3197433550085407,397.4627240119735,None,,,,,,,,,,,,,,,,None,None,None,,None,None,397.8302623349882,None,3,1,0.5722468780004419,397.8302623349882,None,398.39672239839274,None,None,None,None,,04,001,2023_Jan_18_1147,searchDisc5,2021.2.3,59.99479364848192,
images/exp2a_trial_178_colour1_distractors19_l.png,l,1,1,19,0,,,,,0,135,135,135,,,,,,,,,,,,,,,,,,,,,,,,,,,,,,,,,,,,,,,,,,,398.41484683699673,None,2,0.3548475050192792,398.41484683699673,None,,,,,,,,,,,,,,,,None,None,None,,None,None,398.81305225999677,None,1,1,0.6223306559841149,398.81305225999677,None,399.430307315386,None,None,None,None,,04,001,2023_Jan_18_1147,searchDisc5,2021.2.3,59.99479364848192,
images/exp2a_trial_154_colour3_distractors4_l.png,l,1,3,4,0,,,,,0,136,136,136,,,,,,,,,,,,,,,,,,,,,,,,,,,,,,,,,,,,,,,,,,,399.4468674999953,None,2,0.35271081401151605,399.4468674999953,None,,,,,,,,,,,,,,,,None,None,None,,None,None,399.84631271698163,None,1,1,0.6225220540072769,399.84631271698163,None,400.46369130037783,None,None,None,None,,04,001,2023_Jan_18_1147,searchDisc5,2021.2.3,59.99479364848192,
images/exp1a_trial_185_colour3_distractors1_l.png,l,1,3,1,0,,,,,0,137,137,137,,,,,,,,,,,,,,,,,,,,,,,,,,,,,,,,,,,,,,,,,,,400.47999500398873,None,2,0.3547661209886428,400.47999500398873,None,,,,,,,,,,,,,,,,None,None,None,,None,None,400.8801834329788,None,1,1,0.6043449439748656,400.8801834329788,None,401.4802465383691,None,None,None,None,,04,001,2023_Jan_18_1147,searchDisc5,2021.2.3,59.99479364848192,
images/exp2a_trial_118_colour2_distractors9_l.png,l,1,2,9,0,,,,,0,138,138,138,,,,,,,,,,,,,,,,,,,,,,,,,,,,,,,,,,,,,,,,,,,401.49641735397745,None,2,0.3541232730203774,401.49641735397745,None,,,,,,,,,,,,,,,,None,None,None,,None,None,401.8989367929753,None,1,1,0.7343849790049717,401.8989367929753,None,402.63048408737814,None,None,None,None,,04,001,2023_Jan_18_1147,searchDisc5,2021.2.3,59.99479364848192,
images/exp2a_trial_57_colour3_distractors1_l.png,l,1,3,1,0,,,,,0,139,139,139,,,,,,,,,,,,,,,,,,,,,,,,,,,,,,,,,,,,,,,,,,,402.6484593389905,None,2,0.3544805730052758,402.6484593389905,None,,,,,,,,,,,,,,,,None,None,None,,None,None,403.0490902289748,None,1,1,0.6553327510191593,403.0490902289748,None,403.6969808363792,None,None,None,None,,04,001,2023_Jan_18_1147,searchDisc5,2021.2.3,59.99479364848192,
images/exp2a_trial_242_colour1_distractors19_l.png,l,1,1,19,0,,,,,0,140,140,140,,,,,,,,,,,,,,,,,,,,,,,,,,,,,,,,,,,,,,,,,,,403.71293553497526,None,2,0.3879808280034922,403.71293553497526,None,,,,,,,,,,,,,,,,None,None,None,,None,None,404.1486514369899,None,1,1,0.6870029199926648,404.1486514369899,None,404.8304954413761,None,None,None,None,,04,001,2023_Jan_18_1147,searchDisc5,2021.2.3,59.99479364848192,
images/exp2b_trial_292_colour1_distractors31_r.png,r,3,1,31,0,,,,,0,141,141,141,,,,,,,,,,,,,,,,,,,,,,,,,,,,,,,,,,,,,,,,,,,404.8486003599828,None,2,0.37290691400994547,404.8486003599828,None,,,,,,,,,,,,,,,,None,None,None,,None,None,405.26506696199067,None,3,1,0.7340226679807529,405.26506696199067,None,405.99722385538917,None,None,None,None,,04,001,2023_Jan_18_1147,searchDisc5,2021.2.3,59.99479364848192,
images/exp2c_trial_318_colour0_distractors0_r.png,r,3,0,0,0,,,,,0,142,142,142,,,,,,,,,,,,,,,,,,,,,,,,,,,,,,,,,,,,,,,,,,,406.0150708889996,None,2,0.3043656870140694,406.0150708889996,None,,,,,,,,,,,,,,,,None,None,None,,None,None,406.36365908099106,None,3,1,0.6726066590053961,406.36365908099106,None,407.03019424738886,None,None,None,None,,04,001,2023_Jan_18_1147,searchDisc5,2021.2.3,59.99479364848192,
images/exp2c_trial_111_colour1_distractors1_l.png,l,1,1,1,0,,,,,0,143,143,143,,,,,,,,,,,,,,,,,,,,,,,,,,,,,,,,,,,,,,,,,,,407.0469066289952,None,2,0.33813951499178074,407.0469066289952,None,,,,,,,,,,,,,,,,None,None,None,,None,None,407.43039796699304,None,1,1,0.6557344220054802,407.43039796699304,None,408.08055221936957,None,None,None,None,,04,001,2023_Jan_18_1147,searchDisc5,2021.2.3,59.99479364848192,
images/exp2c_trial_227_colour1_distractors19_r.png,r,3,1,19,0,,,,,0,144,144,144,,,,,,,,,,,,,,,,,,,,,,,,,,,,,,,,,,,,,,,,,,,408.0969405579963,None,2,0.3714907840185333,408.0969405579963,None,,,,,,,,,,,,,,,,None,None,None,,None,None,408.5135740879923,None,3,1,0.6551424979988951,408.5135740879923,None,409.16381123538304,None,None,None,None,,04,001,2023_Jan_18_1147,searchDisc5,2021.2.3,59.99479364848192,
images/exp2c_trial_283_colour3_distractors9_l.png,l,1,3,9,0,,,,,0,145,145,145,,,,,,,,,,,,,,,,,,,,,,,,,,,,,,,,,,,,,,,,,,,409.1801626449742,None,2,0.3188292960112449,409.1801626449742,None,,,,,,,,,,,,,,,,None,None,None,,None,None,409.5470410839771,None,1,1,0.6385996099852491,409.5470410839771,None,410.18066365837876,None,None,None,None,,04,001,2023_Jan_18_1147,searchDisc5,2021.2.3,59.99479364848192,
images/exp2c_trial_287_colour0_distractors0_l.png,l,1,0,0,0,,,,,0,146,146,146,,,,,,,,,,,,,,,,,,,,,,,,,,,,,,,,,,,,,,,,,,,410.19669485397753,None,2,0.354243634006707,410.19669485397753,None,,,,,,,,,,,,,,,,None,None,None,,None,None,410.59716737197596,None,1,1,0.6227532729972154,410.59716737197596,None,411.2136915583833,None,None,None,None,,04,001,2023_Jan_18_1147,searchDisc5,2021.2.3,59.99479364848192,
images/exp2a_trial_161_colour1_distractors4_r.png,r,3,1,4,0,,,,,0,147,147,147,,,,,,,,,,,,,,,,,,,,,,,,,,,,,,,,,,,,,,,,,,,411.2305725469778,None,2,0.3715998289990239,411.2305725469778,None,,,,,,,,,,,,,,,,None,None,None,,None,None,411.6471535199962,None,3,1,0.6212128539918922,411.6471535199962,None,412.26331159738766,None,None,None,None,,04,001,2023_Jan_18_1147,searchDisc5,2021.2.3,59.99479364848192,
images/exp2b_trial_240_colour1_distractors4_l.png,l,1,1,4,0,,,,,0,148,148,148,,,,,,,,,,,,,,,,,,,,,,,,,,,,,,,,,,,,,,,,,,,412.2802266839717,None,2,0.35718656997778453,412.2802266839717,None,,,,,,,,,,,,,,,,None,None,None,,None,None,412.680485061981,None,1,1,0.6049208290060051,412.680485061981,None,413.28073664139083,None,None,None,None,,04,001,2023_Jan_18_1147,searchDisc5,2021.2.3,59.99479364848192,
images/exp2a_trial_72_colour2_distractors19_r.png,r,3,2,19,0,,,,,0,149,149,149,,,,,,,,,,,,,,,,,,,,,,,,,,,,,,,,,,,,,,,,,,,413.29710560897365,None,2,0.3697891409974545,413.29710560897365,None,,,,,,,,,,,,,,,,None,None,None,,None,None,413.71601946497685,None,3,1,0.6660780939855613,413.71601946497685,None,414.380700649388,None,None,None,None,,04,001,2023_Jan_18_1147,searchDisc5,2021.2.3,59.99479364848192,
images/exp2c_trial_277_colour2_distractors4_l.png,l,1,2,4,0,,,,,0,150,150,150,,,,,,,,,,,,,,,,,,,,,,,,,,,,,,,,,,,,,,,,,,,414.3963959539833,None,2,0.32106593099888414,414.3963959539833,None,,,,,,,,,,,,,,,,None,None,None,,None,None,414.76379477299633,None,1,1,0.6722515689907596,414.76379477299633,None,415.430684464387,None,None,None,None,,04,001,2023_Jan_18_1147,searchDisc5,2021.2.3,59.99479364848192,
images/exp2c_trial_285_colour3_distractors31_l.png,l,1,3,31,0,,,,,0,151,151,151,,,,,,,,,,,,,,,,,,,,,,,,,,,,,,,,,,,,,,,,,,,415.4470641769876,None,2,0.3397687370015774,415.4470641769876,None,,,,,,,,,,,,,,,,None,None,None,,None,None,415.8321152589924,None,1,1,0.633653520984808,415.8321152589924,None,416.46358750639774,None,None,None,None,,04,001,2023_Jan_18_1147,searchDisc5,2021.2.3,59.99479364848192,
images/exp2b_trial_168_colour2_distractors19_r.png,r,3,2,19,0,,,,,0,152,152,152,,,,,,,,,,,,,,,,,,,,,,,,,,,,,,,,,,,,,,,,,,,416.47996142998454,None,2,0.3556427220173646,416.47996142998454,None,,,,,,,,,,,,,,,,None,None,None,,None,None,416.88032097398536,None,3,1,0.6035327629942913,416.88032097398536,None,417.4809061103879,None,None,None,None,,04,001,2023_Jan_18_1147,searchDisc5,2021.2.3,59.99479364848192,
images/exp1a_trial_13_colour3_distractors19_r.png,r,3,3,19,0,,,,,0,153,153,153,,,,,,,,,,,,,,,,,,,,,,,,,,,,,,,,,,,,,,,,,,,417.49713511997834,None,2,0.3543482819804922,417.49713511997834,None,,,,,,,,,,,,,,,,None,None,None,,None,None,417.8968461279874,None,3,1,0.6176710340077989,417.8968461279874,None,418.5142317243881,None,None,None,None,,04,001,2023_Jan_18_1147,searchDisc5,2021.2.3,59.99479364848192,
images/exp2a_trial_241_colour1_distractors9_l.png,l,1,1,9,0,,,,,0,154,154,154,,,,,,,,,,,,,,,,,,,,,,,,,,,,,,,,,,,,,,,,,,,418.53051185098593,None,2,0.33768802499980666,418.53051185098593,None,,,,,,,,,,,,,,,,None,None,None,,None,None,418.91349710099166,None,1,1,0.6713400849839672,418.91349710099166,None,419.58081433839106,None,None,None,None,,04,001,2023_Jan_18_1147,searchDisc5,2021.2.3,59.99479364848192,
images/exp2a_trial_19_colour1_distractors31_l.png,l,1,1,31,0,,,,,0,155,155,155,,,,,,,,,,,,,,,,,,,,,,,,,,,,,,,,,,,,,,,,,,,419.59862172498833,None,2,0.3046513189910911,419.59862172498833,None,,,,,,,,,,,,,,,,None,None,None,,None,None,419.9474556449859,None,1,1,0.6688691150047816,419.9474556449859,None,420.6141842263896,None,None,None,None,,04,001,2023_Jan_18_1147,searchDisc5,2021.2.3,59.99479364848192,
images/exp2c_trial_166_colour2_distractors4_r.png,r,3,2,4,0,,,,,0,156,156,156,,,,,,,,,,,,,,,,,,,,,,,,,,,,,,,,,,,,,,,,,,,420.63065151099,None,2,0.30457065999507904,420.63065151099,None,,,,,,,,,,,,,,,,None,None,None,,None,None,420.98082659297506,None,3,1,0.7049994919798337,420.98082659297506,None,421.6809527263831,None,None,None,None,,04,001,2023_Jan_18_1147,searchDisc5,2021.2.3,59.99479364848192,
images/exp2c_trial_156_colour3_distractors19_l.png,l,1,3,19,0,,,,,0,157,157,157,,,,,,,,,,,,,,,,,,,,,,,,,,,,,,,,,,,,,,,,,,,421.6968552309845,None,2,0.30463660301757045,421.6968552309845,None,,,,,,,,,,,,,,,,None,None,None,,None,None,422.047703379998,None,1,1,0.7046038979897276,422.047703379998,None,422.74699453539506,None,None,None,None,,04,001,2023_Jan_18_1147,searchDisc5,2021.2.3,59.99479364848192,
images/exp1a_trial_196_colour1_distractors31_r.png,r,3,1,31,0,,,,,0,158,158,158,,,,,,,,,,,,,,,,,,,,,,,,,,,,,,,,,,,,,,,,,,,422.763291330979,None,2,0.3194691060052719,422.763291330979,None,,,,,,,,,,,,,,,,None,None,None,,None,None,423.13094621899654,None,3,1,0.9993351370212622,423.13094621899654,None,424.1309228543978,None,None,None,None,,04,001,2023_Jan_18_1147,searchDisc5,2021.2.3,59.99479364848192,
images/exp2b_trial_169_colour2_distractors31_r.png,r,3,2,31,0,,,,,0,159,159,159,,,,,,,,,,,,,,,,,,,,,,,,,,,,,,,,,,,,,,,,,,,424.1468663519772,None,2,0.3046829199884087,424.1468663519772,None,,,,,,,,,,,,,,,,None,None,None,,None,None,424.49732878099894,None,3,1,0.6549763559887651,424.49732878099894,None,425.1477018963924,None,None,None,None,,04,001,2023_Jan_18_1147,searchDisc5,2021.2.3,59.99479364848192,
images/exp2b_trial_287_colour0_distractors0_l.png,l,1,0,0,0,,,,,0,160,160,160,,,,,,,,,,,,,,,,,,,,,,,,,,,,,,,,,,,,,,,,,,,425.163406549982,None,2,0.3191172989900224,425.163406549982,None,,,,,,,,,,,,,,,,None,None,None,,None,None,425.53091178799514,None,1,1,0.6748699650052004,425.53091178799514,None,426.1977822243789,None,None,None,None,,04,001,2023_Jan_18_1147,searchDisc5,2021.2.3,59.99479364848192,
images/exp2a_trial_262_colour2_distractors4_r.png,r,3,2,4,0,,,,,0,161,161,161,,,,,,,,,,,,,,,,,,,,,,,,,,,,,,,,,,,,,,,,,,,426.2135749239824,None,2,0.31962816399754956,426.2135749239824,None,,,,,,,,,,,,,,,,None,None,None,,None,None,426.5810075759946,None,3,1,0.6530994219938293,426.5810075759946,None,427.2309906893788,None,None,None,None,,04,001,2023_Jan_18_1147,searchDisc5,2021.2.3,59.99479364848192,
images/exp2c_trial_185_colour3_distractors1_l.png,l,1,3,1,0,,,,,0,162,162,162,,,,,,,,,,,,,,,,,,,,,,,,,,,,,,,,,,,,,,,,,,,427.2491476619907,None,2,0.30609579401789233,427.2491476619907,None,,,,,,,,,,,,,,,,None,None,None,,None,None,427.59787756198784,None,1,1,0.6559800849936437,427.59787756198784,None,428.2476802503952,None,None,None,None,,04,001,2023_Jan_18_1147,searchDisc5,2021.2.3,59.99479364848192,
images/exp2c_trial_270_colour3_distractors31_r.png,r,3,3,31,0,,,,,0,163,163,163,,,,,,,,,,,,,,,,,,,,,,,,,,,,,,,,,,,,,,,,,,,428.26429456699407,None,2,0.3220841249858495,428.26429456699407,None,,,,,,,,,,,,,,,,None,None,None,,None,None,428.6332997989957,None,3,1,0.6678736080066301,428.6332997989957,None,429.29778755539155,None,None,None,None,,04,001,2023_Jan_18_1147,searchDisc5,2021.2.3,59.99479364848192,
images/exp2c_trial_286_colour0_distractors0_r.png,r,3,0,0,0,,,,,0,164,164,164,,,,,,,,,,,,,,,,,,,,,,,,,,,,,,,,,,,,,,,,,,,429.3140523689799,None,2,0.33979820099193603,429.3140523689799,None,,,,,,,,,,,,,,,,None,None,None,,None,None,429.69759921898367,None,3,1,0.6210451989900321,429.69759921898367,None,430.31447940638463,None,None,None,None,,04,001,2023_Jan_18_1147,searchDisc5,2021.2.3,59.99479364848192,
images/exp2a_trial_26_colour3_distractors4_l.png,l,1,3,4,0,,,,,0,165,165,165,,,,,,,,,,,,,,,,,,,,,,,,,,,,,,,,,,,,,,,,,,,430.33063295297325,None,2,0.3218802150222473,430.33063295297325,None,,,,,,,,,,,,,,,,None,None,None,,None,None,430.6980734699755,None,1,1,0.7375600500090513,430.6980734699755,None,431.4306369153928,None,None,None,None,,04,001,2023_Jan_18_1147,searchDisc5,2021.2.3,59.99479364848192,
images/exp2a_trial_224_colour1_distractors1_r.png,r,3,1,1,0,,,,,0,166,166,166,,,,,,,,,,,,,,,,,,,,,,,,,,,,,,,,,,,,,,,,,,,431.4468313139805,None,2,0.3051614039868582,431.4468313139805,None,,,,,,,,,,,,,,,,None,None,None,,None,None,431.798234959977,None,3,1,0.7391225929895882,431.798234959977,None,432.53124672138074,None,None,None,None,,04,001,2023_Jan_18_1147,searchDisc5,2021.2.3,59.99479364848192,
images/exp2a_trial_232_colour2_distractors19_r.png,r,3,2,19,0,,,,,0,167,167,167,,,,,,,,,,,,,,,,,,,,,,,,,,,,,,,,,,,,,,,,,,,432.5471485259768,None,2,0.3045834219956305,432.5471485259768,None,,,,,,,,,,,,,,,,None,None,None,,None,None,432.89709556498565,None,3,1,0.6318662660196424,432.89709556498565,None,433.53113948537793,None,None,None,None,,04,001,2023_Jan_18_1147,searchDisc5,2021.2.3,59.99479364848192,
images/exp2b_trial_24_colour2_distractors31_l.png,l,1,2,31,0,,,,,0,168,168,168,,,,,,,,,,,,,,,,,,,,,,,,,,,,,,,,,,,,,,,,,,,433.54750008299015,None,2,0.304363089002436,433.54750008299015,None,,,,,,,,,,,,,,,,None,None,None,,None,None,433.8981067419809,None,1,1,0.7029287070035934,433.8981067419809,None,434.5979442593962,None,None,None,None,,04,001,2023_Jan_18_1147,searchDisc5,2021.2.3,59.99479364848192,
images/exp2a_trial_81_colour1_distractors9_l.png,l,1,1,9,0,,,,,0,169,169,169,,,,,,,,,,,,,,,,,,,,,,,,,,,,,,,,,,,,,,,,,,,434.61428423499456,None,2,0.32331429302576,434.61428423499456,None,,,,,,,,,,,,,,,,None,None,None,,None,None,434.9812657889852,None,1,1,0.6524753400008194,434.9812657889852,None,435.6311649133713,None,None,None,None,,04,001,2023_Jan_18_1147,searchDisc5,2021.2.3,59.99479364848192,
images/exp1a_trial_226_colour1_distractors9_r.png,r,3,1,9,0,,,,,0,170,170,170,,,,,,,,,,,,,,,,,,,,,,,,,,,,,,,,,,,,,,,,,,,435.64772418298526,None,2,0.3213476919918321,435.64772418298526,None,,,,,,,,,,,,,,,,None,None,None,,None,None,436.0144640299841,None,3,1,0.6530504530237522,436.0144640299841,None,436.66467055938847,None,None,None,None,,04,001,2023_Jan_18_1147,searchDisc5,2021.2.3,59.99479364848192,
images/exp2a_trial_21_colour2_distractors4_l.png,l,1,2,4,0,,,,,0,171,171,171,,,,,,,,,,,,,,,,,,,,,,,,,,,,,,,,,,,,,,,,,,,436.6827392759733,None,2,0.30453306101844646,436.6827392759733,None,,,,,,,,,,,,,,,,None,None,None,,None,None,437.0303961909958,None,1,1,0.7044326169998385,437.0303961909958,None,437.7311917383777,None,None,None,None,,04,001,2023_Jan_18_1147,searchDisc5,2021.2.3,59.99479364848192,
images/exp2a_trial_85_colour2_distractors4_l.png,l,1,2,4,0,,,,,0,172,172,172,,,,,,,,,,,,,,,,,,,,,,,,,,,,,,,,,,,,,,,,,,,437.7477868469723,None,2,0.3046469039982185,437.7477868469723,None,,,,,,,,,,,,,,,,None,None,None,,None,None,438.0980148559902,None,1,1,1.2373150759958662,438.0980148559902,None,439.3313566783763,None,None,None,None,,04,001,2023_Jan_18_1147,searchDisc5,2021.2.3,59.99479364848192,
images/exp1a_trial_88_colour2_distractors31_l.png,l,1,2,31,0,,,,,0,173,173,173,,,,,,,,,,,,,,,,,,,,,,,,,,,,,,,,,,,,,,,,,,,439.347868493991,None,2,0.32293505599955097,439.347868493991,None,,,,,,,,,,,,,,,,None,None,None,,None,None,439.7168131599901,None,1,1,0.7812393339991104,439.7168131599901,None,440.49798497637676,None,None,None,None,,04,001,2023_Jan_18_1147,searchDisc5,2021.2.3,59.99479364848192,
images/exp1a_trial_314_colour3_distractors4_l.png,l,1,3,4,0,,,,,0,174,174,174,,,,,,,,,,,,,,,,,,,,,,,,,,,,,,,,,,,,,,,,,,,440.5143677479937,None,2,0.3211613280000165,440.5143677479937,None,,,,,,,,,,,,,,,,None,None,None,,None,None,440.88098479498876,None,3,0,0.5712639089906588,440.88098479498876,None,441.44734129037533,None,None,None,None,,04,001,2023_Jan_18_1147,searchDisc5,2021.2.3,59.99479364848192,
images/exp2b_trial_125_colour3_distractors31_l.png,l,1,3,31,0,,,,,0,175,175,175,,,,,,,,,,,,,,,,,,,,,,,,,,,,,,,,,,,,,,,,,,,441.4663564079965,None,2,0.7554117050021887,441.4663564079965,None,,,,,,,,,,,,,,,,None,None,None,,None,None,442.26670689397724,None,1,1,0.8862118810066022,442.26670689397724,None,443.1481052493764,None,None,None,None,,04,001,2023_Jan_18_1147,searchDisc5,2021.2.3,59.99479364848192,
images/exp2b_trial_243_colour1_distractors31_l.png,l,1,1,31,0,,,,,0,176,176,176,,,,,,,,,,,,,,,,,,,,,,,,,,,,,,,,,,,,,,,,,,,443.1646105849941,None,2,0.33800286799669266,443.1646105849941,None,,,,,,,,,,,,,,,,None,None,None,,None,None,443.54750814597355,None,1,1,0.9524267509987112,443.54750814597355,None,444.49775803838565,None,None,None,None,,04,001,2023_Jan_18_1147,searchDisc5,2021.2.3,59.99479364848192,
images/exp1a_trial_315_colour3_distractors9_l.png,l,1,3,9,0,,,,,0,177,177,177,,,,,,,,,,,,,,,,,,,,,,,,,,,,,,,,,,,,,,,,,,,444.51619060797384,None,2,0.3053755979926791,444.51619060797384,None,,,,,,,,,,,,,,,,None,None,None,,None,None,444.8650156839867,None,1,1,0.635943869012408,444.8650156839867,None,445.49759072637244,None,None,None,None,,04,001,2023_Jan_18_1147,searchDisc5,2021.2.3,59.99479364848192,
images/exp1a_trial_295_colour2_distractors9_r.png,r,3,2,9,0,,,,,0,178,178,178,,,,,,,,,,,,,,,,,,,,,,,,,,,,,,,,,,,,,,,,,,,445.514519053977,None,2,0.34064438700443134,445.514519053977,None,,,,,,,,,,,,,,,,None,None,None,,None,None,445.89836486199056,None,3,1,0.8006221130199265,445.89836486199056,None,446.69772370938153,None,None,None,None,,04,001,2023_Jan_18_1147,searchDisc5,2021.2.3,59.99479364848192,
images/exp2c_trial_137_colour2_distractors31_r.png,r,3,2,31,0,,,,,0,179,179,179,,,,,,,,,,,,,,,,,,,,,,,,,,,,,,,,,,,,,,,,,,,446.7144116269774,None,2,0.3049719459959306,446.7144116269774,None,,,,,,,,,,,,,,,,None,None,None,,None,None,447.06428328098264,None,3,1,0.7694858989852946,447.06428328098264,None,447.831679248382,None,None,None,None,,04,001,2023_Jan_18_1147,searchDisc5,2021.2.3,59.99479364848192,
images/exp2c_trial_64_colour1_distractors1_r.png,r,3,1,1,0,,,,,0,180,180,180,,,,,,,,,,,,,,,,,,,,,,,,,,,,,,,,,,,,,,,,,,,447.84774994899635,None,2,0.35453069998766296,447.84774994899635,None,,,,,,,,,,,,,,,,None,None,None,,None,None,448.24819518398726,None,3,1,0.6727219469903503,448.24819518398726,None,448.91498941039026,None,None,None,None,,04,001,2023_Jan_18_1147,searchDisc5,2021.2.3,59.99479364848192,
images/exp2b_trial_277_colour2_distractors4_l.png,l,1,2,4,0,,,,,0,181,181,181,,,,,,,,,,,,,,,,,,,,,,,,,,,,,,,,,,,,,,,,,,,448.9333584669803,None,2,0.3378455789934378,448.9333584669803,None,,,,,,,,,,,,,,,,None,None,None,,None,None,449.31509663697216,None,1,1,0.6886253170087002,449.31509663697216,None,449.9982129373966,None,None,None,None,,04,001,2023_Jan_18_1147,searchDisc5,2021.2.3,59.99479364848192,
images/exp1a_trial_110_colour3_distractors31_r.png,r,3,3,31,0,,,,,0,182,182,182,,,,,,,,,,,,,,,,,,,,,,,,,,,,,,,,,,,,,,,,,,,450.0148333669931,None,2,0.3537446499976795,450.0148333669931,None,,,,,,,,,,,,,,,,None,None,None,,None,None,450.4148300839879,None,3,1,0.700473127013538,450.4148300839879,None,451.1152148773981,None,None,None,None,,04,001,2023_Jan_18_1147,searchDisc5,2021.2.3,59.99479364848192,
images/exp2a_trial_163_colour1_distractors19_r.png,r,3,1,19,0,,,,,0,183,183,183,,,,,,,,,,,,,,,,,,,,,,,,,,,,,,,,,,,,,,,,,,,451.13138013199205,None,2,0.3377663329883944,451.13138013199205,None,,,,,,,,,,,,,,,,None,None,None,,None,None,451.5152281339979,None,3,1,0.6860607550188433,451.5152281339979,None,452.19829915439186,None,None,None,None,,04,001,2023_Jan_18_1147,searchDisc5,2021.2.3,59.99479364848192,
images/exp1a_trial_161_colour1_distractors4_r.png,r,3,1,4,0,,,,,0,184,184,184,,,,,,,,,,,,,,,,,,,,,,,,,,,,,,,,,,,,,,,,,,,452.21423847498954,None,2,0.3380759110150393,452.21423847498954,None,,,,,,,,,,,,,,,,None,None,None,,None,None,452.60028342498117,None,3,1,0.6715546170016751,452.60028342498117,None,453.26490238039696,None,None,None,None,,04,001,2023_Jan_18_1147,searchDisc5,2021.2.3,59.99479364848192,
images/exp2c_trial_7_colour2_distractors9_r.png,r,3,2,9,0,,,,,0,185,185,185,,,,,,,,,,,,,,,,,,,,,,,,,,,,,,,,,,,,,,,,,,,453.2808683809999,None,2,0.37146570498589426,453.2808683809999,None,,,,,,,,,,,,,,,,None,None,None,,None,None,453.7002889169962,None,3,1,1.1205616889928933,453.7002889169962,None,454.8147085003875,None,None,None,None,,04,001,2023_Jan_18_1147,searchDisc5,2021.2.3,59.99479364848192,
images/exp2a_trial_187_colour3_distractors9_l.png,l,1,3,9,0,,,,,0,186,186,186,,,,,,,,,,,,,,,,,,,,,,,,,,,,,,,,,,,,,,,,,,,454.8336868810002,None,2,0.28801569700590335,454.8336868810002,None,,,,,,,,,,,,,,,,None,None,None,,None,None,455.16479235497536,None,1,1,0.6876900859933812,455.16479235497536,None,455.84856737939117,None,None,None,None,,04,001,2023_Jan_18_1147,searchDisc5,2021.2.3,59.99479364848192,
images/exp2c_trial_187_colour3_distractors9_l.png,l,1,3,9,0,,,,,0,187,187,187,,,,,,,,,,,,,,,,,,,,,,,,,,,,,,,,,,,,,,,,,,,455.86656949698227,None,2,0.33766695801750757,455.86656949698227,None,,,,,,,,,,,,,,,,None,None,None,,None,None,456.2482857699797,None,1,1,1.037918776011793,456.2482857699797,None,457.28180567639356,None,None,None,None,,04,001,2023_Jan_18_1147,searchDisc5,2021.2.3,59.99479364848192,
images/exp2c_trial_68_colour1_distractors31_r.png,r,3,1,31,0,,,,,0,188,188,188,,,,,,,,,,,,,,,,,,,,,,,,,,,,,,,,,,,,,,,,,,,457.2973615199735,None,2,0.33912412100471556,457.2973615199735,None,,,,,,,,,,,,,,,,None,None,None,,None,None,457.68161430498003,None,3,1,0.7345929880102631,457.68161430498003,None,458.41505881039484,None,None,None,None,,04,001,2023_Jan_18_1147,searchDisc5,2021.2.3,59.99479364848192,
images/exp2a_trial_205_colour3_distractors19_r.png,r,3,3,19,0,,,,,0,189,189,189,,,,,,,,,,,,,,,,,,,,,,,,,,,,,,,,,,,,,,,,,,,458.43179240397876,None,2,0.6547504680056591,458.43179240397876,None,,,,,,,,,,,,,,,,None,None,None,,None,None,459.13169437198667,None,3,1,0.60402529098792,459.13169437198667,None,459.731877737373,None,None,None,None,,04,001,2023_Jan_18_1147,searchDisc5,2021.2.3,59.99479364848192,
images/exp2a_trial_261_colour2_distractors1_r.png,r,3,2,1,0,,,,,0,190,190,190,,,,,,,,,,,,,,,,,,,,,,,,,,,,,,,,,,,,,,,,,,,459.7481385959836,None,2,0.33913358399877325,459.7481385959836,None,,,,,,,,,,,,,,,,None,None,None,,None,None,460.1339300009713,None,3,1,0.7862193130131345,460.1339300009713,None,460.91458187538956,None,None,None,None,,04,001,2023_Jan_18_1147,searchDisc5,2021.2.3,59.99479364848192,
images/exp2c_trial_171_colour3_distractors4_r.png,r,3,3,4,0,,,,,0,191,191,191,,,,,,,,,,,,,,,,,,,,,,,,,,,,,,,,,,,,,,,,,,,460.93144570698496,None,2,0.28794219097471796,460.93144570698496,None,,,,,,,,,,,,,,,,None,None,None,,None,None,461.26737752897316,None,3,1,0.722613015997922,461.26737752897316,None,461.9819252233865,None,None,None,None,,04,001,2023_Jan_18_1147,searchDisc5,2021.2.3,59.99479364848192,
images/exp2c_trial_34_colour1_distractors9_r.png,r,3,1,9,0,,,,,0,192,192,192,,,,,,,,,,,,,,,,,,,,,,,,,,,,,,,,,,,,,,,,,,,461.997946271993,None,2,0.3377878729952499,461.997946271993,None,,,,,,,,,,,,,,,,None,None,None,,None,None,462.382141959999,None,3,1,0.6544807570171542,462.382141959999,None,463.0319344523741,None,None,None,None,,04,001,2023_Jan_18_1147,searchDisc5,2021.2.3,59.99479364848192,
images/exp2a_trial_130_colour1_distractors9_r.png,r,3,1,9,0,,,,,0,193,193,193,,,,,,,,,,,,,,,,,,,,,,,,,,,,,,,,,,,,,,,,,,,463.04823990998557,None,2,0.35477442099363543,463.04823990998557,None,,,,,,,,,,,,,,,,None,None,None,,None,None,463.4487371859723,None,3,1,0.5874168580048718,463.4487371859723,None,464.0320654523821,None,None,None,None,,04,001,2023_Jan_18_1147,searchDisc5,2021.2.3,59.99479364848192,
images/exp2c_trial_90_colour3_distractors4_l.png,l,1,3,4,0,,,,,0,194,194,194,,,,,,,,,,,,,,,,,,,,,,,,,,,,,,,,,,,,,,,,,,,464.0479637159733,None,2,0.3574307030066848,464.0479637159733,None,,,,,,,,,,,,,,,,None,None,None,,None,None,464.4507934709836,None,1,1,0.6697385639999993,464.4507934709836,None,465.11529651137243,None,None,None,None,,04,001,2023_Jan_18_1147,searchDisc5,2021.2.3,59.99479364848192,
images/exp2b_trial_265_colour2_distractors31_r.png,r,3,2,31,0,,,,,0,195,195,195,,,,,,,,,,,,,,,,,,,,,,,,,,,,,,,,,,,,,,,,,,,465.1318601399835,None,2,0.33762599498732015,465.1318601399835,None,,,,,,,,,,,,,,,,None,None,None,,None,None,465.515024258988,None,3,1,0.6357379489927553,465.515024258988,None,466.14880247939436,None,None,None,None,,04,001,2023_Jan_18_1147,searchDisc5,2021.2.3,59.99479364848192,
images/exp2c_trial_81_colour1_distractors9_l.png,l,1,1,9,0,,,,,0,196,196,196,,,,,,,,,,,,,,,,,,,,,,,,,,,,,,,,,,,,,,,,,,,466.16473072298686,None,2,0.33786190999671817,466.16473072298686,None,,,,,,,,,,,,,,,,None,None,None,,None,None,466.5481974639988,None,1,1,0.6712702930090018,466.5481974639988,None,467.2155780483881,None,None,None,None,,04,001,2023_Jan_18_1147,searchDisc5,2021.2.3,59.99479364848192,
images/exp2c_trial_22_colour2_distractors9_l.png,l,1,2,9,0,,,,,0,197,197,197,,,,,,,,,,,,,,,,,,,,,,,,,,,,,,,,,,,,,,,,,,,467.23181030197884,None,2,0.28779390698764473,467.23181030197884,None,,,,,,,,,,,,,,,,None,None,None,,None,None,467.56557323999004,None,1,1,0.6709341400128324,467.56557323999004,None,468.2320908773836,None,None,None,None,,04,001,2023_Jan_18_1147,searchDisc5,2021.2.3,59.99479364848192,
images/exp2a_trial_111_colour1_distractors1_l.png,l,1,1,1,0,,,,,0,198,198,198,,,,,,,,,,,,,,,,,,,,,,,,,,,,,,,,,,,,,,,,,,,468.2486925929843,None,2,0.30627783000818454,468.2486925929843,None,,,,,,,,,,,,,,,,None,None,None,,None,None,468.5988920829841,None,1,1,0.638216816005297,468.5988920829841,None,469.2322075783886,None,None,None,None,,04,001,2023_Jan_18_1147,searchDisc5,2021.2.3,59.99479364848192,
images/exp2b_trial_97_colour1_distractors4_r.png,r,3,1,4,0,,,,,0,199,199,199,,,,,,,,,,,,,,,,,,,,,,,,,,,,,,,,,,,,,,,,,,,469.2485694929783,None,2,0.33962802501628175,469.2485694929783,None,,,,,,,,,,,,,,,,None,None,None,,None,None,469.63367531698896,None,3,1,1.1034125220030546,469.63367531698896,None,470.7321845203842,None,None,None,None,,04,001,2023_Jan_18_1147,searchDisc5,2021.2.3,59.99479364848192,
images/exp2c_trial_67_colour1_distractors19_r.png,r,3,1,19,0,,,,,0,200,200,200,,,,,,,,,,,,,,,,,,,,,,,,,,,,,,,,,,,,,,,,,,,470.7509563959902,None,2,0.3372958250110969,470.7509563959902,None,,,,,,,,,,,,,,,,None,None,None,,None,None,471.13420684999437,None,3,1,0.6860335689852946,471.13420684999437,None,471.81510862537834,None,None,None,None,,04,001,2023_Jan_18_1147,searchDisc5,2021.2.3,59.99479364848192,
images/exp2a_trial_285_colour3_distractors31_l.png,l,1,3,31,0,,,,,0,201,201,201,,,,,,,,,,,,,,,,,,,,,,,,,,,,,,,,,,,,,,,,,,,471.8332904599956,None,2,0.3214973970025312,471.8332904599956,None,,,,,,,,,,,,,,,,None,None,None,,None,None,472.19814852799755,None,1,1,0.6860534959996585,472.19814852799755,None,472.8821168233844,None,None,None,None,,04,001,2023_Jan_18_1147,searchDisc5,2021.2.3,59.99479364848192,
images/exp2b_trial_89_colour3_distractors1_l.png,l,1,3,1,0,,,,,0,202,202,202,,,,,,,,,,,,,,,,,,,,,,,,,,,,,,,,,,,,,,,,,,,472.8980782769795,None,2,0.3215515920019243,472.8980782769795,None,,,,,,,,,,,,,,,,None,None,None,,None,None,473.265502137976,None,1,1,0.6213315940112807,473.265502137976,None,473.8817450643837,None,None,None,None,,04,001,2023_Jan_18_1147,searchDisc5,2021.2.3,59.99479364848192,
images/exp2b_trial_26_colour3_distractors4_l.png,l,1,3,4,0,,,,,0,203,203,203,,,,,,,,,,,,,,,,,,,,,,,,,,,,,,,,,,,,,,,,,,,473.8987462989753,None,2,0.338149532006355,473.8987462989753,None,,,,,,,,,,,,,,,,None,None,None,,None,None,474.2819114399899,None,1,1,0.6548065500101075,474.2819114399899,None,474.9317040353926,None,None,None,None,,04,001,2023_Jan_18_1147,searchDisc5,2021.2.3,59.99479364848192,
images/exp2b_trial_76_colour3_distractors9_r.png,r,3,3,9,0,,,,,0,204,204,204,,,,,,,,,,,,,,,,,,,,,,,,,,,,,,,,,,,,,,,,,,,474.94876453699544,None,2,0.3551652639871463,474.94876453699544,None,,,,,,,,,,,,,,,,None,None,None,,None,None,475.35059645900037,None,3,1,0.5875802460068371,475.35059645900037,None,475.93213340138027,None,None,None,None,,04,001,2023_Jan_18_1147,searchDisc5,2021.2.3,59.99479364848192,
images/exp1a_trial_305_colour1_distractors9_l.png,l,1,1,9,0,,,,,0,205,205,205,,,,,,,,,,,,,,,,,,,,,,,,,,,,,,,,,,,,,,,,,,,475.9486891119741,None,2,0.3377819609886501,475.9486891119741,None,,,,,,,,,,,,,,,,None,None,None,,None,None,476.33182118998957,None,1,1,0.7369597860088106,476.33182118998957,None,477.0657898353966,None,None,None,None,,04,001,2023_Jan_18_1147,searchDisc5,2021.2.3,59.99479364848192,
images/exp2a_trial_1_colour1_distractors4_r.png,r,3,1,4,0,,,,,0,206,206,206,,,,,,,,,,,,,,,,,,,,,,,,,,,,,,,,,,,,,,,,,,,477.0818144379882,None,2,0.30461223199381493,477.0818144379882,None,,,,,,,,,,,,,,,,None,None,None,,None,None,477.43234169398784,None,3,1,0.6221003959944937,477.43234169398784,None,478.04903743938485,None,None,None,None,,04,001,2023_Jan_18_1147,searchDisc5,2021.2.3,59.99479364848192,
images/exp1a_trial_107_colour3_distractors4_r.png,r,3,3,4,0,,,,,0,207,207,207,,,,,,,,,,,,,,,,,,,,,,,,,,,,,,,,,,,,,,,,,,,478.0650722019782,None,2,0.3213310739956796,478.0650722019782,None,,,,,,,,,,,,,,,,None,None,None,,None,None,478.4316275079909,None,3,1,0.6214606459834613,478.4316275079909,None,479.0492445623822,None,None,None,None,,04,001,2023_Jan_18_1147,searchDisc5,2021.2.3,59.99479364848192,
images/exp2a_trial_107_colour3_distractors4_r.png,r,3,3,4,0,,,,,0,208,208,208,,,,,,,,,,,,,,,,,,,,,,,,,,,,,,,,,,,,,,,,,,,479.0652347779833,None,2,0.32121056198957376,479.0652347779833,None,,,,,,,,,,,,,,,,None,None,None,,None,None,479.432319376996,None,3,1,0.7720212279818952,479.432319376996,None,480.19940446039254,None,None,None,None,,04,001,2023_Jan_18_1147,searchDisc5,2021.2.3,59.99479364848192,
images/exp2c_trial_274_colour1_distractors19_l.png,l,1,1,19,0,,,,,0,209,209,209,,,,,,,,,,,,,,,,,,,,,,,,,,,,,,,,,,,,,,,,,,,480.21558093698695,None,2,0.3709237159928307,480.21558093698695,None,,,,,,,,,,,,,,,,None,None,None,,None,None,480.63247938497807,None,1,1,0.6531658029998653,480.63247938497807,None,481.2825328293693,None,None,None,None,,04,001,2023_Jan_18_1147,searchDisc5,2021.2.3,59.99479364848192,
images/exp2a_trial_278_colour2_distractors9_l.png,l,1,2,9,0,,,,,0,210,210,210,,,,,,,,,,,,,,,,,,,,,,,,,,,,,,,,,,,,,,,,,,,481.29895741699147,None,2,0.30659783602459356,481.29895741699147,None,,,,,,,,,,,,,,,,None,None,None,,None,None,481.649186945986,None,1,1,0.982579710020218,481.649186945986,None,482.6325681623857,None,None,None,None,,04,001,2023_Jan_18_1147,searchDisc5,2021.2.3,59.99479364848192,
images/exp2b_trial_9_colour2_distractors31_r.png,r,3,2,31,0,,,,,0,211,211,211,,,,,,,,,,,,,,,,,,,,,,,,,,,,,,,,,,,,,,,,,,,482.648680563987,None,2,0.30455497099319473,482.648680563987,None,,,,,,,,,,,,,,,,None,None,None,,None,None,482.99906220598496,None,3,1,0.6362425810075365,482.99906220598496,None,483.63276817237784,None,None,None,None,,04,001,2023_Jan_18_1147,searchDisc5,2021.2.3,59.99479364848192,
images/exp1a_trial_41_colour2_distractors31_r.png,r,3,2,31,0,,,,,0,212,212,212,,,,,,,,,,,,,,,,,,,,,,,,,,,,,,,,,,,,,,,,,,,483.6488409859885,None,2,0.3711129819857888,483.6488409859885,None,,,,,,,,,,,,,,,,None,None,None,,None,None,484.06762124499073,None,3,1,0.6026343919802457,484.06762124499073,None,484.66609333739325,None,None,None,None,,04,001,2023_Jan_18_1147,searchDisc5,2021.2.3,59.99479364848192,
images/exp2a_trial_176_colour1_distractors4_l.png,l,1,1,4,0,,,,,0,213,213,213,,,,,,,,,,,,,,,,,,,,,,,,,,,,,,,,,,,,,,,,,,,484.6823264399718,None,2,0.3368468690023292,484.6823264399718,None,,,,,,,,,,,,,,,,None,None,None,,None,None,485.0651274249831,None,1,1,0.7379397590120789,485.0651274249831,None,485.79921152639145,None,None,None,None,,04,001,2023_Jan_18_1147,searchDisc5,2021.2.3,59.99479364848192,
images/exp2a_trial_147_colour1_distractors31_l.png,l,1,1,31,0,,,,,0,214,214,214,,,,,,,,,,,,,,,,,,,,,,,,,,,,,,,,,,,,,,,,,,,485.8157645079773,None,2,0.3253666249802336,485.8157645079773,None,,,,,,,,,,,,,,,,None,None,None,,None,None,486.18379791497136,None,1,1,0.7152238620037679,486.18379791497136,None,486.89920242839435,None,None,None,None,,04,001,2023_Jan_18_1147,searchDisc5,2021.2.3,59.99479364848192,
images/exp2b_trial_56_colour2_distractors31_l.png,l,1,2,31,0,,,,,0,215,215,215,,,,,,,,,,,,,,,,,,,,,,,,,,,,,,,,,,,,,,,,,,,486.91511054799776,None,2,0.30576260201632977,486.91511054799776,None,,,,,,,,,,,,,,,,None,None,None,,None,None,487.2660737099941,None,1,1,0.6848839120066259,487.2660737099941,None,487.94885702339525,None,None,None,None,,04,001,2023_Jan_18_1147,searchDisc5,2021.2.3,59.99479364848192,
images/exp2b_trial_27_colour3_distractors9_l.png,l,1,3,9,0,,,,,0,216,216,216,,,,,,,,,,,,,,,,,,,,,,,,,,,,,,,,,,,,,,,,,,,487.9658315219858,None,2,0.2877595169993583,487.9658315219858,None,,,,,,,,,,,,,,,,None,None,None,,None,None,488.2995147409965,None,1,1,0.605211137997685,488.2995147409965,None,488.8987573003833,None,None,None,None,,04,001,2023_Jan_18_1147,searchDisc5,2021.2.3,59.99479364848192,
images/exp2b_trial_291_colour1_distractors19_r.png,r,3,1,19,0,,,,,0,217,217,217,,,,,,,,,,,,,,,,,,,,,,,,,,,,,,,,,,,,,,,,,,,488.9157263149973,None,2,0.3072438579984009,488.9157263149973,None,,,,,,,,,,,,,,,,None,None,None,,None,None,489.2682963949919,None,3,1,0.6185249770060182,489.2682963949919,None,489.88286758038157,None,None,None,None,,04,001,2023_Jan_18_1147,searchDisc5,2021.2.3,59.99479364848192,
images/exp2a_trial_256_colour1_distractors1_r.png,r,3,1,1,0,,,,,0,218,218,218,,,,,,,,,,,,,,,,,,,,,,,,,,,,,,,,,,,,,,,,,,,489.899255766999,None,2,0.3043573470204137,489.899255766999,None,,,,,,,,,,,,,,,,None,None,None,,None,None,490.2494386289909,None,3,1,0.622769020992564,490.2494386289909,None,490.86621182337694,None,None,None,None,,04,001,2023_Jan_18_1147,searchDisc5,2021.2.3,59.99479364848192,
images/exp2a_trial_174_colour3_distractors31_r.png,r,3,3,31,0,,,,,0,219,219,219,,,,,,,,,,,,,,,,,,,,,,,,,,,,,,,,,,,,,,,,,,,490.88247859099647,None,2,0.2877459299925249,490.88247859099647,None,,,,,,,,,,,,,,,,None,None,None,,None,None,491.2175539219752,None,3,1,0.5853755669959355,491.2175539219752,None,491.79891355636937,None,None,None,None,,04,001,2023_Jan_18_1147,searchDisc5,2021.2.3,59.99479364848192,
images/exp2b_trial_276_colour2_distractors1_l.png,l,1,2,1,0,,,,,0,220,220,220,,,,,,,,,,,,,,,,,,,,,,,,,,,,,,,,,,,,,,,,,,,491.81520714398357,None,2,0.307255144987721,491.81520714398357,None,,,,,,,,,,,,,,,,None,None,None,,None,None,492.16624735097867,None,1,1,0.603791512985481,492.16624735097867,None,492.76615832837706,None,None,None,None,,04,001,2023_Jan_18_1147,searchDisc5,2021.2.3,59.99479364848192,
images/exp1a_trial_139_colour3_distractors4_r.png,r,3,3,4,0,,,,,0,221,221,221,,,,,,,,,,,,,,,,,,,,,,,,,,,,,,,,,,,,,,,,,,,492.7822730279877,None,2,0.3046721860009711,492.7822730279877,None,,,,,,,,,,,,,,,,None,None,None,,None,None,493.1328243279713,None,3,1,0.5712009030103218,493.1328243279713,None,493.69948807336914,None,None,None,None,,04,001,2023_Jan_18_1147,searchDisc5,2021.2.3,59.99479364848192,
images/exp2c_trial_114_colour1_distractors19_l.png,l,1,1,19,0,,,,,0,222,222,222,,,,,,,,,,,,,,,,,,,,,,,,,,,,,,,,,,,,,,,,,,,493.71549172198866,None,2,0.25634883501334116,493.71549172198866,None,,,,,,,,,,,,,,,,None,None,None,,None,None,494.01854938597535,None,1,1,0.5518389549979474,494.01854938597535,None,494.5663274523831,None,None,None,None,,04,001,2023_Jan_18_1147,searchDisc5,2021.2.3,59.99479364848192,
images/exp2c_trial_5_colour2_distractors1_r.png,r,3,2,1,0,,,,,0,223,223,223,,,,,,,,,,,,,,,,,,,,,,,,,,,,,,,,,,,,,,,,,,,494.582441156992,None,2,0.3041809770220425,494.582441156992,None,,,,,,,,,,,,,,,,None,None,None,,None,None,494.9328718209872,None,3,1,0.574601291998988,494.9328718209872,None,495.4995542673714,None,None,None,None,,04,001,2023_Jan_18_1147,searchDisc5,2021.2.3,59.99479364848192,
images/exp2c_trial_223_colour0_distractors0_l.png,l,1,0,0,0,,,,,0,224,224,224,,,,,,,,,,,,,,,,,,,,,,,,,,,,,,,,,,,,,,,,,,,495.5175935299776,None,2,0.2359186650137417,495.5175935299776,None,,,,,,,,,,,,,,,,None,None,None,,None,None,495.7994118319766,None,1,1,0.5896097790100612,495.7994118319766,None,496.38291562239465,None,None,None,None,,04,001,2023_Jan_18_1147,searchDisc5,2021.2.3,59.99479364848192,
