ImageFile,targ_side,correctAnswer,colour,distNo,targetType,trials_2.thisRepN,trials_2.thisTrialN,trials_2.thisN,trials_2.thisIndex,trials.thisRepN,trials.thisTrialN,trials.thisN,trials.thisIndex,text_6.started,text_6.stopped,buttonBox.keys,buttonBox.rt,buttonBox.started,buttonBox.stopped,text_7.started,text_7.stopped,buttonBox_3.keys,buttonBox_3.rt,buttonBox_3.started,buttonBox_3.stopped,text_8.started,text_8.stopped,buttonBox_4.keys,buttonBox_4.rt,buttonBox_4.started,buttonBox_4.stopped,text_9.started,text_9.stopped,buttonBox_5.keys,buttonBox_5.rt,buttonBox_5.started,buttonBox_5.stopped,text_2.started,text_2.stopped,buttonBox_6.keys,buttonBox_6.rt,buttonBox_6.started,buttonBox_6.stopped,text_5.started,text_5.stopped,buttonBox_7.keys,buttonBox_7.rt,image_2.started,image_2.stopped,image_3.started,image_3.stopped,buttonBox_8.keys,buttonBox_8.rt,buttonBox_8.started,buttonBox_8.stopped,polygon.started,polygon.stopped,buttonBox_9.keys,buttonBox_9.rt,buttonBox_9.started,buttonBox_9.stopped,image.started,image.stopped,buttonBox_10.keys,buttonBox_10.corr,buttonBox_10.rt,buttonBox_10.started,buttonBox_10.stopped,text_4.started,text_4.stopped,text.started,text.stopped,buttonBox_11.keys,buttonBox_11.rt,buttonBox_11.started,buttonBox_11.stopped,targetTypeInstruction.started,targetTypeInstruction.stopped,buttonBox_2.keys,buttonBox_2.rt,buttonBox_2.started,buttonBox_2.stopped,dispStimuli.started,dispStimuli.stopped,buttonBox_12.keys,buttonBox_12.corr,buttonBox_12.rt,buttonBox_12.started,buttonBox_12.stopped,breakMessage.started,breakMessage.stopped,buttonBox_13.keys,buttonBox_13.started,buttonBox_13.stopped,buttonBox_13.rt,participant,session,date,expName,psychopyVersion,frameRate,
,,,,,,,,,,,,,,22.154081960004987,None,2,43.164065657998435,22.154081960004987,None,,,,,,,,,,,,,,,,,,,,,,,,,,,,,,,,,,,,,,,,,,,,,,,,,,,,,,,,,,,,,,,,,,,,,,,,,,,,,05,001,2023_Jan_18_1304,searchDisc5,2021.2.3,60.06796450335837,
,,,,,,,,,,,,,,,,,,,,65.30266133500845,None,2,23.095867779979017,65.30266133500845,None,,,,,,,,,,,,,,,,,,,,,,,,,,,,,,,,,,,,,,,,,,,,,,,,,,,,,,,,,,,,,,,,,,,,,,,05,001,2023_Jan_18_1304,searchDisc5,2021.2.3,60.06796450335837,
,,,,,,,,,,,,,,,,,,,,,,,,,,88.40307819098234,None,2,6.831769443000667,88.40307819098234,None,,,,,,,,,,,,,,,,,,,,,,,,,,,,,,,,,,,,,,,,,,,,,,,,,,,,,,,,,,,,,,,,,05,001,2023_Jan_18_1304,searchDisc5,2021.2.3,60.06796450335837,
,,,,,,,,,,,,,,,,,,,,,,,,,,,,,,,,95.23682989200461,None,2,2.299633337010164,95.23682989200461,None,,,,,,,,,,,,,,,,,,,,,,,,,,,,,,,,,,,,,,,,,,,,,,,,,,,,,,,,,,,05,001,2023_Jan_18_1304,searchDisc5,2021.2.3,60.06796450335837,
,,,,,,,,,,,,,,,,,,,,,,,,,,,,,,,,,,,,,,97.53680335599347,None,2,5.8815134539909195,98.52230950800003,None,,,,,,,,,,,,,,,,,,,,,,,,,,,,,,,,,,,,,,,,,,,,,,,,,,,,,05,001,2023_Jan_18_1304,searchDisc5,2021.2.3,60.06796450335837,
,,,,,,,,,,,,,,,,,,,,,,,,,,,,,,,,,,,,,,,,,,,,104.40383627600386,None,2,12.864843860006658,,,,,,,,,,,,,,,,,,,,,,,,,,,,,,,,,,,,,,,,,,,,,,,,,05,001,2023_Jan_18_1304,searchDisc5,2021.2.3,60.06796450335837,
,,,,,,,,,,,,,,,,,,,,,,,,,,,,,,,,,,,,,,,,,,,,,,,,120.27073787999689,None,120.27073787999689,None,2,6.431148586998461,120.27073787999689,None,,,,,,,,,,,,,,,,,,,,,,,,,,,,,,,,,,,,,,,,,05,001,2023_Jan_18_1304,searchDisc5,2021.2.3,60.06796450335837,
Practice arrays/exp1a_trial_12_colour3_distractors9_r.png,r,3,,,,0,0,0,5,,,,,,,,,,,,,,,,,,,,,,,,,,,,,,,,,,,,,,,,,,,,,,,126.7204630089982,None,2,8.769661777012516,126.7204630089982,None,135.55394566399627,None,1,0,4.205708652996691,135.55394566399627,None,139.77328736698837,None,,,,,,,,,,,,,,,,,,,,,,,,,,05,001,2023_Jan_18_1304,searchDisc5,2021.2.3,60.06796450335837,
Practice arrays/exp1a_trial_1_colour1_distractors4_r.png,r,3,,,,0,1,1,1,,,,,,,,,,,,,,,,,,,,,,,,,,,,,,,,,,,,,,,,,,,,,,,141.77349749198765,None,2,2.2139119950006716,141.77349749198765,None,144.03986812700168,None,3,1,1.5195804899849463,144.03986812700168,None,145.55439742599265,None,,,,,,,,,,,,,,,,,,,,,,,,,,05,001,2023_Jan_18_1304,searchDisc5,2021.2.3,60.06796450335837,
Practice arrays/exp1a_trial_27_colour3_distractors9_l.png,l,1,,,,0,2,2,12,,,,,,,,,,,,,,,,,,,,,,,,,,,,,,,,,,,,,,,,,,,,,,,147.5569750709983,None,2,0.7494029350054916,147.5569750709983,None,148.35512055200525,None,1,1,1.3331777589919511,148.35512055200525,None,149.68828012098675,None,,,,,,,,,,,,,,,,,,,,,,,,,,05,001,2023_Jan_18_1304,searchDisc5,2021.2.3,60.06796450335837,
Practice arrays/exp1a_trial_18_colour1_distractors19_l.png,l,1,,,,0,3,3,8,,,,,,,,,,,,,,,,,,,,,,,,,,,,,,,,,,,,,,,,,,,,,,,151.69060624900158,None,2,0.8659818940213881,151.69060624900158,None,152.60716543300077,None,1,1,1.1830318839929532,152.60716543300077,None,153.788028260984,None,,,,,,,,,,,,,,,,,,,,,,,,,,05,001,2023_Jan_18_1304,searchDisc5,2021.2.3,60.06796450335837,
Practice arrays/exp1a_trial_30_colour0_distractors0_r.png,r,3,,,,0,4,4,14,,,,,,,,,,,,,,,,,,,,,,,,,,,,,,,,,,,,,,,,,,,,,,,155.79062201300985,None,2,0.614021215995308,155.79062201300985,None,156.45459171800758,None,3,1,1.0556788489921018,156.45459171800758,None,157.5052746940055,None,,,,,,,,,,,,,,,,,,,,,,,,,,05,001,2023_Jan_18_1304,searchDisc5,2021.2.3,60.06796450335837,
Practice arrays/exp1a_trial_25_colour3_distractors1_l.png,l,1,,,,0,5,5,11,,,,,,,,,,,,,,,,,,,,,,,,,,,,,,,,,,,,,,,,,,,,,,,159.50690863499767,None,2,0.6304830430017319,159.50690863499767,None,160.18806928599952,None,1,1,1.1557596810162067,160.18806928599952,None,161.33854945300845,None,,,,,,,,,,,,,,,,,,,,,,,,,,05,001,2023_Jan_18_1304,searchDisc5,2021.2.3,60.06796450335837,
Practice arrays/exp1a_trial_8_colour2_distractors19_r.png,r,3,,,,0,6,6,3,,,,,,,,,,,,,,,,,,,,,,,,,,,,,,,,,,,,,,,,,,,,,,,163.34068821699475,None,2,0.5308826120162848,163.34068821699475,None,163.92446440298227,None,3,1,1.2475856629898772,163.92446440298227,None,165.17199993299437,None,,,,,,,,,,,,,,,,,,,,,,,,,,05,001,2023_Jan_18_1304,searchDisc5,2021.2.3,60.06796450335837,
Practice arrays/exp1a_trial_10_colour3_distractors1_r.png,r,3,,,,0,7,7,4,,,,,,,,,,,,,,,,,,,,,,,,,,,,,,,,,,,,,,,,,,,,,,,167.1742454970081,None,2,0.8155023870058358,167.1742454970081,None,168.03885861998424,None,3,1,1.2878305599733721,168.03885861998424,None,169.3221830939874,None,,,,,,,,,,,,,,,,,,,,,,,,,,05,001,2023_Jan_18_1304,searchDisc5,2021.2.3,60.06796450335837,
Practice arrays/exp1a_trial_7_colour2_distractors9_r.png,r,3,,,,0,8,8,2,,,,,,,,,,,,,,,,,,,,,,,,,,,,,,,,,,,,,,,,,,,,,,,171.32426680999924,None,2,0.5640569539973512,171.32426680999924,None,171.94097346498165,None,3,1,0.9359625859942753,171.94097346498165,None,172.8721876119962,None,,,,,,,,,,,,,,,,,,,,,,,,,,05,001,2023_Jan_18_1304,searchDisc5,2021.2.3,60.06796450335837,
Practice arrays/exp1a_trial_16_colour1_distractors4_l.png,l,1,,,,0,9,9,13,,,,,,,,,,,,,,,,,,,,,,,,,,,,,,,,,,,,,,,,,,,,,,,174.87436078299652,None,2,0.6658579469949473,174.87436078299652,None,175.59123342999374,None,1,1,0.9862214559980202,175.59123342999374,None,176.57247666898184,None,,,,,,,,,,,,,,,,,,,,,,,,,,05,001,2023_Jan_18_1304,searchDisc5,2021.2.3,60.06796450335837,
Practice arrays/exp1a_trial_31_colour0_distractors0_l.png,l,1,,,,0,10,10,15,,,,,,,,,,,,,,,,,,,,,,,,,,,,,,,,,,,,,,,,,,,,,,,178.57445498398738,None,2,0.8808514749980532,178.57445498398738,None,179.5074808250065,None,1,1,0.820953863003524,179.5074808250065,None,180.32237964399974,None,,,,,,,,,,,,,,,,,,,,,,,,,,05,001,2023_Jan_18_1304,searchDisc5,2021.2.3,60.06796450335837,
Practice arrays/exp1a_trial_23_colour2_distractors19_l.png,l,1,,,,0,11,11,10,,,,,,,,,,,,,,,,,,,,,,,,,,,,,,,,,,,,,,,,,,,,,,,182.324724976992,None,2,0.7992288050008938,182.324724976992,None,183.17439685299178,None,1,1,1.1320471969956998,183.17439685299178,None,184.3057469940104,None,,,,,,,,,,,,,,,,,,,,,,,,,,05,001,2023_Jan_18_1304,searchDisc5,2021.2.3,60.06796450335837,
Practice arrays/exp1a_trial_14_colour3_distractors31_r.png,r,3,,,,0,12,12,6,,,,,,,,,,,,,,,,,,,,,,,,,,,,,,,,,,,,,,,,,,,,,,,186.3079323520069,None,2,0.949421003984753,186.3079323520069,None,187.30814182100585,None,3,1,1.232121098000789,187.30814182100585,None,188.538682229002,None,,,,,,,,,,,,,,,,,,,,,,,,,,05,001,2023_Jan_18_1304,searchDisc5,2021.2.3,60.06796450335837,
Practice arrays/exp1a_trial_17_colour1_distractors9_l.png,l,1,,,,0,13,13,7,,,,,,,,,,,,,,,,,,,,,,,,,,,,,,,,,,,,,,,,,,,,,,,190.5412898619834,None,2,2.4307281960209366,190.5412898619834,None,193.0247356070031,None,1,1,1.7186163750011474,193.0247356070031,None,194.73944547600695,None,,,,,,,,,,,,,,,,,,,,,,,,,,05,001,2023_Jan_18_1304,searchDisc5,2021.2.3,60.06796450335837,
Practice arrays/exp1a_trial_21_colour2_distractors4_l.png,l,1,,,,0,14,14,9,,,,,,,,,,,,,,,,,,,,,,,,,,,,,,,,,,,,,,,,,,,,,,,196.7414248510031,None,2,1.380776045989478,196.7414248510031,None,198.17303475900553,None,1,1,0.855073579994496,198.17303475900553,None,199.0227644580009,None,,,,,,,,,,,,,,,,,,,,,,,,,,05,001,2023_Jan_18_1304,searchDisc5,2021.2.3,60.06796450335837,
Practice arrays/exp1a_trial_0_colour1_distractors1_r.png,r,3,,,,0,15,15,0,,,,,,,,,,,,,,,,,,,,,,,,,,,,,,,,,,,,,,,,,,,,,,,201.02503120998153,None,2,2.347257293004077,201.02503120998153,None,203.42245014899527,None,3,1,1.073255897994386,203.42245014899527,None,204.48965020198375,None,,,,,,,,,,,,,,,,,,,,,,,,,,05,001,2023_Jan_18_1304,searchDisc5,2021.2.3,60.06796450335837,
,,,,,,,,,,,,,,,,,,,,,,,,,,,,,,,,,,,,,,,,,,,,,,,,,,,,,,,,,,,,,,,,,,,,,,,206.57482288300525,None,2,8.648279569024453,207.55863735699677,None,,,,,,,,,,,,,,,,,,,,05,001,2023_Jan_18_1304,searchDisc5,2021.2.3,60.06796450335837,
images/exp1b_trial_180_colour2_distractors1_l.png,l,1,2,1,1,,,,,0,0,0,0,,,,,,,,,,,,,,,,,,,,,,,,,,,,,,,,,,,,,,,,,,,221.38982140400913,None,2,1.6456423250201624,221.38982140400913,None,,,,,,,,,,,,,,,,216.8087307009846,None,2,2.6145782440144103,218.77484845501021,None,223.09016516199335,None,1,1,1.5309083559841383,223.09016516199335,None,224.64030593719798,None,None,None,None,,05,001,2023_Jan_18_1304,searchDisc5,2021.2.3,60.06796450335837,
images/exp1b_trial_181_colour2_distractors4_l.png,l,1,2,4,1,,,,,0,1,1,1,,,,,,,,,,,,,,,,,,,,,,,,,,,,,,,,,,,,,,,,,,,224.65687181899557,None,2,1.7050053119892254,224.65687181899557,None,,,,,,,,,,,,,,,,None,None,None,,None,None,226.40712304098997,None,1,1,1.138943425990874,226.40712304098997,None,227.54024076008645,None,None,None,None,,05,001,2023_Jan_18_1304,searchDisc5,2021.2.3,60.06796450335837,
images/exp1b_trial_125_colour3_distractors31_l.png,l,1,3,31,1,,,,,0,2,2,2,,,,,,,,,,,,,,,,,,,,,,,,,,,,,,,,,,,,,,,,,,,227.5564028880035,None,2,1.0369589079928119,227.5564028880035,None,,,,,,,,,,,,,,,,None,None,None,,None,None,228.64259220499662,None,1,1,2.066276536002988,228.64259220499662,None,230.70687595010676,None,None,None,None,,05,001,2023_Jan_18_1304,searchDisc5,2021.2.3,60.06796450335837,
images/exp1b_trial_34_colour1_distractors9_r.png,r,3,1,9,1,,,,,0,3,3,3,,,,,,,,,,,,,,,,,,,,,,,,,,,,,,,,,,,,,,,,,,,230.72299428100814,None,2,1.237575976003427,230.72299428100814,None,,,,,,,,,,,,,,,,None,None,None,,None,None,232.0066032089817,None,3,1,1.5205459519929718,232.0066032089817,None,233.52389224311045,None,None,None,None,,05,001,2023_Jan_18_1304,searchDisc5,2021.2.3,60.06796450335837,
images/exp1b_trial_162_colour1_distractors9_r.png,r,3,1,9,1,,,,,0,4,4,4,,,,,,,,,,,,,,,,,,,,,,,,,,,,,,,,,,,,,,,,,,,233.5404349330056,None,2,0.8867759850108996,233.5404349330056,None,,,,,,,,,,,,,,,,None,None,None,,None,None,234.4739942860033,None,3,1,1.2194606529956218,234.4739942860033,None,235.69055265710048,None,None,None,None,,05,001,2023_Jan_18_1304,searchDisc5,2021.2.3,60.06796450335837,
images/exp1b_trial_106_colour3_distractors1_r.png,r,3,3,1,1,,,,,0,5,5,5,,,,,,,,,,,,,,,,,,,,,,,,,,,,,,,,,,,,,,,,,,,235.7071548209933,None,2,0.6711974799982272,235.7071548209933,None,,,,,,,,,,,,,,,,None,None,None,,None,None,236.4238527159905,None,3,1,0.9553834660036955,236.4238527159905,None,237.37396456610585,None,None,None,None,,05,001,2023_Jan_18_1304,searchDisc5,2021.2.3,60.06796450335837,
images/exp1b_trial_121_colour3_distractors1_l.png,l,1,3,1,1,,,,,0,6,6,6,,,,,,,,,,,,,,,,,,,,,,,,,,,,,,,,,,,,,,,,,,,237.39104479600792,None,2,1.1875469140068162,237.39104479600792,None,,,,,,,,,,,,,,,,None,None,None,,None,None,238.62427932798164,None,1,1,1.0384070779837202,238.62427932798164,None,239.65935549408604,None,None,None,None,,05,001,2023_Jan_18_1304,searchDisc5,2021.2.3,60.06796450335837,
images/exp1b_trial_84_colour2_distractors1_l.png,l,1,2,1,1,,,,,0,7,7,7,,,,,,,,,,,,,,,,,,,,,,,,,,,,,,,,,,,,,,,,,,,239.67546703200787,None,2,0.9017808600037824,239.67546703200787,None,,,,,,,,,,,,,,,,None,None,None,,None,None,240.62625380899408,None,1,1,0.8383629510062747,240.62625380899408,None,241.457117959109,None,None,None,None,,05,001,2023_Jan_18_1304,searchDisc5,2021.2.3,60.06796450335837,
images/exp1b_trial_217_colour3_distractors1_l.png,l,1,3,1,1,,,,,0,8,8,8,,,,,,,,,,,,,,,,,,,,,,,,,,,,,,,,,,,,,,,,,,,241.4736400859838,None,2,1.25251178900362,241.4736400859838,None,,,,,,,,,,,,,,,,None,None,None,,None,None,242.77652992500225,None,1,1,1.2044338159903418,242.77652992500225,None,243.97347545409283,None,None,None,None,,05,001,2023_Jan_18_1304,searchDisc5,2021.2.3,60.06796450335837,
images/exp1b_trial_97_colour1_distractors4_r.png,r,3,1,4,1,,,,,0,9,9,9,,,,,,,,,,,,,,,,,,,,,,,,,,,,,,,,,,,,,,,,,,,243.99042238600668,None,2,1.187820641003782,243.99042238600668,None,,,,,,,,,,,,,,,,None,None,None,,None,None,245.2255634839821,None,3,1,1.189184477989329,245.2255634839821,None,246.40738871909852,None,None,None,None,,05,001,2023_Jan_18_1304,searchDisc5,2021.2.3,60.06796450335837,
images/exp1b_trial_171_colour3_distractors4_r.png,r,3,3,4,1,,,,,0,10,10,10,,,,,,,,,,,,,,,,,,,,,,,,,,,,,,,,,,,,,,,,,,,246.4261772040045,None,2,0.6040433149901219,246.4261772040045,None,,,,,,,,,,,,,,,,None,None,None,,None,None,247.07356992500718,None,3,1,1.2380629739782307,247.07356992500718,None,248.30740828108682,None,None,None,None,,05,001,2023_Jan_18_1304,searchDisc5,2021.2.3,60.06796450335837,
images/exp1b_trial_246_colour2_distractors9_l.png,l,1,2,9,1,,,,,0,11,11,11,,,,,,,,,,,,,,,,,,,,,,,,,,,,,,,,,,,,,,,,,,,248.32418617000803,None,2,0.8067433389951475,248.32418617000803,None,,,,,,,,,,,,,,,,None,None,None,,None,None,249.17438114099787,None,1,1,1.0659197729837615,249.17438114099787,None,250.24083699510956,None,None,None,None,,05,001,2023_Jan_18_1304,searchDisc5,2021.2.3,60.06796450335837,
images/exp1b_trial_135_colour2_distractors9_r.png,r,3,2,9,1,,,,,0,12,12,12,,,,,,,,,,,,,,,,,,,,,,,,,,,,,,,,,,,,,,,,,,,250.25746279599844,None,2,0.7381255039945245,250.25746279599844,None,,,,,,,,,,,,,,,,None,None,None,,None,None,251.0405579689832,None,3,1,0.9380535270029213,251.0405579689832,None,251.97424551510775,None,None,None,None,,05,001,2023_Jan_18_1304,searchDisc5,2021.2.3,60.06796450335837,
images/exp1b_trial_75_colour3_distractors4_r.png,r,3,3,4,1,,,,,0,13,13,13,,,,,,,,,,,,,,,,,,,,,,,,,,,,,,,,,,,,,,,,,,,251.99079422198702,None,2,1.404271728999447,251.99079422198702,None,,,,,,,,,,,,,,,,None,None,None,,None,None,253.44066128900158,None,3,1,1.0049098430026788,253.44066128900158,None,254.44124774009978,None,None,None,None,,05,001,2023_Jan_18_1304,searchDisc5,2021.2.3,60.06796450335837,
images/exp1b_trial_299_colour3_distractors4_r.png,r,3,3,4,1,,,,,0,14,14,14,,,,,,,,,,,,,,,,,,,,,,,,,,,,,,,,,,,,,,,,,,,254.4576154440001,None,2,0.954377629008377,254.4576154440001,None,,,,,,,,,,,,,,,,None,None,None,,None,None,255.45779258199036,None,3,1,0.9716663669969421,255.45779258199036,None,256.4243443101092,None,None,None,None,,05,001,2023_Jan_18_1304,searchDisc5,2021.2.3,60.06796450335837,
images/exp1b_trial_212_colour2_distractors1_l.png,l,1,2,1,1,,,,,0,15,15,15,,,,,,,,,,,,,,,,,,,,,,,,,,,,,,,,,,,,,,,,,,,256.44072991100256,None,2,0.7544006570242345,256.44072991100256,None,,,,,,,,,,,,,,,,None,None,None,,None,None,257.2412823299819,None,1,1,0.8560269739828072,257.2412823299819,None,258.0913391730952,None,None,None,None,,05,001,2023_Jan_18_1304,searchDisc5,2021.2.3,60.06796450335837,
images/exp1b_trial_61_colour3_distractors31_l.png,l,1,3,31,1,,,,,0,16,16,16,,,,,,,,,,,,,,,,,,,,,,,,,,,,,,,,,,,,,,,,,,,258.1077248149959,None,2,0.4563031789730303,258.1077248149959,None,,,,,,,,,,,,,,,,None,None,None,,None,None,258.6099914899969,None,1,1,1.4174987509904895,258.6099914899969,None,260.024629394096,None,None,None,None,,05,001,2023_Jan_18_1304,searchDisc5,2021.2.3,60.06796450335837,
images/exp1b_trial_77_colour3_distractors19_r.png,r,3,3,19,1,,,,,0,17,17,17,,,,,,,,,,,,,,,,,,,,,,,,,,,,,,,,,,,,,,,,,,,260.0433003579965,None,2,1.006042001012247,260.0433003579965,None,,,,,,,,,,,,,,,,None,None,None,,None,None,261.0934184619982,None,3,1,0.9179792279901449,261.0934184619982,None,262.00806920309844,None,None,None,None,,05,001,2023_Jan_18_1304,searchDisc5,2021.2.3,60.06796450335837,
images/exp1b_trial_103_colour2_distractors9_r.png,r,3,2,9,1,,,,,0,18,18,18,,,,,,,,,,,,,,,,,,,,,,,,,,,,,,,,,,,,,,,,,,,262.0241598789871,None,2,0.5703485799895134,262.0241598789871,None,,,,,,,,,,,,,,,,None,None,None,,None,None,262.6414829969872,None,3,1,0.888655001996085,262.6414829969872,None,263.5247197830846,None,None,None,None,,05,001,2023_Jan_18_1304,searchDisc5,2021.2.3,60.06796450335837,
images/exp1b_trial_40_colour2_distractors19_r.png,r,3,2,19,1,,,,,0,19,19,19,,,,,,,,,,,,,,,,,,,,,,,,,,,,,,,,,,,,,,,,,,,263.54128505600966,None,2,0.7545701040071435,263.54128505600966,None,,,,,,,,,,,,,,,,None,None,None,,None,None,264.34154111298267,None,3,1,1.1708328320237342,264.34154111298267,None,265.5081907640939,None,None,None,None,,05,001,2023_Jan_18_1304,searchDisc5,2021.2.3,60.06796450335837,
images/exp1b_trial_123_colour3_distractors9_l.png,l,1,3,9,1,,,,,0,20,20,20,,,,,,,,,,,,,,,,,,,,,,,,,,,,,,,,,,,,,,,,,,,265.5266634639993,None,2,1.2378183870168868,265.5266634639993,None,,,,,,,,,,,,,,,,None,None,None,,None,None,266.8083003339998,None,1,1,1.1049832940043416,266.8083003339998,None,267.90805026310557,None,None,None,None,,05,001,2023_Jan_18_1304,searchDisc5,2021.2.3,60.06796450335837,
images/exp1b_trial_303_colour1_distractors1_l.png,l,1,1,1,1,,,,,0,21,21,21,,,,,,,,,,,,,,,,,,,,,,,,,,,,,,,,,,,,,,,,,,,267.9243435279932,None,2,0.5711929880199023,267.9243435279932,None,,,,,,,,,,,,,,,,None,None,None,,None,None,268.5414290720073,None,1,1,1.0228580060065724,268.5414290720073,None,269.55780982410363,None,None,None,None,,05,001,2023_Jan_18_1304,searchDisc5,2021.2.3,60.06796450335837,
images/exp1b_trial_178_colour1_distractors19_l.png,l,1,1,19,1,,,,,0,22,22,22,,,,,,,,,,,,,,,,,,,,,,,,,,,,,,,,,,,,,,,,,,,269.5746950689936,None,2,0.688233000022592,269.5746950689936,None,,,,,,,,,,,,,,,,None,None,None,,None,None,270.3084594490065,None,1,1,1.4531678650237154,270.3084594490065,None,271.75817332408917,None,None,None,None,,05,001,2023_Jan_18_1304,searchDisc5,2021.2.3,60.06796450335837,
images/exp1b_trial_24_colour2_distractors31_l.png,l,1,2,31,1,,,,,0,23,23,23,,,,,,,,,,,,,,,,,,,,,,,,,,,,,,,,,,,,,,,,,,,271.7748508619843,None,2,0.9880038829869591,271.7748508619843,None,,,,,,,,,,,,,,,,None,None,None,,None,None,272.81027405898203,None,1,1,1.3529485150065739,272.81027405898203,None,274.15773347411016,None,None,None,None,,05,001,2023_Jan_18_1304,searchDisc5,2021.2.3,60.06796450335837,
images/exp1b_trial_98_colour1_distractors9_r.png,r,3,1,9,1,,,,,0,24,24,24,,,,,,,,,,,,,,,,,,,,,,,,,,,,,,,,,,,,,,,,,,,274.1765460280003,None,2,0.7050469869864173,274.1765460280003,None,,,,,,,,,,,,,,,,None,None,None,,None,None,274.92525341999135,None,3,1,1.0874491409922484,274.92525341999135,None,276.0082690251089,None,None,None,None,,05,001,2023_Jan_18_1304,searchDisc5,2021.2.3,60.06796450335837,
images/exp1b_trial_11_colour3_distractors4_r.png,r,3,3,4,1,,,,,0,25,25,25,,,,,,,,,,,,,,,,,,,,,,,,,,,,,,,,,,,,,,,,,,,276.02658207298373,None,2,1.2712373419781215,276.02658207298373,None,,,,,,,,,,,,,,,,None,None,None,,None,None,277.3440847779857,None,3,1,0.9716602159896865,277.3440847779857,None,278.3086119910964,None,None,None,None,,05,001,2023_Jan_18_1304,searchDisc5,2021.2.3,60.06796450335837,
images/exp1b_trial_198_colour2_distractors4_r.png,r,3,2,4,1,,,,,0,26,26,26,,,,,,,,,,,,,,,,,,,,,,,,,,,,,,,,,,,,,,,,,,,278.32516287700855,None,2,0.8540966160071548,278.32516287700855,None,,,,,,,,,,,,,,,,None,None,None,,None,None,279.22527115099365,None,3,1,0.7906378600164317,279.22527115099365,None,280.0082824491052,None,None,None,None,,05,001,2023_Jan_18_1304,searchDisc5,2021.2.3,60.06796450335837,
images/exp1b_trial_311_colour2_distractors19_l.png,l,1,2,19,1,,,,,0,27,27,27,,,,,,,,,,,,,,,,,,,,,,,,,,,,,,,,,,,,,,,,,,,280.02511932200287,None,2,0.786081810016185,280.02511932200287,None,,,,,,,,,,,,,,,,None,None,None,,None,None,280.8607866120001,None,1,1,0.7893183899868745,280.8607866120001,None,281.64187724310034,None,None,None,None,,05,001,2023_Jan_18_1304,searchDisc5,2021.2.3,60.06796450335837,
images/exp1b_trial_262_colour2_distractors4_r.png,r,3,2,4,1,,,,,0,28,28,28,,,,,,,,,,,,,,,,,,,,,,,,,,,,,,,,,,,,,,,,,,,281.6585132110049,None,2,0.7188076289894525,281.6585132110049,None,,,,,,,,,,,,,,,,None,None,None,,None,None,282.4252337329963,None,3,1,0.8556255690054968,282.4252337329963,None,283.2751940871036,None,None,None,None,,05,001,2023_Jan_18_1304,searchDisc5,2021.2.3,60.06796450335837,
images/exp1b_trial_175_colour1_distractors1_l.png,l,1,1,1,1,,,,,0,29,29,29,,,,,,,,,,,,,,,,,,,,,,,,,,,,,,,,,,,,,,,,,,,283.29157788999146,None,2,0.7868969769915566,283.29157788999146,None,,,,,,,,,,,,,,,,None,None,None,,None,None,284.12536434299545,None,1,1,0.8253262990037911,284.12536434299545,None,284.9418914330978,None,None,None,None,,05,001,2023_Jan_18_1304,searchDisc5,2021.2.3,60.06796450335837,
images/exp1b_trial_302_colour3_distractors31_r.png,r,3,3,31,1,,,,,0,30,30,30,,,,,,,,,,,,,,,,,,,,,,,,,,,,,,,,,,,,,,,,,,,284.9606203220028,None,2,0.7202103220042773,284.9606203220028,None,,,,,,,,,,,,,,,,None,None,None,,None,None,285.72510037000757,None,3,1,2.098232039978029,285.72510037000757,None,287.8246701780969,None,None,None,None,,05,001,2023_Jan_18_1304,searchDisc5,2021.2.3,60.06796450335837,
images/exp1b_trial_211_colour1_distractors31_l.png,l,1,1,31,1,,,,,0,31,31,31,,,,,,,,,,,,,,,,,,,,,,,,,,,,,,,,,,,,,,,,,,,287.84391690799384,None,2,0.7053227419964969,287.84391690799384,None,,,,,,,,,,,,,,,,None,None,None,,None,None,288.59186658100225,None,1,1,1.186051758006215,288.59186658100225,None,289.77522401209865,None,None,None,None,,05,001,2023_Jan_18_1304,searchDisc5,2021.2.3,60.06796450335837,
images/exp1b_trial_193_colour1_distractors4_r.png,r,3,1,4,1,,,,,0,32,32,32,,,,,,,,,,,,,,,,,,,,,,,,,,,,,,,,,,,,,,,,,,,289.79159002398956,None,2,0.888063478982076,289.79159002398956,None,,,,,,,,,,,,,,,,None,None,None,,None,None,290.7270721109817,None,3,1,1.3225021679827478,290.7270721109817,None,292.04214030010337,None,None,None,None,,05,001,2023_Jan_18_1304,searchDisc5,2021.2.3,60.06796450335837,
images/exp1b_trial_284_colour3_distractors19_l.png,l,1,3,19,1,,,,,0,33,33,33,,,,,,,,,,,,,,,,,,,,,,,,,,,,,,,,,,,,,,,,,,,292.05824732399196,None,2,0.7232455679913983,292.05824732399196,None,,,,,,,,,,,,,,,,None,None,None,,None,None,292.8251933679858,None,1,1,1.150969833979616,292.8251933679858,None,293.9756448461063,None,None,None,None,,05,001,2023_Jan_18_1304,searchDisc5,2021.2.3,60.06796450335837,
images/exp1b_trial_200_colour2_distractors19_r.png,r,3,2,19,1,,,,,0,34,34,34,,,,,,,,,,,,,,,,,,,,,,,,,,,,,,,,,,,,,,,,,,,293.9921191459871,None,2,1.0041905769903678,293.9921191459871,None,,,,,,,,,,,,,,,,None,None,None,,None,None,295.04483182900003,None,3,1,1.3224416479934007,295.04483182900003,None,296.3589471271058,None,None,None,None,,05,001,2023_Jan_18_1304,searchDisc5,2021.2.3,60.06796450335837,
images/exp1b_trial_236_colour3_distractors9_r.png,r,3,3,9,1,,,,,0,35,35,35,,,,,,,,,,,,,,,,,,,,,,,,,,,,,,,,,,,,,,,,,,,296.37544584600255,None,2,2.3529861249844544,296.37544584600255,None,,,,,,,,,,,,,,,,None,None,None,,None,None,298.7756505929865,None,3,1,0.8206044349935837,298.7756505929865,None,299.59176163609084,None,None,None,None,,05,001,2023_Jan_18_1304,searchDisc5,2021.2.3,60.06796450335837,
images/exp1b_trial_238_colour3_distractors31_r.png,r,3,3,31,1,,,,,0,36,36,36,,,,,,,,,,,,,,,,,,,,,,,,,,,,,,,,,,,,,,,,,,,299.6089343369822,None,2,0.6900802119926084,299.6089343369822,None,,,,,,,,,,,,,,,,None,None,None,,None,None,300.3425335059874,None,3,1,1.8006710299814586,300.3425335059874,None,302.1423948851094,None,None,None,None,,05,001,2023_Jan_18_1304,searchDisc5,2021.2.3,60.06796450335837,
images/exp1b_trial_206_colour3_distractors31_r.png,r,3,3,31,1,,,,,0,37,37,37,,,,,,,,,,,,,,,,,,,,,,,,,,,,,,,,,,,,,,,,,,,302.1590403649898,None,2,0.6243284629890695,302.1590403649898,None,,,,,,,,,,,,,,,,None,None,None,,None,None,302.82787181800813,None,3,1,1.1324597919883672,302.82787181800813,None,303.9592777950835,None,None,None,None,,05,001,2023_Jan_18_1304,searchDisc5,2021.2.3,60.06796450335837,
images/exp1b_trial_132_colour1_distractors31_r.png,r,3,1,31,1,,,,,0,38,38,38,,,,,,,,,,,,,,,,,,,,,,,,,,,,,,,,,,,,,,,,,,,303.97524069598876,None,2,0.6537822280079126,303.97524069598876,None,,,,,,,,,,,,,,,,None,None,None,,None,None,304.67589421899174,None,3,1,1.4857013789878692,304.67589421899174,None,306.1592575431074,None,None,None,None,,05,001,2023_Jan_18_1304,searchDisc5,2021.2.3,60.06796450335837,
images/exp1b_trial_45_colour3_distractors19_r.png,r,3,3,19,1,,,,,0,39,39,39,,,,,,,,,,,,,,,,,,,,,,,,,,,,,,,,,,,,,,,,,,,306.17550474600284,None,2,0.9376924459938891,306.17550474600284,None,,,,,,,,,,,,,,,,None,None,None,,None,None,307.159466490004,None,3,1,0.9216098799952306,307.159466490004,None,308.07590024011154,None,None,None,None,,05,001,2023_Jan_18_1304,searchDisc5,2021.2.3,60.06796450335837,
images/exp1b_trial_136_colour2_distractors19_r.png,r,3,2,19,1,,,,,0,40,40,40,,,,,,,,,,,,,,,,,,,,,,,,,,,,,,,,,,,,,,,,,,,308.0924070479814,None,2,0.8529081659798976,308.0924070479814,None,,,,,,,,,,,,,,,,None,None,None,,None,None,308.9947530599893,None,3,1,0.8384262319887057,308.9947530599893,None,309.8259960370866,None,None,None,None,,05,001,2023_Jan_18_1304,searchDisc5,2021.2.3,60.06796450335837,
images/exp1b_trial_30_colour0_distractors0_r.png,r,3,0,0,1,,,,,0,41,41,41,,,,,,,,,,,,,,,,,,,,,,,,,,,,,,,,,,,,,,,,,,,309.8424312569841,None,2,1.1195000180159695,309.8424312569841,None,,,,,,,,,,,,,,,,None,None,None,,None,None,311.0094622449833,None,3,1,0.8055100810015574,311.0094622449833,None,311.80900153410914,None,None,None,None,,05,001,2023_Jan_18_1304,searchDisc5,2021.2.3,60.06796450335837,
images/exp1b_trial_263_colour2_distractors9_r.png,r,3,2,9,1,,,,,0,42,42,42,,,,,,,,,,,,,,,,,,,,,,,,,,,,,,,,,,,,,,,,,,,311.82543414700194,None,2,0.655363291996764,311.82543414700194,None,,,,,,,,,,,,,,,,None,None,None,,None,None,312.52605894199223,None,3,1,0.8048341770190746,312.52605894199223,None,313.32599368209196,None,None,None,None,,05,001,2023_Jan_18_1304,searchDisc5,2021.2.3,60.06796450335837,
images/exp1b_trial_294_colour2_distractors4_r.png,r,3,2,4,1,,,,,0,43,43,43,,,,,,,,,,,,,,,,,,,,,,,,,,,,,,,,,,,,,,,,,,,313.34456046298146,None,2,0.7204653270018753,313.34456046298146,None,,,,,,,,,,,,,,,,None,None,None,,None,None,314.10920983500546,None,3,1,1.0574198300018907,314.10920983500546,None,315.1592055520829,None,None,None,None,,05,001,2023_Jan_18_1304,searchDisc5,2021.2.3,60.06796450335837,
images/exp1b_trial_186_colour3_distractors4_l.png,l,1,3,4,1,,,,,0,44,44,44,,,,,,,,,,,,,,,,,,,,,,,,,,,,,,,,,,,,,,,,,,,315.1780515779974,None,2,0.6026264909887686,315.1780515779974,None,,,,,,,,,,,,,,,,None,None,None,,None,None,315.8261910309957,None,1,1,0.9890309970069211,315.8261910309957,None,316.80953592610024,None,None,None,None,,05,001,2023_Jan_18_1304,searchDisc5,2021.2.3,60.06796450335837,
images/exp1b_trial_21_colour2_distractors4_l.png,l,1,2,4,1,,,,,0,45,45,45,,,,,,,,,,,,,,,,,,,,,,,,,,,,,,,,,,,,,,,,,,,316.82803421799326,None,2,0.523912794975331,316.82803421799326,None,,,,,,,,,,,,,,,,None,None,None,,None,None,317.3923047790013,None,1,1,0.8863195110170636,317.3923047790013,None,318.27635631309533,None,None,None,None,,05,001,2023_Jan_18_1304,searchDisc5,2021.2.3,60.06796450335837,
images/exp1b_trial_244_colour2_distractors1_l.png,l,1,2,1,1,,,,,0,46,46,46,,,,,,,,,,,,,,,,,,,,,,,,,,,,,,,,,,,,,,,,,,,318.2928901950072,None,2,0.43685691998689435,318.2928901950072,None,,,,,,,,,,,,,,,,None,None,None,,None,None,318.77603147600894,None,1,1,0.8231504290015437,318.77603147600894,None,319.59282188010695,None,None,None,None,,05,001,2023_Jan_18_1304,searchDisc5,2021.2.3,60.06796450335837,
images/exp1b_trial_265_colour2_distractors31_r.png,r,3,2,31,1,,,,,0,47,47,47,,,,,,,,,,,,,,,,,,,,,,,,,,,,,,,,,,,,,,,,,,,319.60930699200253,None,2,0.5543154290062375,319.60930699200253,None,,,,,,,,,,,,,,,,None,None,None,,None,None,320.20965835399693,None,3,1,1.188493549998384,320.20965835399693,None,321.39285673009874,None,None,None,None,,05,001,2023_Jan_18_1304,searchDisc5,2021.2.3,60.06796450335837,
images/exp1b_trial_216_colour2_distractors31_l.png,l,1,2,31,1,,,,,0,48,48,48,,,,,,,,,,,,,,,,,,,,,,,,,,,,,,,,,,,,,,,,,,,321.40895488800015,None,2,0.6693981610005721,321.40895488800015,None,,,,,,,,,,,,,,,,None,None,None,,None,None,322.1262823790021,None,1,1,1.037520857003983,322.1262823790021,None,323.1595549030841,None,None,None,None,,05,001,2023_Jan_18_1304,searchDisc5,2021.2.3,60.06796450335837,
images/exp1b_trial_104_colour2_distractors19_r.png,r,3,2,19,1,,,,,0,49,49,49,,,,,,,,,,,,,,,,,,,,,,,,,,,,,,,,,,,,,,,,,,,323.17577016499126,None,2,0.47248116598348133,323.17577016499126,None,,,,,,,,,,,,,,,,None,None,None,,None,None,323.6930076509889,None,3,1,1.052729641989572,323.6930076509889,None,324.742992680092,None,None,None,None,,05,001,2023_Jan_18_1304,searchDisc5,2021.2.3,60.06796450335837,
images/exp1b_trial_234_colour3_distractors1_r.png,r,3,3,1,1,,,,,0,50,50,50,,,,,,,,,,,,,,,,,,,,,,,,,,,,,,,,,,,,,,,,,,,324.759411720006,None,2,0.6036090010020416,324.759411720006,None,,,,,,,,,,,,,,,,None,None,None,,None,None,325.4092479030078,None,3,1,0.9890145520039368,325.4092479030078,None,326.3929986590898,None,None,None,None,,05,001,2023_Jan_18_1304,searchDisc5,2021.2.3,60.06796450335837,
images/exp1b_trial_274_colour1_distractors19_l.png,l,1,1,19,1,,,,,0,51,51,51,,,,,,,,,,,,,,,,,,,,,,,,,,,,,,,,,,,,,,,,,,,326.4111708459968,None,2,0.6401196930091828,326.4111708459968,None,,,,,,,,,,,,,,,,None,None,None,,None,None,327.0947018809966,None,1,1,1.0698395200015511,327.0947018809966,None,328.1620657020918,None,None,None,None,,05,001,2023_Jan_18_1304,searchDisc5,2021.2.3,60.06796450335837,
images/exp1b_trial_249_colour3_distractors1_l.png,l,1,3,1,1,,,,,0,52,52,52,,,,,,,,,,,,,,,,,,,,,,,,,,,,,,,,,,,,,,,,,,,328.1783182389918,None,2,0.5020586750179064,328.1783182389918,None,,,,,,,,,,,,,,,,None,None,None,,None,None,328.7259554019838,None,1,1,0.8724759700126015,328.7259554019838,None,329.59314093710566,None,None,None,None,,05,001,2023_Jan_18_1304,searchDisc5,2021.2.3,60.06796450335837,
images/exp1b_trial_251_colour3_distractors9_l.png,l,1,3,9,1,,,,,0,53,53,53,,,,,,,,,,,,,,,,,,,,,,,,,,,,,,,,,,,,,,,,,,,329.6094957519963,None,2,0.5876545240171254,329.6094957519963,None,,,,,,,,,,,,,,,,None,None,None,,None,None,330.2432007800089,None,1,1,1.0044193119974807,330.2432007800089,None,331.24323852308737,None,None,None,None,,05,001,2023_Jan_18_1304,searchDisc5,2021.2.3,60.06796450335837,
images/exp1b_trial_150_colour2_distractors9_l.png,l,1,2,9,1,,,,,0,54,54,54,,,,,,,,,,,,,,,,,,,,,,,,,,,,,,,,,,,,,,,,,,,331.2594056229864,None,2,0.6065134129894432,331.2594056229864,None,,,,,,,,,,,,,,,,None,None,None,,None,None,331.909861942986,None,1,1,0.8553043970023282,331.909861942986,None,332.7600278460974,None,None,None,None,,05,001,2023_Jan_18_1304,searchDisc5,2021.2.3,60.06796450335837,
images/exp1b_trial_39_colour2_distractors9_r.png,r,3,2,9,1,,,,,0,55,55,55,,,,,,,,,,,,,,,,,,,,,,,,,,,,,,,,,,,,,,,,,,,332.77662454600795,None,2,0.5523731939902063,332.77662454600795,None,,,,,,,,,,,,,,,,None,None,None,,None,None,333.37662821100093,None,3,1,0.8708164620038588,333.37662821100093,None,334.24266498510553,None,None,None,None,,05,001,2023_Jan_18_1304,searchDisc5,2021.2.3,60.06796450335837,
images/exp1b_trial_204_colour3_distractors9_r.png,r,3,3,9,1,,,,,0,56,56,56,,,,,,,,,,,,,,,,,,,,,,,,,,,,,,,,,,,,,,,,,,,334.2595141209895,None,2,0.5216217699926347,334.2595141209895,None,,,,,,,,,,,,,,,,None,None,None,,None,None,334.8283555969829,None,3,1,1.2704886390129104,334.8283555969829,None,336.0931871410954,None,None,None,None,,05,001,2023_Jan_18_1304,searchDisc5,2021.2.3,60.06796450335837,
images/exp1b_trial_242_colour1_distractors19_l.png,l,1,1,19,1,,,,,0,57,57,57,,,,,,,,,,,,,,,,,,,,,,,,,,,,,,,,,,,,,,,,,,,336.11165961500956,None,2,0.6057054729899392,336.11165961500956,None,,,,,,,,,,,,,,,,None,None,None,,None,None,336.7602899360063,None,1,1,1.0534125769918319,336.7602899360063,None,337.8100927691063,None,None,None,None,,05,001,2023_Jan_18_1304,searchDisc5,2021.2.3,60.06796450335837,
images/exp1b_trial_137_colour2_distractors31_r.png,r,3,2,31,1,,,,,0,58,58,58,,,,,,,,,,,,,,,,,,,,,,,,,,,,,,,,,,,,,,,,,,,337.82635443500476,None,2,0.4872878839960322,337.82635443500476,None,,,,,,,,,,,,,,,,None,None,None,,None,None,338.3616110389994,None,3,1,0.967352881008992,338.3616110389994,None,339.3266125480965,None,None,None,None,,05,001,2023_Jan_18_1304,searchDisc5,2021.2.3,60.06796450335837,
images/exp1b_trial_197_colour2_distractors1_r.png,r,3,2,1,1,,,,,0,59,59,59,,,,,,,,,,,,,,,,,,,,,,,,,,,,,,,,,,,,,,,,,,,339.34307287898264,None,2,0.5398032069788314,339.34307287898264,None,,,,,,,,,,,,,,,,None,None,None,,None,None,339.92874745998415,None,3,1,0.9200238659977913,339.92874745998415,None,340.8433378980932,None,None,None,None,,05,001,2023_Jan_18_1304,searchDisc5,2021.2.3,60.06796450335837,
images/exp1b_trial_316_colour3_distractors19_l.png,l,1,3,19,1,,,,,0,60,60,60,,,,,,,,,,,,,,,,,,,,,,,,,,,,,,,,,,,,,,,,,,,340.85964030900504,None,2,0.5573552999994718,340.85964030900504,None,,,,,,,,,,,,,,,,None,None,None,,None,None,341.4621923369996,None,1,1,0.9182584829977714,341.4621923369996,None,342.3769101610902,None,None,None,None,,05,001,2023_Jan_18_1304,searchDisc5,2021.2.3,60.06796450335837,
images/exp1b_trial_256_colour1_distractors1_r.png,r,3,1,1,1,,,,,0,61,61,61,,,,,,,,,,,,,,,,,,,,,,,,,,,,,,,,,,,,,,,,,,,342.3935684269818,None,2,0.45442236700910144,342.3935684269818,None,,,,,,,,,,,,,,,,None,None,None,,None,None,342.8950997540087,None,3,1,0.9372240240045357,342.8950997540087,None,343.82684211110757,None,None,None,None,,05,001,2023_Jan_18_1304,searchDisc5,2021.2.3,60.06796450335837,
images/exp1b_trial_287_colour0_distractors0_l.png,l,1,0,0,1,,,,,0,62,62,62,,,,,,,,,,,,,,,,,,,,,,,,,,,,,,,,,,,,,,,,,,,343.84553776000394,None,2,0.5713166749919765,343.84553776000394,None,,,,,,,,,,,,,,,,None,None,None,,None,None,344.4623620999919,None,1,1,0.8564890830020886,344.4623620999919,None,345.3101700811036,None,None,None,None,,05,001,2023_Jan_18_1304,searchDisc5,2021.2.3,60.06796450335837,
images/exp1b_trial_235_colour3_distractors4_r.png,r,3,3,4,1,,,,,0,63,63,63,,,,,,,,,,,,,,,,,,,,,,,,,,,,,,,,,,,,,,,,,,,345.3267009189876,None,2,0.4376071439764928,345.3267009189876,None,,,,,,,,,,,,,,,,None,None,None,,None,None,345.8125181600044,None,3,1,1.0049130550178234,345.8125181600044,None,346.8101938401029,None,None,None,None,,05,001,2023_Jan_18_1304,searchDisc5,2021.2.3,60.06796450335837,
images/exp1b_trial_15_colour1_distractors1_l.png,l,1,1,1,1,,,,,0,64,64,64,,,,,,,,,,,,,,,,,,,,,,,,,,,,,,,,,,,,,,,,,,,346.82638869900256,None,2,0.5046196100011002,346.82638869900256,None,,,,,,,,,,,,,,,,None,None,None,,None,None,347.3791829109832,None,1,1,0.8885007910139393,347.3791829109832,None,348.2606297570834,None,None,None,None,,05,001,2023_Jan_18_1304,searchDisc5,2021.2.3,60.06796450335837,
images/exp1b_trial_76_colour3_distractors9_r.png,r,3,3,9,1,,,,,0,65,65,65,,,,,,,,,,,,,,,,,,,,,,,,,,,,,,,,,,,,,,,,,,,348.2770767750044,None,2,0.5062935220194049,348.2770767750044,None,,,,,,,,,,,,,,,,None,None,None,,None,None,348.8291832029936,None,3,1,1.5524610269931145,348.8291832029936,None,350.3769248981058,None,None,None,None,,05,001,2023_Jan_18_1304,searchDisc5,2021.2.3,60.06796450335837,
images/exp1b_trial_182_colour2_distractors9_l.png,l,1,2,9,1,,,,,0,66,66,66,,,,,,,,,,,,,,,,,,,,,,,,,,,,,,,,,,,,,,,,,,,350.39370752399554,None,2,0.47239580599125475,350.39370752399554,None,,,,,,,,,,,,,,,,None,None,None,,None,None,350.91269791900413,None,1,1,0.9024925809935667,350.91269791900413,None,351.8098509390926,None,None,None,None,,05,001,2023_Jan_18_1304,searchDisc5,2021.2.3,60.06796450335837,
images/exp1b_trial_283_colour3_distractors9_l.png,l,1,3,9,1,,,,,0,67,67,67,,,,,,,,,,,,,,,,,,,,,,,,,,,,,,,,,,,,,,,,,,,351.8270213009964,None,2,0.5382518660044298,351.8270213009964,None,,,,,,,,,,,,,,,,None,None,None,,None,None,352.4121167919948,None,1,1,1.2545375839981716,352.4121167919948,None,353.660262822095,None,None,None,None,,05,001,2023_Jan_18_1304,searchDisc5,2021.2.3,60.06796450335837,
images/exp1b_trial_122_colour3_distractors4_l.png,l,1,3,4,1,,,,,0,68,68,68,,,,,,,,,,,,,,,,,,,,,,,,,,,,,,,,,,,,,,,,,,,353.6766387219832,None,2,0.45698198600439355,353.6766387219832,None,,,,,,,,,,,,,,,,None,None,None,,None,None,354.1775080600055,None,1,1,1.1031449009897187,354.1775080600055,None,355.27725908309515,None,None,None,None,,05,001,2023_Jan_18_1304,searchDisc5,2021.2.3,60.06796450335837,
images/exp1b_trial_138_colour3_distractors1_r.png,r,3,3,1,1,,,,,0,69,69,69,,,,,,,,,,,,,,,,,,,,,,,,,,,,,,,,,,,,,,,,,,,355.2931197180005,None,2,0.48995131501578726,355.2931197180005,None,,,,,,,,,,,,,,,,None,None,None,,None,None,355.8294900789915,None,3,1,0.9200211220013443,355.8294900789915,None,356.74377679310567,None,None,None,None,,05,001,2023_Jan_18_1304,searchDisc5,2021.2.3,60.06796450335837,
images/exp1b_trial_58_colour3_distractors4_l.png,l,1,3,4,1,,,,,0,70,70,70,,,,,,,,,,,,,,,,,,,,,,,,,,,,,,,,,,,,,,,,,,,356.76026955700945,None,2,0.9211991619959008,356.76026955700945,None,,,,,,,,,,,,,,,,None,None,None,,None,None,357.72660268400796,None,1,1,1.0385688730166294,357.72660268400796,None,358.7608091170929,None,None,None,None,,05,001,2023_Jan_18_1304,searchDisc5,2021.2.3,60.06796450335837,
images/exp1b_trial_240_colour1_distractors4_l.png,l,1,1,4,1,,,,,0,71,71,71,,,,,,,,,,,,,,,,,,,,,,,,,,,,,,,,,,,,,,,,,,,358.7790335280006,None,2,0.4229249320051167,358.7790335280006,None,,,,,,,,,,,,,,,,None,None,None,,None,None,359.24632916998235,None,1,1,0.9865088779770304,359.24632916998235,None,360.2272372320964,None,None,None,None,,05,001,2023_Jan_18_1304,searchDisc5,2021.2.3,60.06796450335837,
images/exp1b_trial_195_colour1_distractors19_r.png,r,3,1,19,1,,,,,0,72,72,72,,,,,,,,,,,,,,,,,,,,,,,,,,,,,,,,,,,,,,,,,,,360.24391141498927,None,2,0.4872430530085694,360.24391141498927,None,,,,,,,,,,,,,,,,None,None,None,,None,None,360.77730856998824,None,3,1,0.9214227040065452,360.77730856998824,None,361.69394356211126,None,None,None,None,,05,001,2023_Jan_18_1304,searchDisc5,2021.2.3,60.06796450335837,
images/exp1b_trial_50_colour1_distractors19_l.png,l,1,1,19,1,,,,,0,73,73,73,,,,,,,,,,,,,,,,,,,,,,,,,,,,,,,,,,,,,,,,,,,361.7118386749935,None,2,0.5717634389875457,361.7118386749935,None,,,,,,,,,,,,,,,,None,None,None,,None,None,362.32711037498666,None,1,1,1.06823105798685,362.32711037498666,None,363.39439261909286,None,None,None,None,,05,001,2023_Jan_18_1304,searchDisc5,2021.2.3,60.06796450335837,
images/exp1b_trial_127_colour0_distractors0_l.png,l,1,0,0,1,,,,,0,74,74,74,,,,,,,,,,,,,,,,,,,,,,,,,,,,,,,,,,,,,,,,,,,363.4127843150054,None,2,0.4703186279803049,363.4127843150054,None,,,,,,,,,,,,,,,,None,None,None,,None,None,363.92781283700606,None,1,1,1.0731718059978448,363.92781283700606,None,364.9940328901081,None,None,None,None,,05,001,2023_Jan_18_1304,searchDisc5,2021.2.3,60.06796450335837,
images/exp1b_trial_22_colour2_distractors9_l.png,l,1,2,9,1,,,,,0,75,75,75,,,,,,,,,,,,,,,,,,,,,,,,,,,,,,,,,,,,,,,,,,,365.0126970220008,None,2,0.4709711160103325,365.0126970220008,None,,,,,,,,,,,,,,,,None,None,None,,None,None,365.5270579640055,None,1,1,0.9068636579904705,365.5270579640055,None,366.4273918070918,None,None,None,None,,05,001,2023_Jan_18_1304,searchDisc5,2021.2.3,60.06796450335837,
images/exp1b_trial_64_colour1_distractors1_r.png,r,3,1,1,1,,,,,0,76,76,76,,,,,,,,,,,,,,,,,,,,,,,,,,,,,,,,,,,,,,,,,,,366.4438919129898,None,2,0.5360087430162821,366.4438919129898,None,,,,,,,,,,,,,,,,None,None,None,,None,None,367.0272801319952,None,3,1,0.9390323359984905,367.0272801319952,None,367.96077592910444,None,None,None,None,,05,001,2023_Jan_18_1304,searchDisc5,2021.2.3,60.06796450335837,
images/exp1b_trial_245_colour2_distractors4_l.png,l,1,2,4,1,,,,,0,77,77,77,,,,,,,,,,,,,,,,,,,,,,,,,,,,,,,,,,,,,,,,,,,367.9771070909919,None,2,0.48981791801634245,367.9771070909919,None,,,,,,,,,,,,,,,,None,None,None,,None,None,368.51109456599806,None,1,1,1.0200886749953497,368.51109456599806,None,369.5275837431051,None,None,None,None,,05,001,2023_Jan_18_1304,searchDisc5,2021.2.3,60.06796450335837,
images/exp1b_trial_96_colour1_distractors1_r.png,r,3,1,1,1,,,,,0,78,78,78,,,,,,,,,,,,,,,,,,,,,,,,,,,,,,,,,,,,,,,,,,,369.5441651149886,None,2,0.45667711601709016,369.5441651149886,None,,,,,,,,,,,,,,,,None,None,None,,None,None,370.0458307309891,None,3,1,0.8372643320180941,370.0458307309891,None,370.87761374709373,None,None,None,None,,05,001,2023_Jan_18_1304,searchDisc5,2021.2.3,60.06796450335837,
images/exp1b_trial_308_colour2_distractors1_l.png,l,1,2,1,1,,,,,0,79,79,79,,,,,,,,,,,,,,,,,,,,,,,,,,,,,,,,,,,,,,,,,,,370.89411915899836,None,2,0.4879000400251243,370.89411915899836,None,,,,,,,,,,,,,,,,None,None,None,,None,None,371.42921289399965,None,1,1,1.1223802450112998,371.42921289399965,None,372.54412721409756,None,None,None,None,,05,001,2023_Jan_18_1304,searchDisc5,2021.2.3,60.06796450335837,
images/exp1b_trial_158_colour0_distractors0_r.png,r,3,0,0,1,,,,,0,80,80,80,,,,,,,,,,,,,,,,,,,,,,,,,,,,,,,,,,,,,,,,,,,372.5606144350022,None,2,0.4045646929880604,372.5606144350022,None,,,,,,,,,,,,,,,,None,None,None,,None,None,373.01253836098476,None,3,1,0.9060534030140843,373.01253836098476,None,373.9109445540904,None,None,None,None,,05,001,2023_Jan_18_1304,searchDisc5,2021.2.3,60.06796450335837,
images/exp1b_trial_315_colour3_distractors9_l.png,l,1,3,9,1,,,,,0,81,81,81,,,,,,,,,,,,,,,,,,,,,,,,,,,,,,,,,,,,,,,,,,,373.9276674579887,None,2,0.5036276070168242,373.9276674579887,None,,,,,,,,,,,,,,,,None,None,None,,None,None,374.4798204689869,None,1,1,1.2198111299949232,374.4798204689869,None,375.69437911309944,None,None,None,None,,05,001,2023_Jan_18_1304,searchDisc5,2021.2.3,60.06796450335837,
images/exp1b_trial_155_colour3_distractors9_l.png,l,1,3,9,1,,,,,0,82,82,82,,,,,,,,,,,,,,,,,,,,,,,,,,,,,,,,,,,,,,,,,,,375.7109949209844,None,2,0.45664176502032205,375.7109949209844,None,,,,,,,,,,,,,,,,None,None,None,,None,None,376.2133818450093,None,1,1,1.9685405099880882,376.2133818450093,None,378.1774291241105,None,None,None,None,,05,001,2023_Jan_18_1304,searchDisc5,2021.2.3,60.06796450335837,
images/exp1b_trial_10_colour3_distractors1_r.png,r,3,3,1,1,,,,,0,83,83,83,,,,,,,,,,,,,,,,,,,,,,,,,,,,,,,,,,,,,,,,,,,378.19361104400014,None,2,0.40681480400962755,378.19361104400014,None,,,,,,,,,,,,,,,,None,None,None,,None,None,378.6467107810022,None,3,1,0.8205599729844835,378.6467107810022,None,379.4611008621083,None,None,None,None,,05,001,2023_Jan_18_1304,searchDisc5,2021.2.3,60.06796450335837,
images/exp1b_trial_47_colour1_distractors1_l.png,l,1,1,1,1,,,,,0,84,84,84,,,,,,,,,,,,,,,,,,,,,,,,,,,,,,,,,,,,,,,,,,,379.47763295299956,None,2,0.5047428839898203,379.47763295299956,None,,,,,,,,,,,,,,,,None,None,None,,None,None,380.02819568599807,None,1,1,0.9050872570078354,380.02819568599807,None,380.9280515601073,None,None,None,None,,05,001,2023_Jan_18_1304,searchDisc5,2021.2.3,60.06796450335837,
images/exp1b_trial_68_colour1_distractors31_r.png,r,3,1,31,1,,,,,0,85,85,85,,,,,,,,,,,,,,,,,,,,,,,,,,,,,,,,,,,,,,,,,,,380.9442456130055,None,2,0.4042692850052845,380.9442456130055,None,,,,,,,,,,,,,,,,None,None,None,,None,None,381.39410743300687,None,3,1,1.2511303249921184,381.39410743300687,None,382.64471196410307,None,None,None,None,,05,001,2023_Jan_18_1304,searchDisc5,2021.2.3,60.06796450335837,
images/exp1b_trial_17_colour1_distractors9_l.png,l,1,1,9,1,,,,,0,86,86,86,,,,,,,,,,,,,,,,,,,,,,,,,,,,,,,,,,,,,,,,,,,382.66103207698325,None,2,0.4585592679795809,382.66103207698325,None,,,,,,,,,,,,,,,,None,None,None,,None,None,383.1607524440042,None,1,1,1.0195527699834201,383.1607524440042,None,384.17800994110587,None,None,None,None,,05,001,2023_Jan_18_1304,searchDisc5,2021.2.3,60.06796450335837,
images/exp1b_trial_91_colour3_distractors9_l.png,l,1,3,9,1,,,,,0,87,87,87,,,,,,,,,,,,,,,,,,,,,,,,,,,,,,,,,,,,,,,,,,,384.1944547400053,None,2,0.45238882800913416,384.1944547400053,None,,,,,,,,,,,,,,,,None,None,None,,None,None,384.6948198300088,None,1,1,1.037948128010612,384.6948198300088,None,385.7279341651098,None,None,None,None,,05,001,2023_Jan_18_1304,searchDisc5,2021.2.3,60.06796450335837,
images/exp1b_trial_1_colour1_distractors4_r.png,r,3,1,4,1,,,,,0,88,88,88,,,,,,,,,,,,,,,,,,,,,,,,,,,,,,,,,,,,,,,,,,,385.74430428800406,None,2,0.42334606297663413,385.74430428800406,None,,,,,,,,,,,,,,,,None,None,None,,None,None,386.2135396460071,None,3,1,0.8700160130101722,386.2135396460071,None,387.0780722070864,None,None,None,None,,05,001,2023_Jan_18_1304,searchDisc5,2021.2.3,60.06796450335837,
images/exp1b_trial_14_colour3_distractors31_r.png,r,3,3,31,1,,,,,0,89,89,89,,,,,,,,,,,,,,,,,,,,,,,,,,,,,,,,,,,,,,,,,,,387.0966057110054,None,2,0.47309371700976044,387.0966057110054,None,,,,,,,,,,,,,,,,None,None,None,,None,None,387.61361169599695,None,3,1,1.7497560199990403,387.61361169599695,None,389.3609946410958,None,None,None,None,,05,001,2023_Jan_18_1304,searchDisc5,2021.2.3,60.06796450335837,
images/exp1b_trial_48_colour1_distractors4_l.png,l,1,1,4,1,,,,,0,90,90,90,,,,,,,,,,,,,,,,,,,,,,,,,,,,,,,,,,,,,,,,,,,389.3782956979994,None,2,0.48974659299710765,389.3782956979994,None,,,,,,,,,,,,,,,,None,None,None,,None,None,389.91117066398147,None,1,1,0.9869777210114989,389.91117066398147,None,390.8949787030957,None,None,None,None,,05,001,2023_Jan_18_1304,searchDisc5,2021.2.3,60.06796450335837,
images/exp1b_trial_130_colour1_distractors9_r.png,r,3,1,9,1,,,,,0,91,91,91,,,,,,,,,,,,,,,,,,,,,,,,,,,,,,,,,,,,,,,,,,,390.91170324000996,None,2,0.4060040499898605,390.91170324000996,None,,,,,,,,,,,,,,,,None,None,None,,None,None,391.3637340249843,None,3,1,0.7187491549993865,391.3637340249843,None,392.078103870104,None,None,None,None,,05,001,2023_Jan_18_1304,searchDisc5,2021.2.3,60.06796450335837,
images/exp1b_trial_33_colour1_distractors4_r.png,r,3,1,4,1,,,,,0,92,92,92,,,,,,,,,,,,,,,,,,,,,,,,,,,,,,,,,,,,,,,,,,,392.09419629900367,None,2,0.43784838099963963,392.09419629900367,None,,,,,,,,,,,,,,,,None,None,None,,None,None,392.5805105170002,None,3,1,1.105572280997876,392.5805105170002,None,393.67828393408274,None,None,None,None,,05,001,2023_Jan_18_1304,searchDisc5,2021.2.3,60.06796450335837,
images/exp1b_trial_126_colour0_distractors0_r.png,r,3,0,0,1,,,,,0,93,93,93,,,,,,,,,,,,,,,,,,,,,,,,,,,,,,,,,,,,,,,,,,,393.69671791998553,None,2,0.37073016198701225,393.69671791998553,None,,,,,,,,,,,,,,,,None,None,None,,None,None,394.1138971670007,None,3,1,1.8060277189943008,394.1138971670007,None,395.9115659631003,None,None,None,None,,05,001,2023_Jan_18_1304,searchDisc5,2021.2.3,60.06796450335837,
images/exp1b_trial_260_colour1_distractors31_r.png,r,3,1,31,1,,,,,0,94,94,94,,,,,,,,,,,,,,,,,,,,,,,,,,,,,,,,,,,,,,,,,,,395.9277297189983,None,2,0.3880818100005854,395.9277297189983,None,,,,,,,,,,,,,,,,None,None,None,,None,None,396.3617978069815,None,3,1,1.6008730239991564,396.3617978069815,None,397.9616272220825,None,None,None,None,,05,001,2023_Jan_18_1304,searchDisc5,2021.2.3,60.06796450335837,
images/exp1b_trial_255_colour0_distractors0_l.png,l,1,0,0,1,,,,,0,95,95,95,,,,,,,,,,,,,,,,,,,,,,,,,,,,,,,,,,,,,,,,,,,397.9777208279993,None,2,0.4550044049974531,397.9777208279993,None,,,,,,,,,,,,,,,,None,None,None,,None,None,398.48076711499016,None,1,1,0.8045536920253653,398.48076711499016,None,399.27785947308587,None,None,None,None,,05,001,2023_Jan_18_1304,searchDisc5,2021.2.3,60.06796450335837,
images/exp1b_trial_74_colour3_distractors1_r.png,r,3,3,1,1,,,,,0,96,96,96,,,,,,,,,,,,,,,,,,,,,,,,,,,,,,,,,,,,,,,,,,,399.29492347399355,None,2,0.43794656699174084,399.29492347399355,None,,,,,,,,,,,,,,,,None,None,None,,None,None,399.7787419039814,None,3,1,1.753153088997351,399.7787419039814,None,401.5285378210916,None,None,None,None,,05,001,2023_Jan_18_1304,searchDisc5,2021.2.3,60.06796450335837,
images/exp1b_trial_93_colour3_distractors31_l.png,l,1,3,31,1,,,,,0,97,97,97,,,,,,,,,,,,,,,,,,,,,,,,,,,,,,,,,,,,,,,,,,,401.54519032800454,None,2,0.5706628740008455,401.54519032800454,None,,,,,,,,,,,,,,,,None,None,None,,None,None,402.16175552800996,None,1,1,1.2184179359755944,402.16175552800996,None,403.37788806108586,None,None,None,None,,05,001,2023_Jan_18_1304,searchDisc5,2021.2.3,60.06796450335837,
images/exp1b_trial_210_colour1_distractors19_l.png,l,1,1,19,1,,,,,0,98,98,98,,,,,,,,,,,,,,,,,,,,,,,,,,,,,,,,,,,,,,,,,,,403.3952312319889,None,2,0.38837874901946634,403.3952312319889,None,,,,,,,,,,,,,,,,None,None,None,,None,None,403.8286019579973,None,1,1,1.5200701720023062,403.8286019579973,None,405.345300105089,None,None,None,None,,05,001,2023_Jan_18_1304,searchDisc5,2021.2.3,60.06796450335837,
images/exp1b_trial_280_colour2_distractors31_l.png,l,1,2,31,1,,,,,0,99,99,99,,,,,,,,,,,,,,,,,,,,,,,,,,,,,,,,,,,,,,,,,,,405.3613190430042,None,2,0.3711349869845435,405.3613190430042,None,,,,,,,,,,,,,,,,None,None,None,,None,None,405.7807878899912,None,1,1,0.9367980449751485,405.7807878899912,None,406.7119406740909,None,None,None,None,,05,001,2023_Jan_18_1304,searchDisc5,2021.2.3,60.06796450335837,
images/exp1b_trial_27_colour3_distractors9_l.png,l,1,3,9,1,,,,,0,100,100,100,,,,,,,,,,,,,,,,,,,,,,,,,,,,,,,,,,,,,,,,,,,406.7285328989965,None,2,0.32315678999293596,406.7285328989965,None,,,,,,,,,,,,,,,,None,None,None,,None,None,407.0974162539933,None,1,1,1.9857594880159013,407.0974162539933,None,409.07869765710495,None,None,None,None,,05,001,2023_Jan_18_1304,searchDisc5,2021.2.3,60.06796450335837,
images/exp1b_trial_229_colour2_distractors1_r.png,r,3,2,1,1,,,,,0,101,101,101,,,,,,,,,,,,,,,,,,,,,,,,,,,,,,,,,,,,,,,,,,,409.09535060299095,None,2,0.4566044300154317,409.09535060299095,None,,,,,,,,,,,,,,,,None,None,None,,None,None,409.59727918100543,None,3,1,0.8369397060014307,409.59727918100543,None,410.4287558671,None,None,None,None,,05,001,2023_Jan_18_1304,searchDisc5,2021.2.3,60.06796450335837,
images/exp1b_trial_309_colour2_distractors4_l.png,l,1,2,4,1,,,,,0,102,102,102,,,,,,,,,,,,,,,,,,,,,,,,,,,,,,,,,,,,,,,,,,,410.44767715298804,None,2,0.4376931549923029,410.44767715298804,None,,,,,,,,,,,,,,,,None,None,None,,None,None,410.92844660399714,None,1,1,0.9224974300013855,410.92844660399714,None,411.8454505291098,None,None,None,None,,05,001,2023_Jan_18_1304,searchDisc5,2021.2.3,60.06796450335837,
images/exp1b_trial_202_colour3_distractors1_r.png,r,3,3,1,1,,,,,0,103,103,103,,,,,,,,,,,,,,,,,,,,,,,,,,,,,,,,,,,,,,,,,,,411.8629537319939,None,2,0.4877988809894305,411.8629537319939,None,,,,,,,,,,,,,,,,None,None,None,,None,None,412.39764550401014,None,3,1,0.8555755839915946,412.39764550401014,None,413.2453863720963,None,None,None,None,,05,001,2023_Jan_18_1304,searchDisc5,2021.2.3,60.06796450335837,
images/exp1b_trial_261_colour2_distractors1_r.png,r,3,2,1,1,,,,,0,104,104,104,,,,,,,,,,,,,,,,,,,,,,,,,,,,,,,,,,,,,,,,,,,413.26212735299487,None,2,0.5724490559950937,413.26212735299487,None,,,,,,,,,,,,,,,,None,None,None,,None,None,413.8812096279871,None,3,1,1.7872604360163677,413.8812096279871,None,415.6613032480906,None,None,None,None,,05,001,2023_Jan_18_1304,searchDisc5,2021.2.3,60.06796450335837,
images/exp1b_trial_214_colour2_distractors9_l.png,l,1,2,9,1,,,,,0,105,105,105,,,,,,,,,,,,,,,,,,,,,,,,,,,,,,,,,,,,,,,,,,,415.6798258269846,None,2,0.6211302299925592,415.6798258269846,None,,,,,,,,,,,,,,,,None,None,None,,None,None,416.34830330198747,None,1,1,0.9066132550069597,416.34830330198747,None,417.2464905410976,None,None,None,None,,05,001,2023_Jan_18_1304,searchDisc5,2021.2.3,60.06796450335837,
images/exp1b_trial_144_colour1_distractors4_l.png,l,1,1,4,1,,,,,0,106,106,106,,,,,,,,,,,,,,,,,,,,,,,,,,,,,,,,,,,,,,,,,,,417.26224278999143,None,2,0.3736932259926107,417.26224278999143,None,,,,,,,,,,,,,,,,None,None,None,,None,None,417.6817388079944,None,1,1,1.5852645260165446,417.6817388079944,None,419.2624200240913,None,None,None,None,,05,001,2023_Jan_18_1304,searchDisc5,2021.2.3,60.06796450335837,
images/exp1b_trial_147_colour1_distractors31_l.png,l,1,1,31,1,,,,,0,107,107,107,,,,,,,,,,,,,,,,,,,,,,,,,,,,,,,,,,,,,,,,,,,419.2810625729908,None,2,0.4379220480041113,419.2810625729908,None,,,,,,,,,,,,,,,,None,None,None,,None,None,419.7635756689997,None,1,1,1.5354669649968855,419.7635756689997,None,421.2957244321093,None,None,None,None,,05,001,2023_Jan_18_1304,searchDisc5,2021.2.3,60.06796450335837,
images/exp1b_trial_306_colour1_distractors19_l.png,l,1,1,19,1,,,,,0,108,108,108,,,,,,,,,,,,,,,,,,,,,,,,,,,,,,,,,,,,,,,,,,,421.3129686159955,None,2,0.8389351220102981,421.3129686159955,None,,,,,,,,,,,,,,,,None,None,None,,None,None,422.1958259079838,None,1,1,1.519594733021222,422.1958259079838,None,423.7124396480882,None,None,None,None,,05,001,2023_Jan_18_1304,searchDisc5,2021.2.3,60.06796450335837,
images/exp1b_trial_78_colour3_distractors31_r.png,r,3,3,31,1,,,,,0,109,109,109,,,,,,,,,,,,,,,,,,,,,,,,,,,,,,,,,,,,,,,,,,,423.72970021900255,None,2,0.47202826698776335,423.72970021900255,None,,,,,,,,,,,,,,,,None,None,None,,None,None,424.24747178299003,None,3,1,1.702113264997024,424.24747178299003,None,425.9459067921067,None,None,None,None,,05,001,2023_Jan_18_1304,searchDisc5,2021.2.3,60.06796450335837,
images/exp1b_trial_85_colour2_distractors4_l.png,l,1,2,4,1,,,,,0,110,110,110,,,,,,,,,,,,,,,,,,,,,,,,,,,,,,,,,,,,,,,,,,,425.9631954689976,None,2,0.854581061983481,425.9631954689976,None,,,,,,,,,,,,,,,,None,None,None,,None,None,426.8658246769919,None,1,1,0.9727164119831286,426.8658246769919,None,427.83006281208657,None,None,None,None,,05,001,2023_Jan_18_1304,searchDisc5,2021.2.3,60.06796450335837,
images/exp1b_trial_70_colour2_distractors4_r.png,r,3,2,4,1,,,,,0,111,111,111,,,,,,,,,,,,,,,,,,,,,,,,,,,,,,,,,,,,,,,,,,,427.8457813799905,None,2,0.48717698600376025,427.8457813799905,None,,,,,,,,,,,,,,,,None,None,None,,None,None,428.3794830289844,None,3,1,0.7381080409977585,428.3794830289844,None,429.1119084950857,None,None,None,None,,05,001,2023_Jan_18_1304,searchDisc5,2021.2.3,60.06796450335837,
images/exp1b_trial_191_colour0_distractors0_l.png,l,1,0,0,1,,,,,0,112,112,112,,,,,,,,,,,,,,,,,,,,,,,,,,,,,,,,,,,,,,,,,,,429.1312805939815,None,2,0.5052623369847424,429.1312805939815,None,,,,,,,,,,,,,,,,None,None,None,,None,None,429.6816137860005,None,1,1,0.7889076989958994,429.6816137860005,None,430.4625949701091,None,None,None,None,,05,001,2023_Jan_18_1304,searchDisc5,2021.2.3,60.06796450335837,
images/exp1b_trial_279_colour2_distractors19_l.png,l,1,2,19,1,,,,,0,113,113,113,,,,,,,,,,,,,,,,,,,,,,,,,,,,,,,,,,,,,,,,,,,430.4791152359976,None,2,0.4576798260095529,430.4791152359976,None,,,,,,,,,,,,,,,,None,None,None,,None,None,430.9824252469989,None,1,1,2.1700849829940125,430.9824252469989,None,433.1481430950895,None,None,None,None,,05,001,2023_Jan_18_1304,searchDisc5,2021.2.3,60.06796450335837,
images/exp1b_trial_20_colour2_distractors1_l.png,l,1,2,1,1,,,,,0,114,114,114,,,,,,,,,,,,,,,,,,,,,,,,,,,,,,,,,,,,,,,,,,,433.16547710998566,None,2,0.5885319049993996,433.16547710998566,None,,,,,,,,,,,,,,,,None,None,None,,None,None,433.7983540770074,None,1,1,1.005396926018875,433.7983540770074,None,434.7982854090893,None,None,None,None,,05,001,2023_Jan_18_1304,searchDisc5,2021.2.3,60.06796450335837,
images/exp1b_trial_179_colour1_distractors31_l.png,l,1,1,31,1,,,,,0,115,115,115,,,,,,,,,,,,,,,,,,,,,,,,,,,,,,,,,,,,,,,,,,,434.8131299490051,None,2,0.3884600790042896,434.8131299490051,None,,,,,,,,,,,,,,,,None,None,None,,None,None,435.24953946398455,None,1,1,0.8657324139785487,435.24953946398455,None,436.11278715710216,None,None,None,None,,05,001,2023_Jan_18_1304,searchDisc5,2021.2.3,60.06796450335837,
images/exp1b_trial_19_colour1_distractors31_l.png,l,1,1,31,1,,,,,0,116,116,116,,,,,,,,,,,,,,,,,,,,,,,,,,,,,,,,,,,,,,,,,,,436.1294514129986,None,2,0.6378167479997501,436.1294514129986,None,,,,,,,,,,,,,,,,None,None,None,,None,None,436.8148140849953,None,1,1,1.1186128779954743,436.8148140849953,None,437.92966941209454,None,None,None,None,,05,001,2023_Jan_18_1304,searchDisc5,2021.2.3,60.06796450335837,
images/exp1b_trial_313_colour3_distractors1_l.png,l,1,3,1,1,,,,,0,117,117,117,,,,,,,,,,,,,,,,,,,,,,,,,,,,,,,,,,,,,,,,,,,437.9472541490104,None,2,0.4740403850155417,437.9472541490104,None,,,,,,,,,,,,,,,,None,None,None,,None,None,438.46443116498995,None,1,1,0.8362470179854427,438.46443116498995,None,439.2961133291043,None,None,None,None,,05,001,2023_Jan_18_1304,searchDisc5,2021.2.3,60.06796450335837,
images/exp1b_trial_237_colour3_distractors19_r.png,r,3,3,19,1,,,,,0,118,118,118,,,,,,,,,,,,,,,,,,,,,,,,,,,,,,,,,,,,,,,,,,,439.31302790899645,None,2,0.441059036005754,439.31302790899645,None,,,,,,,,,,,,,,,,None,None,None,,None,None,439.7995660089946,None,3,1,0.9833125050063245,439.7995660089946,None,440.77951493708827,None,None,None,None,,05,001,2023_Jan_18_1304,searchDisc5,2021.2.3,60.06796450335837,
images/exp1b_trial_128_colour1_distractors1_r.png,r,3,1,1,1,,,,,0,119,119,119,,,,,,,,,,,,,,,,,,,,,,,,,,,,,,,,,,,,,,,,,,,440.79883304200484,None,2,0.6076493900036439,440.79883304200484,None,,,,,,,,,,,,,,,,None,None,None,,None,None,441.4492526969989,None,1,0,0.9030755790008698,441.4492526969989,None,442.3463278020878,None,None,None,None,,05,001,2023_Jan_18_1304,searchDisc5,2021.2.3,60.06796450335837,
images/exp1b_trial_4_colour1_distractors31_r.png,r,3,1,31,1,,,,,0,120,120,120,,,,,,,,,,,,,,,,,,,,,,,,,,,,,,,,,,,,,,,,,,,442.36218649998773,None,2,5.0711792040092405,442.36218649998773,None,,,,,,,,,,,,,,,,None,None,None,,None,None,447.4802604499855,None,3,1,2.6178361130005214,447.4802604499855,None,450.09642018608577,None,None,None,None,,05,001,2023_Jan_18_1304,searchDisc5,2021.2.3,60.06796450335837,
images/exp1b_trial_6_colour2_distractors4_r.png,r,3,2,4,1,,,,,0,121,121,121,,,,,,,,,,,,,,,,,,,,,,,,,,,,,,,,,,,,,,,,,,,450.11398240199196,None,2,0.5370466400054283,450.11398240199196,None,,,,,,,,,,,,,,,,None,None,None,,None,None,450.6971386609948,None,3,1,1.0559175309899729,450.6971386609948,None,451.74655425208914,None,None,None,None,,05,001,2023_Jan_18_1304,searchDisc5,2021.2.3,60.06796450335837,
images/exp1b_trial_100_colour1_distractors31_r.png,r,3,1,31,1,,,,,0,122,122,122,,,,,,,,,,,,,,,,,,,,,,,,,,,,,,,,,,,,,,,,,,,451.76618645200506,None,2,0.48789474298246205,451.76618645200506,None,,,,,,,,,,,,,,,,None,None,None,,None,None,452.2975525619986,None,3,1,0.9871666909893975,452.2975525619986,None,453.28241978211156,None,None,None,None,,05,001,2023_Jan_18_1304,searchDisc5,2021.2.3,60.06796450335837,
images/exp1b_trial_271_colour1_distractors1_l.png,l,1,1,1,1,,,,,0,123,123,123,,,,,,,,,,,,,,,,,,,,,,,,,,,,,,,,,,,,,,,,,,,453.29960917000426,None,2,0.5014286559890024,453.29960917000426,None,,,,,,,,,,,,,,,,None,None,None,,None,None,453.84957527098595,None,1,1,0.9232417890161742,453.84957527098595,None,454.7632678361057,None,None,None,None,,05,001,2023_Jan_18_1304,searchDisc5,2021.2.3,60.06796450335837,
images/exp1b_trial_140_colour3_distractors9_r.png,r,3,3,9,1,,,,,0,124,124,124,,,,,,,,,,,,,,,,,,,,,,,,,,,,,,,,,,,,,,,,,,,454.78050053698826,None,2,0.4378575489972718,454.78050053698826,None,,,,,,,,,,,,,,,,None,None,None,,None,None,455.2637395290076,None,3,1,1.2873520890134387,455.2637395290076,None,456.54670347509966,None,None,None,None,,05,001,2023_Jan_18_1304,searchDisc5,2021.2.3,60.06796450335837,
images/exp1b_trial_32_colour1_distractors1_r.png,r,3,1,1,1,,,,,0,125,125,125,,,,,,,,,,,,,,,,,,,,,,,,,,,,,,,,,,,,,,,,,,,456.5641267489991,None,2,0.45728557600523345,456.5641267489991,None,,,,,,,,,,,,,,,,None,None,None,,None,None,457.06361318798736,None,3,1,0.8528823030064814,457.06361318798736,None,457.9133745420928,None,None,None,None,,05,001,2023_Jan_18_1304,searchDisc5,2021.2.3,60.06796450335837,
images/exp1b_trial_94_colour0_distractors0_r.png,r,3,0,0,1,,,,,0,126,126,126,,,,,,,,,,,,,,,,,,,,,,,,,,,,,,,,,,,,,,,,,,,457.93049363899627,None,2,0.4886957219860051,457.93049363899627,None,,,,,,,,,,,,,,,,None,None,None,,None,None,458.4653990220104,None,3,1,0.8048966880014632,458.4653990220104,None,459.26336502709603,None,None,None,None,,05,001,2023_Jan_18_1304,searchDisc5,2021.2.3,60.06796450335837,
images/exp1b_trial_115_colour1_distractors31_l.png,l,1,1,31,1,,,,,0,127,127,127,,,,,,,,,,,,,,,,,,,,,,,,,,,,,,,,,,,,,,,,,,,459.28016046699486,None,2,0.5223619290045463,459.28016046699486,None,,,,,,,,,,,,,,,,None,None,None,,None,None,459.84736842798884,None,1,1,1.0180089169880375,459.84736842798884,None,460.8633796490991,None,None,None,None,,05,001,2023_Jan_18_1304,searchDisc5,2021.2.3,60.06796450335837,
images/exp1b_trial_46_colour3_distractors31_r.png,r,3,3,31,1,,,,,0,128,128,128,,,,,,,,,,,,,,,,,,,,,,,,,,,,,,,,,,,,,,,,,,,460.88038237,None,2,0.5375785620126408,460.88038237,None,,,,,,,,,,,,,,,,None,None,None,,None,None,461.46558905698475,None,3,1,1.5524854509858415,461.46558905698475,None,463.01343110108576,None,None,None,None,,05,001,2023_Jan_18_1304,searchDisc5,2021.2.3,60.06796450335837,
images/exp1b_trial_151_colour2_distractors19_l.png,l,1,2,19,1,,,,,0,129,129,129,,,,,,,,,,,,,,,,,,,,,,,,,,,,,,,,,,,,,,,,,,,463.0309718979988,None,2,0.5553049310110509,463.0309718979988,None,,,,,,,,,,,,,,,,None,None,None,,None,None,463.63249459900544,None,1,1,1.3194158489932306,463.63249459900544,None,464.94720336909234,None,None,None,None,,05,001,2023_Jan_18_1304,searchDisc5,2021.2.3,60.06796450335837,
images/exp1b_trial_2_colour1_distractors9_r.png,r,3,1,9,1,,,,,0,130,130,130,,,,,,,,,,,,,,,,,,,,,,,,,,,,,,,,,,,,,,,,,,,464.96398909398704,None,2,0.43796273198677227,464.96398909398704,None,,,,,,,,,,,,,,,,None,None,None,,None,None,465.4473682740063,None,3,1,1.0694823689991608,465.4473682740063,None,466.5131771671091,None,None,None,None,,05,001,2023_Jan_18_1304,searchDisc5,2021.2.3,60.06796450335837,
images/exp1b_trial_187_colour3_distractors9_l.png,l,1,3,9,1,,,,,0,131,131,131,,,,,,,,,,,,,,,,,,,,,,,,,,,,,,,,,,,,,,,,,,,466.5296418030048,None,2,0.45715858301264234,466.5296418030048,None,,,,,,,,,,,,,,,,None,None,None,,None,None,467.03270337800495,None,1,1,1.134887352003716,467.03270337800495,None,468.16313573008813,None,None,None,None,,05,001,2023_Jan_18_1304,searchDisc5,2021.2.3,60.06796450335837,
images/exp1b_trial_118_colour2_distractors9_l.png,l,1,2,9,1,,,,,0,132,132,132,,,,,,,,,,,,,,,,,,,,,,,,,,,,,,,,,,,,,,,,,,,468.18342691400903,None,2,0.48860832198988646,468.18342691400903,None,,,,,,,,,,,,,,,,None,None,None,,None,None,468.7139032789855,None,1,1,1.0721885829989333,468.7139032789855,None,469.7813301560906,None,None,None,None,,05,001,2023_Jan_18_1304,searchDisc5,2021.2.3,60.06796450335837,
images/exp1b_trial_226_colour1_distractors9_r.png,r,3,1,9,1,,,,,0,133,133,133,,,,,,,,,,,,,,,,,,,,,,,,,,,,,,,,,,,,,,,,,,,469.79806223799824,None,2,0.4367184150032699,469.79806223799824,None,,,,,,,,,,,,,,,,None,None,None,,None,None,470.28366565098986,None,3,1,1.23757744798786,470.28366565098986,None,471.5139032811072,None,None,None,None,,05,001,2023_Jan_18_1304,searchDisc5,2021.2.3,60.06796450335837,
images/exp1b_trial_49_colour1_distractors9_l.png,l,1,1,9,1,,,,,0,134,134,134,,,,,,,,,,,,,,,,,,,,,,,,,,,,,,,,,,,,,,,,,,,471.5308884810074,None,2,0.58727108000312,471.5308884810074,None,,,,,,,,,,,,,,,,None,None,None,,None,None,472.164496279991,None,1,1,1.054586615995504,472.164496279991,None,473.21389662609147,None,None,None,None,,05,001,2023_Jan_18_1304,searchDisc5,2021.2.3,60.06796450335837,
images/exp1b_trial_188_colour3_distractors19_l.png,l,1,3,19,1,,,,,0,135,135,135,,,,,,,,,,,,,,,,,,,,,,,,,,,,,,,,,,,,,,,,,,,473.2311433519935,None,2,0.5545658509945497,473.2311433519935,None,,,,,,,,,,,,,,,,None,None,None,,None,None,473.83122836600523,None,1,1,3.0882633540022653,473.83122836600523,None,476.9139710680844,None,None,None,None,,05,001,2023_Jan_18_1304,searchDisc5,2021.2.3,60.06796450335837,
images/exp1b_trial_99_colour1_distractors19_r.png,r,3,1,19,1,,,,,0,136,136,136,,,,,,,,,,,,,,,,,,,,,,,,,,,,,,,,,,,,,,,,,,,476.9305865119968,None,2,0.37007288201129995,476.9305865119968,None,,,,,,,,,,,,,,,,None,None,None,,None,None,477.34739232898573,None,3,1,0.7843649150163401,477.34739232898573,None,478.13073308609603,None,None,None,None,,05,001,2023_Jan_18_1304,searchDisc5,2021.2.3,60.06796450335837,
images/exp1b_trial_258_colour1_distractors9_r.png,r,3,1,9,1,,,,,0,137,137,137,,,,,,,,,,,,,,,,,,,,,,,,,,,,,,,,,,,,,,,,,,,478.14830136299133,None,2,0.37178968399530277,478.14830136299133,None,,,,,,,,,,,,,,,,None,None,None,,None,None,478.5652590729878,None,3,1,0.9865053110115696,478.5652590729878,None,479.5473310850881,None,None,None,None,,05,001,2023_Jan_18_1304,searchDisc5,2021.2.3,60.06796450335837,
images/exp1b_trial_73_colour2_distractors31_r.png,r,3,2,31,1,,,,,0,138,138,138,,,,,,,,,,,,,,,,,,,,,,,,,,,,,,,,,,,,,,,,,,,479.563805999991,None,2,0.388773859012872,479.563805999991,None,,,,,,,,,,,,,,,,None,None,None,,None,None,480.000470295985,None,3,1,1.2024731359852012,480.000470295985,None,481.1972129781003,None,None,None,None,,05,001,2023_Jan_18_1304,searchDisc5,2021.2.3,60.06796450335837,
images/exp1b_trial_167_colour2_distractors9_r.png,r,3,2,9,1,,,,,0,139,139,139,,,,,,,,,,,,,,,,,,,,,,,,,,,,,,,,,,,,,,,,,,,481.21687408999423,None,2,0.33852775901323184,481.21687408999423,None,,,,,,,,,,,,,,,,None,None,None,,None,None,481.6003350469982,None,3,1,1.1368880070222076,481.6003350469982,None,482.7307522251009,None,None,None,None,,05,001,2023_Jan_18_1304,searchDisc5,2021.2.3,60.06796450335837,
images/exp1b_trial_219_colour3_distractors9_l.png,l,1,3,9,1,,,,,0,140,140,140,,,,,,,,,,,,,,,,,,,,,,,,,,,,,,,,,,,,,,,,,,,482.7495673169906,None,2,0.3387587039906066,482.7495673169906,None,,,,,,,,,,,,,,,,None,None,None,,None,None,483.1330502089986,None,1,1,1.236915561981732,483.1330502089986,None,484.3642550470919,None,None,None,None,,05,001,2023_Jan_18_1304,searchDisc5,2021.2.3,60.06796450335837,
images/exp1b_trial_252_colour3_distractors19_l.png,l,1,3,19,1,,,,,0,141,141,141,,,,,,,,,,,,,,,,,,,,,,,,,,,,,,,,,,,,,,,,,,,484.38342832098715,None,2,1.2404299759946298,484.38342832098715,None,,,,,,,,,,,,,,,,None,None,None,,None,None,485.66519560699817,None,1,1,2.38269503499032,485.66519560699817,None,488.0475831260934,None,None,None,None,,05,001,2023_Jan_18_1304,searchDisc5,2021.2.3,60.06796450335837,
images/exp1b_trial_257_colour1_distractors4_r.png,r,3,1,4,1,,,,,0,142,142,142,,,,,,,,,,,,,,,,,,,,,,,,,,,,,,,,,,,,,,,,,,,488.06497555199894,None,2,0.38783724600216374,488.06497555199894,None,,,,,,,,,,,,,,,,None,None,None,,None,None,488.50075601699064,None,3,1,1.289671720995102,488.50075601699064,None,489.7819865951111,None,None,None,None,,05,001,2023_Jan_18_1304,searchDisc5,2021.2.3,60.06796450335837,
images/exp1b_trial_129_colour1_distractors4_r.png,r,3,1,4,1,,,,,0,143,143,143,,,,,,,,,,,,,,,,,,,,,,,,,,,,,,,,,,,,,,,,,,,489.7976095060003,None,2,0.4394410370150581,489.7976095060003,None,,,,,,,,,,,,,,,,None,None,None,,None,None,490.28106246399693,None,3,1,0.819239345000824,490.28106246399693,None,491.09769080810077,None,None,None,None,,05,001,2023_Jan_18_1304,searchDisc5,2021.2.3,60.06796450335837,
images/exp1b_trial_185_colour3_distractors1_l.png,l,1,3,1,1,,,,,0,144,144,144,,,,,,,,,,,,,,,,,,,,,,,,,,,,,,,,,,,,,,,,,,,491.11400438300916,None,2,0.3385678159829695,491.11400438300916,None,,,,,,,,,,,,,,,,None,None,None,,None,None,491.50063815599424,None,1,1,0.8547565449844114,491.50063815599424,None,492.34723982908474,None,None,None,None,,05,001,2023_Jan_18_1304,searchDisc5,2021.2.3,60.06796450335837,
images/exp1b_trial_233_colour2_distractors31_r.png,r,3,2,31,1,,,,,0,145,145,145,,,,,,,,,,,,,,,,,,,,,,,,,,,,,,,,,,,,,,,,,,,492.36449375300435,None,2,0.47163876800914295,492.36449375300435,None,,,,,,,,,,,,,,,,None,None,None,,None,None,492.88398813598906,None,3,1,0.9367836320016067,492.88398813598906,None,493.8143722090841,None,None,None,None,,05,001,2023_Jan_18_1304,searchDisc5,2021.2.3,60.06796450335837,
images/exp1b_trial_269_colour3_distractors19_r.png,r,3,3,19,1,,,,,0,146,146,146,,,,,,,,,,,,,,,,,,,,,,,,,,,,,,,,,,,,,,,,,,,493.83145519698155,None,2,0.4242741469934117,493.83145519698155,None,,,,,,,,,,,,,,,,None,None,None,,None,None,494.29998208399047,None,3,1,0.9505937700159848,494.29998208399047,None,495.2488376911002,None,None,None,None,,05,001,2023_Jan_18_1304,searchDisc5,2021.2.3,60.06796450335837,
images/exp1b_trial_301_colour3_distractors19_r.png,r,3,3,19,1,,,,,0,147,147,147,,,,,,,,,,,,,,,,,,,,,,,,,,,,,,,,,,,,,,,,,,,495.2651098839997,None,2,0.38782756199361756,495.2651098839997,None,,,,,,,,,,,,,,,,None,None,None,,None,None,495.6989700929844,None,3,1,0.9185991669946816,495.6989700929844,None,496.61439564708564,None,None,None,None,,05,001,2023_Jan_18_1304,searchDisc5,2021.2.3,60.06796450335837,
images/exp1b_trial_273_colour1_distractors9_l.png,l,1,1,9,1,,,,,0,148,148,148,,,,,,,,,,,,,,,,,,,,,,,,,,,,,,,,,,,,,,,,,,,496.6318914729927,None,2,0.4375366290041711,496.6318914729927,None,,,,,,,,,,,,,,,,None,None,None,,None,None,497.11532051398535,None,1,1,0.8212093680049293,497.11532051398535,None,497.9311531150976,None,None,None,None,,05,001,2023_Jan_18_1304,searchDisc5,2021.2.3,60.06796450335837,
images/exp1b_trial_277_colour2_distractors4_l.png,l,1,2,4,1,,,,,0,149,149,149,,,,,,,,,,,,,,,,,,,,,,,,,,,,,,,,,,,,,,,,,,,497.948278300988,None,2,1.1068706399819348,497.948278300988,None,,,,,,,,,,,,,,,,None,None,None,,None,None,499.0981795169937,None,1,1,1.2692796810006257,499.0981795169937,None,500.36420654509277,None,None,None,None,,05,001,2023_Jan_18_1304,searchDisc5,2021.2.3,60.06796450335837,
images/exp1b_trial_207_colour1_distractors1_l.png,l,1,1,1,1,,,,,0,150,150,150,,,,,,,,,,,,,,,,,,,,,,,,,,,,,,,,,,,,,,,,,,,500.3815473119903,None,2,0.4877792839834001,500.3815473119903,None,,,,,,,,,,,,,,,,None,None,None,,None,None,500.91536836800515,None,1,1,0.9556974679871928,500.91536836800515,None,501.8646149440989,None,None,None,None,,05,001,2023_Jan_18_1304,searchDisc5,2021.2.3,60.06796450335837,
images/exp1b_trial_3_colour1_distractors19_r.png,r,3,1,19,1,,,,,0,151,151,151,,,,,,,,,,,,,,,,,,,,,,,,,,,,,,,,,,,,,,,,,,,501.88225873099873,None,2,0.35727479102206416,501.88225873099873,None,,,,,,,,,,,,,,,,None,None,None,,None,None,502.2846099860035,None,3,1,0.851386806985829,502.2846099860035,None,503.1313220711105,None,None,None,None,,05,001,2023_Jan_18_1304,searchDisc5,2021.2.3,60.06796450335837,
images/exp1b_trial_131_colour1_distractors19_r.png,r,3,1,19,1,,,,,0,152,152,152,,,,,,,,,,,,,,,,,,,,,,,,,,,,,,,,,,,,,,,,,,,503.1479042719875,None,2,0.4222010339726694,503.1479042719875,None,,,,,,,,,,,,,,,,None,None,None,,None,None,503.6179195859877,None,3,1,0.902307575015584,503.6179195859877,None,504.51589314410523,None,None,None,None,,05,001,2023_Jan_18_1304,searchDisc5,2021.2.3,60.06796450335837,
images/exp1b_trial_275_colour1_distractors31_l.png,l,1,1,31,1,,,,,0,153,153,153,,,,,,,,,,,,,,,,,,,,,,,,,,,,,,,,,,,,,,,,,,,504.53216900100233,None,2,0.4731952899892349,504.53216900100233,None,,,,,,,,,,,,,,,,None,None,None,,None,None,505.0479734620021,None,1,1,0.8148569150071125,505.0479734620021,None,505.8640691101115,None,None,None,None,,05,001,2023_Jan_18_1304,searchDisc5,2021.2.3,60.06796450335837,
images/exp1b_trial_89_colour3_distractors1_l.png,l,1,3,1,1,,,,,0,154,154,154,,,,,,,,,,,,,,,,,,,,,,,,,,,,,,,,,,,,,,,,,,,505.8823481409927,None,2,0.35527779601397924,505.8823481409927,None,,,,,,,,,,,,,,,,None,None,None,,None,None,506.28198890699423,None,1,1,0.8224631329940166,506.28198890699423,None,507.0980931811006,None,None,None,None,,05,001,2023_Jan_18_1304,searchDisc5,2021.2.3,60.06796450335837,
images/exp1b_trial_119_colour2_distractors19_l.png,l,1,2,19,1,,,,,0,155,155,155,,,,,,,,,,,,,,,,,,,,,,,,,,,,,,,,,,,,,,,,,,,507.1176075330004,None,2,0.3731445809826255,507.1176075330004,None,,,,,,,,,,,,,,,,None,None,None,,None,None,507.53478427400114,None,1,1,0.8363406909920741,507.53478427400114,None,508.36580305008977,None,None,None,None,,05,001,2023_Jan_18_1304,searchDisc5,2021.2.3,60.06796450335837,
images/exp1b_trial_110_colour3_distractors31_r.png,r,3,3,31,1,,,,,0,156,156,156,,,,,,,,,,,,,,,,,,,,,,,,,,,,,,,,,,,,,,,,,,,508.3821814979892,None,2,0.35577047400875017,508.3821814979892,None,,,,,,,,,,,,,,,,None,None,None,,None,None,508.7817318449961,None,3,1,1.020632810977986,508.7817318449961,None,509.7992274811055,None,None,None,None,,05,001,2023_Jan_18_1304,searchDisc5,2021.2.3,60.06796450335837,
images/exp1b_trial_23_colour2_distractors19_l.png,l,1,2,19,1,,,,,0,157,157,157,,,,,,,,,,,,,,,,,,,,,,,,,,,,,,,,,,,,,,,,,,,509.8148207709892,None,2,0.3680747379839886,509.8148207709892,None,,,,,,,,,,,,,,,,None,None,None,,None,None,510.23424258700106,None,1,1,0.887205849023303,510.23424258700106,None,511.1149928560859,None,None,None,None,,05,001,2023_Jan_18_1304,searchDisc5,2021.2.3,60.06796450335837,
images/exp1b_trial_35_colour1_distractors19_r.png,r,3,1,19,1,,,,,0,158,158,158,,,,,,,,,,,,,,,,,,,,,,,,,,,,,,,,,,,,,,,,,,,511.13225899700774,None,2,0.30457507399842143,511.13225899700774,None,,,,,,,,,,,,,,,,None,None,None,,None,None,511.4817886739911,None,3,1,0.9029033640108537,511.4817886739911,None,512.3815552221,None,None,None,None,,05,001,2023_Jan_18_1304,searchDisc5,2021.2.3,60.06796450335837,
images/exp1b_trial_42_colour3_distractors1_r.png,r,3,3,1,1,,,,,0,159,159,159,,,,,,,,,,,,,,,,,,,,,,,,,,,,,,,,,,,,,,,,,,,512.3982546110055,None,2,0.3551217869971879,512.3982546110055,None,,,,,,,,,,,,,,,,None,None,None,,None,None,512.8008068570052,None,3,1,1.0713878120004665,512.8008068570052,None,513.8646999191056,None,None,None,None,,05,001,2023_Jan_18_1304,searchDisc5,2021.2.3,60.06796450335837,
images/exp1b_trial_145_colour1_distractors9_l.png,l,1,1,9,1,,,,,0,160,160,160,,,,,,,,,,,,,,,,,,,,,,,,,,,,,,,,,,,,,,,,,,,513.8819782710052,None,2,0.3214482500043232,513.8819782710052,None,,,,,,,,,,,,,,,,None,None,None,,None,None,514.2485060949984,None,1,1,1.4710791679972317,514.2485060949984,None,515.7150051180885,None,None,None,None,,05,001,2023_Jan_18_1304,searchDisc5,2021.2.3,60.06796450335837,
images/exp1b_trial_286_colour0_distractors0_r.png,r,3,0,0,1,,,,,0,161,161,161,,,,,,,,,,,,,,,,,,,,,,,,,,,,,,,,,,,,,,,,,,,515.7316835189995,None,2,0.38903460901929066,515.7316835189995,None,,,,,,,,,,,,,,,,None,None,None,,None,None,516.1653208360076,None,3,1,0.6382866619969718,516.1653208360076,None,516.7983975490876,None,None,None,None,,05,001,2023_Jan_18_1304,searchDisc5,2021.2.3,60.06796450335837,
images/exp1b_trial_173_colour3_distractors19_r.png,r,3,3,19,1,,,,,0,162,162,162,,,,,,,,,,,,,,,,,,,,,,,,,,,,,,,,,,,,,,,,,,,516.815191525995,None,2,0.3386066690145526,516.815191525995,None,,,,,,,,,,,,,,,,None,None,None,,None,None,517.1994950329827,None,3,1,0.7861744039983023,517.1994950329827,None,517.9814777010848,None,None,None,None,,05,001,2023_Jan_18_1304,searchDisc5,2021.2.3,60.06796450335837,
images/exp1b_trial_288_colour1_distractors1_r.png,r,3,1,1,1,,,,,0,163,163,163,,,,,,,,,,,,,,,,,,,,,,,,,,,,,,,,,,,,,,,,,,,517.9990681860072,None,2,0.32224364901776426,517.9990681860072,None,,,,,,,,,,,,,,,,None,None,None,,None,None,518.3644250799844,None,3,1,0.7381104069936555,518.3644250799844,None,519.0983961781109,None,None,None,None,,05,001,2023_Jan_18_1304,searchDisc5,2021.2.3,60.06796450335837,
images/exp1b_trial_53_colour2_distractors4_l.png,l,1,2,4,1,,,,,0,164,164,164,,,,,,,,,,,,,,,,,,,,,,,,,,,,,,,,,,,,,,,,,,,519.1152408100024,None,2,0.32412060402566567,519.1152408100024,None,,,,,,,,,,,,,,,,None,None,None,,None,None,519.4849716339959,None,1,1,1.1680515409971122,519.4849716339959,None,520.648626609103,None,None,None,None,,05,001,2023_Jan_18_1304,searchDisc5,2021.2.3,60.06796450335837,
images/exp1b_trial_304_colour1_distractors4_l.png,l,1,1,4,1,,,,,0,165,165,165,,,,,,,,,,,,,,,,,,,,,,,,,,,,,,,,,,,,,,,,,,,520.6658709000039,None,2,0.3904779779841192,520.6658709000039,None,,,,,,,,,,,,,,,,None,None,None,,None,None,521.0993706959998,None,1,1,0.9212527429917827,521.0993706959998,None,522.015151138106,None,None,None,None,,05,001,2023_Jan_18_1304,searchDisc5,2021.2.3,60.06796450335837,
images/exp1b_trial_172_colour3_distractors9_r.png,r,3,3,9,1,,,,,0,166,166,166,,,,,,,,,,,,,,,,,,,,,,,,,,,,,,,,,,,,,,,,,,,522.0317433470045,None,2,0.3026684490032494,522.0317433470045,None,,,,,,,,,,,,,,,,None,None,None,,None,None,522.3819117429957,None,3,1,1.7388578680111095,522.3819117429957,None,524.116368655095,None,None,None,None,,05,001,2023_Jan_18_1304,searchDisc5,2021.2.3,60.06796450335837,
images/exp1b_trial_81_colour1_distractors9_l.png,l,1,1,9,1,,,,,0,167,167,167,,,,,,,,,,,,,,,,,,,,,,,,,,,,,,,,,,,,,,,,,,,524.1319412949961,None,2,0.3202096589957364,524.1319412949961,None,,,,,,,,,,,,,,,,None,None,None,,None,None,524.4992460020003,None,1,1,1.0201981629943475,524.4992460020003,None,525.515198854098,None,None,None,None,,05,001,2023_Jan_18_1304,searchDisc5,2021.2.3,60.06796450335837,
images/exp1b_trial_90_colour3_distractors4_l.png,l,1,3,4,1,,,,,0,168,168,168,,,,,,,,,,,,,,,,,,,,,,,,,,,,,,,,,,,,,,,,,,,525.5317676480045,None,2,0.2897105700103566,525.5317676480045,None,,,,,,,,,,,,,,,,None,None,None,,None,None,525.8654519740085,None,1,1,0.8028407079982571,525.8654519740085,None,526.6651476530911,None,None,None,None,,05,001,2023_Jan_18_1304,searchDisc5,2021.2.3,60.06796450335837,
images/exp1b_trial_289_colour1_distractors4_r.png,r,3,1,4,1,,,,,0,169,169,169,,,,,,,,,,,,,,,,,,,,,,,,,,,,,,,,,,,,,,,,,,,526.6818567090086,None,2,0.288849074015161,526.6818567090086,None,,,,,,,,,,,,,,,,None,None,None,,None,None,527.015736144007,None,3,1,0.7378033050044905,527.015736144007,None,527.7484891440923,None,None,None,None,,05,001,2023_Jan_18_1304,searchDisc5,2021.2.3,60.06796450335837,
images/exp1b_trial_292_colour1_distractors31_r.png,r,3,1,31,1,,,,,0,170,170,170,,,,,,,,,,,,,,,,,,,,,,,,,,,,,,,,,,,,,,,,,,,527.7652771069843,None,2,0.33718478900846094,527.7652771069843,None,,,,,,,,,,,,,,,,None,None,None,,None,None,528.1519105930056,None,3,1,0.853087825991679,528.1519105930056,None,528.9987642600987,None,None,None,None,,05,001,2023_Jan_18_1304,searchDisc5,2021.2.3,60.06796450335837,
images/exp1b_trial_208_colour1_distractors4_l.png,l,1,1,4,1,,,,,0,171,171,171,,,,,,,,,,,,,,,,,,,,,,,,,,,,,,,,,,,,,,,,,,,529.0160568440042,None,2,0.3047565929882694,529.0160568440042,None,,,,,,,,,,,,,,,,None,None,None,,None,None,529.3664354909852,None,1,1,0.8559123080049176,529.3664354909852,None,530.2154666870862,None,None,None,None,,05,001,2023_Jan_18_1304,searchDisc5,2021.2.3,60.06796450335837,
images/exp1b_trial_220_colour3_distractors19_l.png,l,1,3,19,1,,,,,0,172,172,172,,,,,,,,,,,,,,,,,,,,,,,,,,,,,,,,,,,,,,,,,,,530.2319388650067,None,2,0.3069410739990417,530.2319388650067,None,,,,,,,,,,,,,,,,None,None,None,,None,None,530.5822033550066,None,1,1,0.9345756789844017,530.5822033550066,None,531.5149295480893,None,None,None,None,,05,001,2023_Jan_18_1304,searchDisc5,2021.2.3,60.06796450335837,
images/exp1b_trial_55_colour2_distractors19_l.png,l,1,2,19,1,,,,,0,173,173,173,,,,,,,,,,,,,,,,,,,,,,,,,,,,,,,,,,,,,,,,,,,531.5320911750023,None,2,0.2712459110189229,531.5320911750023,None,,,,,,,,,,,,,,,,None,None,None,,None,None,531.8489218509931,None,1,1,0.8525316989980638,531.8489218509931,None,532.6987942010834,None,None,None,None,,05,001,2023_Jan_18_1304,searchDisc5,2021.2.3,60.06796450335837,
images/exp1b_trial_189_colour3_distractors31_l.png,l,1,3,31,1,,,,,0,174,174,174,,,,,,,,,,,,,,,,,,,,,,,,,,,,,,,,,,,,,,,,,,,532.7146109319874,None,2,0.2878001610224601,532.7146109319874,None,,,,,,,,,,,,,,,,None,None,None,,None,None,533.0497091730067,None,1,1,1.3365571599861141,533.0497091730067,None,534.3831235430931,None,None,None,None,,05,001,2023_Jan_18_1304,searchDisc5,2021.2.3,60.06796450335837,
images/exp1b_trial_290_colour1_distractors9_r.png,r,3,1,9,1,,,,,0,175,175,175,,,,,,,,,,,,,,,,,,,,,,,,,,,,,,,,,,,,,,,,,,,534.3994252289995,None,2,0.2202263429935556,534.3994252289995,None,,,,,,,,,,,,,,,,None,None,None,,None,None,534.6664251519833,None,3,1,0.9389212000241969,534.6664251519833,None,535.5999601981108,None,None,None,None,,05,001,2023_Jan_18_1304,searchDisc5,2021.2.3,60.06796450335837,
images/exp1b_trial_18_colour1_distractors19_l.png,l,1,1,19,1,,,,,0,176,176,176,,,,,,,,,,,,,,,,,,,,,,,,,,,,,,,,,,,,,,,,,,,535.6155857859994,None,2,0.3712178900022991,535.6155857859994,None,,,,,,,,,,,,,,,,None,None,None,,None,None,536.0335384400096,None,1,1,0.8865718320012093,536.0335384400096,None,536.9156934871077,None,None,None,None,,05,001,2023_Jan_18_1304,searchDisc5,2021.2.3,60.06796450335837,
images/exp1b_trial_176_colour1_distractors4_l.png,l,1,1,4,1,,,,,0,177,177,177,,,,,,,,,,,,,,,,,,,,,,,,,,,,,,,,,,,,,,,,,,,536.9322287359973,None,2,0.3068236180115491,536.9322287359973,None,,,,,,,,,,,,,,,,None,None,None,,None,None,537.2824582330068,None,1,1,0.9360487280064262,537.2824582330068,None,538.215473762111,None,None,None,None,,05,001,2023_Jan_18_1304,searchDisc5,2021.2.3,60.06796450335837,
images/exp1b_trial_223_colour0_distractors0_l.png,l,1,0,0,1,,,,,0,178,178,178,,,,,,,,,,,,,,,,,,,,,,,,,,,,,,,,,,,,,,,,,,,538.2329588029825,None,2,0.2887537580099888,538.2329588029825,None,,,,,,,,,,,,,,,,None,None,None,,None,None,538.5662273709895,None,1,1,0.9554597609967459,538.5662273709895,None,539.515208072096,None,None,None,None,,05,001,2023_Jan_18_1304,searchDisc5,2021.2.3,60.06796450335837,
images/exp1b_trial_54_colour2_distractors9_l.png,l,1,2,9,1,,,,,0,179,179,179,,,,,,,,,,,,,,,,,,,,,,,,,,,,,,,,,,,,,,,,,,,539.5324443700083,None,2,0.5542794030043297,539.5324443700083,None,,,,,,,,,,,,,,,,None,None,None,,None,None,540.1356992879882,None,1,1,1.1382574359886348,540.1356992879882,None,541.2655869750976,None,None,None,None,,05,001,2023_Jan_18_1304,searchDisc5,2021.2.3,60.06796450335837,
images/exp1b_trial_95_colour0_distractors0_l.png,l,1,0,0,1,,,,,0,180,180,180,,,,,,,,,,,,,,,,,,,,,,,,,,,,,,,,,,,,,,,,,,,541.2831122289936,None,2,0.3555526210111566,541.2831122289936,None,,,,,,,,,,,,,,,,None,None,None,,None,None,541.6835461620067,None,1,1,0.5895412999961991,541.6835461620067,None,542.2667408500944,None,None,None,None,,05,001,2023_Jan_18_1304,searchDisc5,2021.2.3,60.06796450335837,
images/exp1b_trial_41_colour2_distractors31_r.png,r,3,2,31,1,,,,,0,181,181,181,,,,,,,,,,,,,,,,,,,,,,,,,,,,,,,,,,,,,,,,,,,542.2834440099832,None,2,0.4518944450246636,542.2834440099832,None,,,,,,,,,,,,,,,,None,None,None,,None,None,542.7851937990054,None,3,1,1.0032825249945745,542.7851937990054,None,543.7814794400853,None,None,None,None,,05,001,2023_Jan_18_1304,searchDisc5,2021.2.3,60.06796450335837,
images/exp1b_trial_243_colour1_distractors31_l.png,l,1,1,31,1,,,,,0,182,182,182,,,,,,,,,,,,,,,,,,,,,,,,,,,,,,,,,,,,,,,,,,,543.8010254899855,None,2,0.8544210529944394,543.8010254899855,None,,,,,,,,,,,,,,,,None,None,None,,None,None,544.6986388750083,None,1,1,1.018134733021725,544.6986388750083,None,545.7159924641106,None,None,None,None,,05,001,2023_Jan_18_1304,searchDisc5,2021.2.3,60.06796450335837,
images/exp1b_trial_43_colour3_distractors4_r.png,r,3,3,4,1,,,,,0,183,183,183,,,,,,,,,,,,,,,,,,,,,,,,,,,,,,,,,,,,,,,,,,,545.7333120469993,None,2,0.5592939959897194,545.7333120469993,None,,,,,,,,,,,,,,,,None,None,None,,None,None,546.3327662959928,None,3,1,0.8829394259955734,546.3327662959928,None,547.2158594610897,None,None,None,None,,05,001,2023_Jan_18_1304,searchDisc5,2021.2.3,60.06796450335837,
images/exp1b_trial_297_colour2_distractors31_r.png,r,3,2,31,1,,,,,0,184,184,184,,,,,,,,,,,,,,,,,,,,,,,,,,,,,,,,,,,,,,,,,,,547.2326426589862,None,2,0.4046606400224846,547.2326426589862,None,,,,,,,,,,,,,,,,None,None,None,,None,None,547.6849005100084,None,3,1,1.0055602790089324,547.6849005100084,None,548.6846859791054,None,None,None,None,,05,001,2023_Jan_18_1304,searchDisc5,2021.2.3,60.06796450335837,
images/exp1b_trial_161_colour1_distractors4_r.png,r,3,1,4,1,,,,,0,185,185,185,,,,,,,,,,,,,,,,,,,,,,,,,,,,,,,,,,,,,,,,,,,548.6992819680017,None,2,0.3689042390033137,548.6992819680017,None,,,,,,,,,,,,,,,,None,None,None,,None,None,549.116233392997,None,3,1,0.9725532049778849,549.116233392997,None,550.0826377750869,None,None,None,None,,05,001,2023_Jan_18_1304,searchDisc5,2021.2.3,60.06796450335837,
images/exp1b_trial_9_colour2_distractors31_r.png,r,3,2,31,1,,,,,0,186,186,186,,,,,,,,,,,,,,,,,,,,,,,,,,,,,,,,,,,,,,,,,,,550.1000916099874,None,2,0.3068307299981825,550.1000916099874,None,,,,,,,,,,,,,,,,None,None,None,,None,None,550.4506049400079,None,3,1,0.9511730019876268,550.4506049400079,None,551.3993754531053,None,None,None,None,,05,001,2023_Jan_18_1304,searchDisc5,2021.2.3,60.06796450335837,
images/exp1b_trial_86_colour2_distractors9_l.png,l,1,2,9,1,,,,,0,187,187,187,,,,,,,,,,,,,,,,,,,,,,,,,,,,,,,,,,,,,,,,,,,551.4158953109873,None,2,0.2878342710027937,551.4158953109873,None,,,,,,,,,,,,,,,,None,None,None,,None,None,551.7517507410084,None,1,1,1.137457319011446,551.7517507410084,None,552.8821330751031,None,None,None,None,,05,001,2023_Jan_18_1304,searchDisc5,2021.2.3,60.06796450335837,
images/exp1b_trial_318_colour0_distractors0_r.png,r,3,0,0,1,,,,,0,188,188,188,,,,,,,,,,,,,,,,,,,,,,,,,,,,,,,,,,,,,,,,,,,552.8994850500021,None,2,0.3377457899914589,552.8994850500021,None,,,,,,,,,,,,,,,,None,None,None,,None,None,553.2829048740095,None,3,1,0.940150159993209,553.2829048740095,None,554.2160509241018,None,None,None,None,,05,001,2023_Jan_18_1304,searchDisc5,2021.2.3,60.06796450335837,
images/exp1b_trial_159_colour0_distractors0_l.png,l,1,0,0,1,,,,,0,189,189,189,,,,,,,,,,,,,,,,,,,,,,,,,,,,,,,,,,,,,,,,,,,554.2333041529928,None,2,0.37400846800301224,554.2333041529928,None,,,,,,,,,,,,,,,,None,None,None,,None,None,554.6505273469957,None,1,1,0.786740011011716,554.6505273469957,None,555.4328376150894,None,None,None,None,,05,001,2023_Jan_18_1304,searchDisc5,2021.2.3,60.06796450335837,
images/exp1b_trial_101_colour2_distractors1_r.png,r,3,2,1,1,,,,,0,190,190,190,,,,,,,,,,,,,,,,,,,,,,,,,,,,,,,,,,,,,,,,,,,555.4502093119954,None,2,0.7877221679955255,555.4502093119954,None,,,,,,,,,,,,,,,,None,None,None,,None,None,556.2833597539866,None,3,1,0.6892962729907595,556.2833597539866,None,556.9661617500911,None,None,None,None,,05,001,2023_Jan_18_1304,searchDisc5,2021.2.3,60.06796450335837,
images/exp1b_trial_192_colour1_distractors1_r.png,r,3,1,1,1,,,,,0,191,191,191,,,,,,,,,,,,,,,,,,,,,,,,,,,,,,,,,,,,,,,,,,,556.9834593150008,None,2,0.5400480510143097,556.9834593150008,None,,,,,,,,,,,,,,,,None,None,None,,None,None,557.5655264759844,None,3,1,0.9366171380097512,557.5655264759844,None,558.4994486220909,None,None,None,None,,05,001,2023_Jan_18_1304,searchDisc5,2021.2.3,60.06796450335837,
images/exp1b_trial_248_colour2_distractors31_l.png,l,1,2,31,1,,,,,0,192,192,192,,,,,,,,,,,,,,,,,,,,,,,,,,,,,,,,,,,,,,,,,,,558.5162867420004,None,2,0.47328184501384385,558.5162867420004,None,,,,,,,,,,,,,,,,None,None,None,,None,None,559.0362368180067,None,1,1,1.0676366160041653,559.0362368180067,None,560.0994398320996,None,None,None,None,,05,001,2023_Jan_18_1304,searchDisc5,2021.2.3,60.06796450335837,
images/exp1b_trial_270_colour3_distractors31_r.png,r,3,3,31,1,,,,,0,193,193,193,,,,,,,,,,,,,,,,,,,,,,,,,,,,,,,,,,,,,,,,,,,560.1170198250038,None,2,0.48785898101050407,560.1170198250038,None,,,,,,,,,,,,,,,,None,None,None,,None,None,560.6507371329935,None,3,1,1.0022736850078218,560.6507371329935,None,561.6496112411056,None,None,None,None,,05,001,2023_Jan_18_1304,searchDisc5,2021.2.3,60.06796450335837,
images/exp1b_trial_87_colour2_distractors19_l.png,l,1,2,19,1,,,,,0,194,194,194,,,,,,,,,,,,,,,,,,,,,,,,,,,,,,,,,,,,,,,,,,,561.6668534159835,None,2,0.5212316720280796,561.6668534159835,None,,,,,,,,,,,,,,,,None,None,None,,None,None,562.2324781040079,None,1,1,1.0705228830047417,562.2324781040079,None,563.2998957600881,None,None,None,None,,05,001,2023_Jan_18_1304,searchDisc5,2021.2.3,60.06796450335837,
images/exp1b_trial_59_colour3_distractors9_l.png,l,1,3,9,1,,,,,0,195,195,195,,,,,,,,,,,,,,,,,,,,,,,,,,,,,,,,,,,,,,,,,,,563.3191052610055,None,2,0.4240765110007487,563.3191052610055,None,,,,,,,,,,,,,,,,None,None,None,,None,None,563.7831875369884,None,1,1,1.2505504089931492,563.7831875369884,None,565.0331041741098,None,None,None,None,,05,001,2023_Jan_18_1304,searchDisc5,2021.2.3,60.06796450335837,
images/exp1b_trial_82_colour1_distractors19_l.png,l,1,1,19,1,,,,,0,196,196,196,,,,,,,,,,,,,,,,,,,,,,,,,,,,,,,,,,,,,,,,,,,565.050321082992,None,2,0.3544380069943145,565.050321082992,None,,,,,,,,,,,,,,,,None,None,None,,None,None,565.4506517539849,None,1,1,0.9202074430068024,565.4506517539849,None,566.3665212121065,None,None,None,None,,05,001,2023_Jan_18_1304,searchDisc5,2021.2.3,60.06796450335837,
images/exp1b_trial_201_colour2_distractors31_r.png,r,3,2,31,1,,,,,0,197,197,197,,,,,,,,,,,,,,,,,,,,,,,,,,,,,,,,,,,,,,,,,,,566.3833103079814,None,2,0.4041667009878438,566.3833103079814,None,,,,,,,,,,,,,,,,None,None,None,,None,None,566.8325734779937,None,3,1,1.1366992609982844,566.8325734779937,None,567.9664548460947,None,None,None,None,,05,001,2023_Jan_18_1304,searchDisc5,2021.2.3,60.06796450335837,
images/exp1b_trial_83_colour1_distractors31_l.png,l,1,1,31,1,,,,,0,198,198,198,,,,,,,,,,,,,,,,,,,,,,,,,,,,,,,,,,,,,,,,,,,567.9831841549894,None,2,0.3900366709858645,567.9831841549894,None,,,,,,,,,,,,,,,,None,None,None,,None,None,568.4189035599993,None,1,1,0.9329923659970518,568.4189035599993,None,569.3494872930838,None,None,None,None,,05,001,2023_Jan_18_1304,searchDisc5,2021.2.3,60.06796450335837,
images/exp1b_trial_203_colour3_distractors4_r.png,r,3,3,4,1,,,,,0,199,199,199,,,,,,,,,,,,,,,,,,,,,,,,,,,,,,,,,,,,,,,,,,,569.3685699350026,None,2,0.6554931970022153,569.3685699350026,None,,,,,,,,,,,,,,,,None,None,None,,None,None,570.0673169379879,None,3,1,0.8378478010126855,570.0673169379879,None,570.8998596090911,None,None,None,None,,05,001,2023_Jan_18_1304,searchDisc5,2021.2.3,60.06796450335837,
images/exp1b_trial_51_colour1_distractors31_l.png,l,1,1,31,1,,,,,0,200,200,200,,,,,,,,,,,,,,,,,,,,,,,,,,,,,,,,,,,,,,,,,,,570.9172316989861,None,2,0.45473015200695954,570.9172316989861,None,,,,,,,,,,,,,,,,None,None,None,,None,None,571.4175687679963,None,1,1,1.1347767070110422,571.4175687679963,None,572.5499593190995,None,None,None,None,,05,001,2023_Jan_18_1304,searchDisc5,2021.2.3,60.06796450335837,
images/exp1b_trial_56_colour2_distractors31_l.png,l,1,2,31,1,,,,,0,201,201,201,,,,,,,,,,,,,,,,,,,,,,,,,,,,,,,,,,,,,,,,,,,572.5675214020011,None,2,0.33840547400177456,572.5675214020011,None,,,,,,,,,,,,,,,,None,None,None,,None,None,572.9524445959833,None,1,1,0.7541649860213511,572.9524445959833,None,573.7021095410834,None,None,None,None,,05,001,2023_Jan_18_1304,searchDisc5,2021.2.3,60.06796450335837,
images/exp1b_trial_38_colour2_distractors4_r.png,r,3,2,4,1,,,,,0,202,202,202,,,,,,,,,,,,,,,,,,,,,,,,,,,,,,,,,,,,,,,,,,,573.717384107993,None,2,0.35237886698450893,573.717384107993,None,,,,,,,,,,,,,,,,None,None,None,,None,None,574.1195702819969,None,3,1,0.7556268350163009,574.1195702819969,None,574.8667824870878,None,None,None,None,,05,001,2023_Jan_18_1304,searchDisc5,2021.2.3,60.06796450335837,
images/exp1b_trial_79_colour1_distractors1_l.png,l,1,1,1,1,,,,,0,203,203,203,,,,,,,,,,,,,,,,,,,,,,,,,,,,,,,,,,,,,,,,,,,574.8853810059954,None,2,0.33782934700138867,574.8853810059954,None,,,,,,,,,,,,,,,,None,None,None,,None,None,575.2690142020001,None,1,1,0.8391547310166061,575.2690142020001,None,576.1001467061084,None,None,None,None,,05,001,2023_Jan_18_1304,searchDisc5,2021.2.3,60.06796450335837,
images/exp1b_trial_266_colour3_distractors1_r.png,r,3,3,1,1,,,,,0,204,204,204,,,,,,,,,,,,,,,,,,,,,,,,,,,,,,,,,,,,,,,,,,,576.1172750429832,None,2,0.4043729419936426,576.1172750429832,None,,,,,,,,,,,,,,,,None,None,None,,None,None,576.5668814810051,None,3,1,0.7893031929852441,576.5668814810051,None,577.3501420770859,None,None,None,None,,05,001,2023_Jan_18_1304,searchDisc5,2021.2.3,60.06796450335837,
images/exp1b_trial_107_colour3_distractors4_r.png,r,3,3,4,1,,,,,0,205,205,205,,,,,,,,,,,,,,,,,,,,,,,,,,,,,,,,,,,,,,,,,,,577.3674614469928,None,2,0.4044910029915627,577.3674614469928,None,,,,,,,,,,,,,,,,None,None,None,,None,None,577.8170572039962,None,3,1,1.0540998610085808,577.8170572039962,None,578.8661802150979,None,None,None,None,,05,001,2023_Jan_18_1304,searchDisc5,2021.2.3,60.06796450335837,
images/exp1b_trial_312_colour2_distractors31_l.png,l,1,2,31,1,,,,,0,206,206,206,,,,,,,,,,,,,,,,,,,,,,,,,,,,,,,,,,,,,,,,,,,578.886395435984,None,2,0.5268445829860866,578.886395435984,None,,,,,,,,,,,,,,,,None,None,None,,None,None,579.4516754919896,None,1,1,0.7653085049823858,579.4516754919896,None,580.2167567520897,None,None,None,None,,05,001,2023_Jan_18_1304,searchDisc5,2021.2.3,60.06796450335837,
images/exp1b_trial_282_colour3_distractors4_l.png,l,1,3,4,1,,,,,0,207,207,207,,,,,,,,,,,,,,,,,,,,,,,,,,,,,,,,,,,,,,,,,,,580.2334446590103,None,2,0.3557562619971577,580.2334446590103,None,,,,,,,,,,,,,,,,None,None,None,,None,None,580.6360052819946,None,1,1,0.8372238249867223,580.6360052819946,None,581.4669124441076,None,None,None,None,,05,001,2023_Jan_18_1304,searchDisc5,2021.2.3,60.06796450335837,
images/exp1b_trial_113_colour1_distractors9_l.png,l,1,1,9,1,,,,,0,208,208,208,,,,,,,,,,,,,,,,,,,,,,,,,,,,,,,,,,,,,,,,,,,581.4841868609947,None,2,0.3386806149792392,581.4841868609947,None,,,,,,,,,,,,,,,,None,None,None,,None,None,581.8676710200089,None,1,1,0.9701198740222026,581.8676710200089,None,582.8335961660865,None,None,None,None,,05,001,2023_Jan_18_1304,searchDisc5,2021.2.3,60.06796450335837,
images/exp1b_trial_160_colour1_distractors1_r.png,r,3,1,1,1,,,,,0,209,209,209,,,,,,,,,,,,,,,,,,,,,,,,,,,,,,,,,,,,,,,,,,,582.8510491589841,None,2,0.27187234099255875,582.8510491589841,None,,,,,,,,,,,,,,,,None,None,None,,None,None,583.1674050439906,None,3,1,0.9059204819786828,583.1674050439906,None,584.0680704660859,None,None,None,None,,05,001,2023_Jan_18_1304,searchDisc5,2021.2.3,60.06796450335837,
images/exp1b_trial_60_colour3_distractors19_l.png,l,1,3,19,1,,,,,0,210,210,210,,,,,,,,,,,,,,,,,,,,,,,,,,,,,,,,,,,,,,,,,,,584.0833816619997,None,2,0.3376929430232849,584.0833816619997,None,,,,,,,,,,,,,,,,None,None,None,,None,None,584.4690672220022,None,1,1,0.7024049930041656,584.4690672220022,None,585.1679716151062,None,None,None,None,,05,001,2023_Jan_18_1304,searchDisc5,2021.2.3,60.06796450335837,
images/exp1b_trial_142_colour3_distractors31_r.png,r,3,3,31,1,,,,,0,211,211,211,,,,,,,,,,,,,,,,,,,,,,,,,,,,,,,,,,,,,,,,,,,585.184349187999,None,2,0.322997209004825,585.184349187999,None,,,,,,,,,,,,,,,,None,None,None,,None,None,585.5532211840036,None,3,1,0.8169508900027722,585.5532211840036,None,586.3679975440988,None,None,None,None,,05,001,2023_Jan_18_1304,searchDisc5,2021.2.3,60.06796450335837,
images/exp1b_trial_250_colour3_distractors4_l.png,l,1,3,4,1,,,,,0,212,212,212,,,,,,,,,,,,,,,,,,,,,,,,,,,,,,,,,,,,,,,,,,,586.3836446850037,None,2,1.1536243690061383,586.3836446850037,None,,,,,,,,,,,,,,,,None,None,None,,None,None,587.5842465199821,None,1,1,0.7883432100061327,587.5842465199821,None,588.3670276881109,None,None,None,None,,05,001,2023_Jan_18_1304,searchDisc5,2021.2.3,60.06796450335837,
images/exp1b_trial_298_colour3_distractors1_r.png,r,3,3,1,1,,,,,0,213,213,213,,,,,,,,,,,,,,,,,,,,,,,,,,,,,,,,,,,,,,,,,,,588.3838123389869,None,2,0.4232857160095591,588.3838123389869,None,,,,,,,,,,,,,,,,None,None,None,,None,None,588.8526801679982,None,3,1,0.736657544010086,588.8526801679982,None,589.5835518720938,None,None,None,None,,05,001,2023_Jan_18_1304,searchDisc5,2021.2.3,60.06796450335837,
images/exp1b_trial_194_colour1_distractors9_r.png,r,3,1,9,1,,,,,0,214,214,214,,,,,,,,,,,,,,,,,,,,,,,,,,,,,,,,,,,,,,,,,,,589.602807799005,None,2,0.40485057700425386,589.602807799005,None,,,,,,,,,,,,,,,,None,None,None,,None,None,590.0512600349903,None,3,1,0.9366455940180458,590.0512600349903,None,590.9837518030923,None,None,None,None,,05,001,2023_Jan_18_1304,searchDisc5,2021.2.3,60.06796450335837,
images/exp1b_trial_254_colour0_distractors0_r.png,r,3,0,0,1,,,,,0,215,215,215,,,,,,,,,,,,,,,,,,,,,,,,,,,,,,,,,,,,,,,,,,,591.0010900310008,None,2,0.38734178902814165,591.0010900310008,None,,,,,,,,,,,,,,,,None,None,None,,None,None,591.4366670349846,None,3,1,0.8234552000067197,591.4366670349846,None,592.2505731900834,None,None,None,None,,05,001,2023_Jan_18_1304,searchDisc5,2021.2.3,60.06796450335837,
images/exp1b_trial_209_colour1_distractors9_l.png,l,1,1,9,1,,,,,0,216,216,216,,,,,,,,,,,,,,,,,,,,,,,,,,,,,,,,,,,,,,,,,,,592.2671466000029,None,2,0.3899803649983369,592.2671466000029,None,,,,,,,,,,,,,,,,None,None,None,,None,None,592.7011812379933,None,1,1,0.7853483450016938,592.7011812379933,None,593.4839973560971,None,None,None,None,,05,001,2023_Jan_18_1304,searchDisc5,2021.2.3,60.06796450335837,
images/exp1b_trial_205_colour3_distractors19_r.png,r,3,3,19,1,,,,,0,217,217,217,,,,,,,,,,,,,,,,,,,,,,,,,,,,,,,,,,,,,,,,,,,593.5014646489872,None,2,0.3383851459948346,593.5014646489872,None,,,,,,,,,,,,,,,,None,None,None,,None,None,593.8860860299901,None,3,1,0.8013001280196477,593.8860860299901,None,594.6836005060846,None,None,None,None,,05,001,2023_Jan_18_1304,searchDisc5,2021.2.3,60.06796450335837,
images/exp1b_trial_253_colour3_distractors31_l.png,l,1,3,31,1,,,,,0,218,218,218,,,,,,,,,,,,,,,,,,,,,,,,,,,,,,,,,,,,,,,,,,,594.7004742650024,None,2,0.3549480200163089,594.7004742650024,None,,,,,,,,,,,,,,,,None,None,None,,None,None,595.1034371989954,None,1,1,0.8857901959854644,595.1034371989954,None,595.9839980180928,None,None,None,None,,05,001,2023_Jan_18_1304,searchDisc5,2021.2.3,60.06796450335837,
images/exp1b_trial_149_colour2_distractors4_l.png,l,1,2,4,1,,,,,0,219,219,219,,,,,,,,,,,,,,,,,,,,,,,,,,,,,,,,,,,,,,,,,,,596.0005644299963,None,2,0.40453294600592926,596.0005644299963,None,,,,,,,,,,,,,,,,None,None,None,,None,None,596.4532684999867,None,1,1,0.8714035869925283,596.4532684999867,None,597.3171240401076,None,None,None,None,,05,001,2023_Jan_18_1304,searchDisc5,2021.2.3,60.06796450335837,
images/exp1b_trial_148_colour2_distractors1_l.png,l,1,2,1,1,,,,,0,220,220,220,,,,,,,,,,,,,,,,,,,,,,,,,,,,,,,,,,,,,,,,,,,597.3340824979823,None,2,0.72130841499893,597.3340824979823,None,,,,,,,,,,,,,,,,None,None,None,,None,None,598.1008218399948,None,1,1,0.7892692720051855,598.1008218399948,None,598.8839869471063,None,None,None,None,,05,001,2023_Jan_18_1304,searchDisc5,2021.2.3,60.06796450335837,
images/exp1b_trial_168_colour2_distractors19_r.png,r,3,2,19,1,,,,,0,221,221,221,,,,,,,,,,,,,,,,,,,,,,,,,,,,,,,,,,,,,,,,,,,598.9006070719915,None,2,0.43923839600756764,598.9006070719915,None,,,,,,,,,,,,,,,,None,None,None,,None,None,599.386946048995,None,3,1,0.8368771009845659,599.386946048995,None,600.2186775640963,None,None,None,None,,05,001,2023_Jan_18_1304,searchDisc5,2021.2.3,60.06796450335837,
images/exp1b_trial_28_colour3_distractors19_l.png,l,1,3,19,1,,,,,0,222,222,222,,,,,,,,,,,,,,,,,,,,,,,,,,,,,,,,,,,,,,,,,,,600.2365171189886,None,2,0.4700271490146406,600.2365171189886,None,,,,,,,,,,,,,,,,None,None,None,,None,None,600.7517288459931,None,1,1,0.853633799997624,600.7517288459931,None,601.6019582380919,None,None,None,None,,05,001,2023_Jan_18_1304,searchDisc5,2021.2.3,60.06796450335837,
images/exp1b_trial_31_colour0_distractors0_l.png,l,1,0,0,1,,,,,0,223,223,223,,,,,,,,,,,,,,,,,,,,,,,,,,,,,,,,,,,,,,,,,,,601.619445955992,None,2,0.47095382199040614,601.619445955992,None,,,,,,,,,,,,,,,,None,None,None,,None,None,602.1343232360086,None,1,1,0.8051300469960552,602.1343232360086,None,602.9340636170906,None,None,None,None,,05,001,2023_Jan_18_1304,searchDisc5,2021.2.3,60.06796450335837,
images/exp1b_trial_285_colour3_distractors31_l.png,l,1,3,31,1,,,,,0,224,224,224,,,,,,,,,,,,,,,,,,,,,,,,,,,,,,,,,,,,,,,,,,,602.9513673059992,None,2,0.4046302849892527,602.9513673059992,None,,,,,,,,,,,,,,,,None,None,None,,None,None,603.4010388879979,None,1,1,0.9036534930055495,603.4010388879979,None,604.3021456381044,None,None,None,None,,05,001,2023_Jan_18_1304,searchDisc5,2021.2.3,60.06796450335837,
images/exp1b_trial_154_colour3_distractors4_l.png,l,1,3,4,1,,,,,0,225,225,225,,,,,,,,,,,,,,,,,,,,,,,,,,,,,,,,,,,,,,,,,,,604.3199943169893,None,2,0.4854654730006587,604.3199943169893,None,,,,,,,,,,,,,,,,None,None,None,,None,None,604.851738797006,None,1,1,0.956348739011446,604.851738797006,None,605.8017404640938,None,None,None,None,,05,001,2023_Jan_18_1304,searchDisc5,2021.2.3,60.06796450335837,
