ImageFile,targ_side,correctAnswer,colour,distNo,targetType,trials_2.thisRepN,trials_2.thisTrialN,trials_2.thisN,trials_2.thisIndex,trials.thisRepN,trials.thisTrialN,trials.thisN,trials.thisIndex,text_6.started,text_6.stopped,buttonBox.keys,buttonBox.rt,buttonBox.started,buttonBox.stopped,text_7.started,text_7.stopped,buttonBox_3.keys,buttonBox_3.rt,buttonBox_3.started,buttonBox_3.stopped,text_8.started,text_8.stopped,buttonBox_4.keys,buttonBox_4.rt,buttonBox_4.started,buttonBox_4.stopped,text_9.started,text_9.stopped,buttonBox_5.keys,buttonBox_5.rt,buttonBox_5.started,buttonBox_5.stopped,text_2.started,text_2.stopped,buttonBox_6.keys,buttonBox_6.rt,buttonBox_6.started,buttonBox_6.stopped,text_5.started,text_5.stopped,buttonBox_7.keys,buttonBox_7.rt,image_2.started,image_2.stopped,image_3.started,image_3.stopped,buttonBox_8.keys,buttonBox_8.rt,buttonBox_8.started,buttonBox_8.stopped,polygon.started,polygon.stopped,buttonBox_9.keys,buttonBox_9.rt,buttonBox_9.started,buttonBox_9.stopped,image.started,image.stopped,buttonBox_10.keys,buttonBox_10.corr,buttonBox_10.rt,buttonBox_10.started,buttonBox_10.stopped,text_4.started,text_4.stopped,text.started,text.stopped,buttonBox_11.keys,buttonBox_11.rt,buttonBox_11.started,buttonBox_11.stopped,targetTypeInstruction.started,targetTypeInstruction.stopped,buttonBox_2.keys,buttonBox_2.rt,buttonBox_2.started,buttonBox_2.stopped,dispStimuli.started,dispStimuli.stopped,buttonBox_12.keys,buttonBox_12.corr,buttonBox_12.rt,buttonBox_12.started,buttonBox_12.stopped,breakMessage.started,breakMessage.stopped,buttonBox_13.keys,buttonBox_13.started,buttonBox_13.stopped,buttonBox_13.rt,participant,session,date,expName,psychopyVersion,frameRate,
,,,,,,,,,,,,,,45.91194091300713,None,2,48.08943766297307,45.91194091300713,None,,,,,,,,,,,,,,,,,,,,,,,,,,,,,,,,,,,,,,,,,,,,,,,,,,,,,,,,,,,,,,,,,,,,,,,,,,,,,07,001,2023_Jan_18_1445,searchDisc5,2021.2.3,59.325819837728126,
,,,,,,,,,,,,,,,,,,,,93.99667355100974,None,2,62.3355749459879,93.99667355100974,None,,,,,,,,,,,,,,,,,,,,,,,,,,,,,,,,,,,,,,,,,,,,,,,,,,,,,,,,,,,,,,,,,,,,,,,07,001,2023_Jan_18_1445,searchDisc5,2021.2.3,59.325819837728126,
,,,,,,,,,,,,,,,,,,,,,,,,,,156.3318162659998,None,2,8.014565721998224,156.3318162659998,None,,,,,,,,,,,,,,,,,,,,,,,,,,,,,,,,,,,,,,,,,,,,,,,,,,,,,,,,,,,,,,,,,07,001,2023_Jan_18_1445,searchDisc5,2021.2.3,59.325819837728126,
,,,,,,,,,,,,,,,,,,,,,,,,,,,,,,,,164.34865263898973,None,2,8.898269650002476,164.34865263898973,None,,,,,,,,,,,,,,,,,,,,,,,,,,,,,,,,,,,,,,,,,,,,,,,,,,,,,,,,,,,07,001,2023_Jan_18_1445,searchDisc5,2021.2.3,59.325819837728126,
,,,,,,,,,,,,,,,,,,,,,,,,,,,,,,,,,,,,,,173.2488979100017,None,2,13.600390529987635,174.2320694049995,None,,,,,,,,,,,,,,,,,,,,,,,,,,,,,,,,,,,,,,,,,,,,,,,,,,,,,07,001,2023_Jan_18_1445,searchDisc5,2021.2.3,59.325819837728126,
,,,,,,,,,,,,,,,,,,,,,,,,,,,,,,,,,,,,,,,,,,,,187.83261233899975,None,2,20.198353321989998,,,,,,,,,,,,,,,,,,,,,,,,,,,,,,,,,,,,,,,,,,,,,,,,,07,001,2023_Jan_18_1445,searchDisc5,2021.2.3,59.325819837728126,
,,,,,,,,,,,,,,,,,,,,,,,,,,,,,,,,,,,,,,,,,,,,,,,,211.03104215901112,None,211.03104215901112,None,2,12.516829130006954,211.03104215901112,None,,,,,,,,,,,,,,,,,,,,,,,,,,,,,,,,,,,,,,,,,07,001,2023_Jan_18_1445,searchDisc5,2021.2.3,59.325819837728126,
Practice arrays/exp1a_trial_25_colour3_distractors1_l.png,l,1,,,,0,0,0,11,,,,,,,,,,,,,,,,,,,,,,,,,,,,,,,,,,,,,,,,,,,,,,,223.58119790800265,None,2,12.335520079999696,223.58119790800265,None,235.96693025899003,None,1,1,2.9409479509922676,235.96693025899003,None,238.89819105700008,None,,,,,,,,,,,,,,,,,,,,,,,,,,07,001,2023_Jan_18_1445,searchDisc5,2021.2.3,59.325819837728126,
Practice arrays/exp1a_trial_16_colour1_distractors4_l.png,l,1,,,,0,1,1,13,,,,,,,,,,,,,,,,,,,,,,,,,,,,,,,,,,,,,,,,,,,,,,,240.90022499399493,None,2,1.6136684769880958,240.90022499399493,None,242.56564312399132,None,1,1,1.5863189740048256,242.56564312399132,None,244.1490243439912,None,,,,,,,,,,,,,,,,,,,,,,,,,,07,001,2023_Jan_18_1445,searchDisc5,2021.2.3,59.325819837728126,
Practice arrays/exp1a_trial_14_colour3_distractors31_r.png,r,3,,,,0,2,2,6,,,,,,,,,,,,,,,,,,,,,,,,,,,,,,,,,,,,,,,,,,,,,,,246.150914310012,None,2,0.8307030709984247,246.150914310012,None,247.0322602239903,None,3,1,2.033622501010541,247.0322602239903,None,249.06551292398944,None,,,,,,,,,,,,,,,,,,,,,,,,,,07,001,2023_Jan_18_1445,searchDisc5,2021.2.3,59.325819837728126,
Practice arrays/exp1a_trial_30_colour0_distractors0_r.png,r,3,,,,0,3,3,14,,,,,,,,,,,,,,,,,,,,,,,,,,,,,,,,,,,,,,,,,,,,,,,251.06766661300207,None,2,0.5800116129976232,251.06766661300207,None,251.70063385300455,None,3,1,1.0566081399738323,251.70063385300455,None,252.74903141599498,None,,,,,,,,,,,,,,,,,,,,,,,,,,07,001,2023_Jan_18_1445,searchDisc5,2021.2.3,59.325819837728126,
Practice arrays/exp1a_trial_12_colour3_distractors9_r.png,r,3,,,,0,4,4,5,,,,,,,,,,,,,,,,,,,,,,,,,,,,,,,,,,,,,,,,,,,,,,,254.750704629987,None,2,1.2472805220168084,254.750704629987,None,256.05100291999406,None,3,1,1.1680208570032846,256.05100291999406,None,257.2157266070135,None,,,,,,,,,,,,,,,,,,,,,,,,,,07,001,2023_Jan_18_1445,searchDisc5,2021.2.3,59.325819837728126,
Practice arrays/exp1a_trial_0_colour1_distractors1_r.png,r,3,,,,0,5,5,0,,,,,,,,,,,,,,,,,,,,,,,,,,,,,,,,,,,,,,,,,,,,,,,259.21770328399725,None,2,0.38243273002444766,259.21770328399725,None,259.648929604009,None,3,1,1.3862994390074164,259.648929604009,None,261.0324793079926,None,,,,,,,,,,,,,,,,,,,,,,,,,,07,001,2023_Jan_18_1445,searchDisc5,2021.2.3,59.325819837728126,
Practice arrays/exp1a_trial_10_colour3_distractors1_r.png,r,3,,,,0,6,6,4,,,,,,,,,,,,,,,,,,,,,,,,,,,,,,,,,,,,,,,,,,,,,,,263.03415891199256,None,2,0.8298128769965842,263.03415891199256,None,263.91587895399425,None,3,1,0.993311565980548,263.91587895399425,None,264.9007928300125,None,,,,,,,,,,,,,,,,,,,,,,,,,,07,001,2023_Jan_18_1445,searchDisc5,2021.2.3,59.325819837728126,
Practice arrays/exp1a_trial_17_colour1_distractors9_l.png,l,1,,,,0,7,7,7,,,,,,,,,,,,,,,,,,,,,,,,,,,,,,,,,,,,,,,,,,,,,,,266.9009884200059,None,2,0.5301723019802012,266.9009884200059,None,267.48451347701484,None,1,1,0.9036121449898928,267.48451347701484,None,268.38201367200236,None,,,,,,,,,,,,,,,,,,,,,,,,,,07,001,2023_Jan_18_1445,searchDisc5,2021.2.3,59.325819837728126,
Practice arrays/exp1a_trial_23_colour2_distractors19_l.png,l,1,,,,0,8,8,10,,,,,,,,,,,,,,,,,,,,,,,,,,,,,,,,,,,,,,,,,,,,,,,270.38505914699635,None,2,0.48060717701446265,270.38505914699635,None,270.91621154898894,None,1,1,1.1365357530012261,270.91621154898894,None,272.04952164701535,None,,,,,,,,,,,,,,,,,,,,,,,,,,07,001,2023_Jan_18_1445,searchDisc5,2021.2.3,59.325819837728126,
Practice arrays/exp1a_trial_21_colour2_distractors4_l.png,l,1,,,,0,9,9,9,,,,,,,,,,,,,,,,,,,,,,,,,,,,,,,,,,,,,,,,,,,,,,,274.05165398999816,None,2,0.43246939199161716,274.05165398999816,None,274.53491405499517,None,1,1,0.8540790760016534,274.53491405499517,None,275.38295527300215,None,,,,,,,,,,,,,,,,,,,,,,,,,,07,001,2023_Jan_18_1445,searchDisc5,2021.2.3,59.325819837728126,
Practice arrays/exp1a_trial_8_colour2_distractors19_r.png,r,3,,,,0,10,10,3,,,,,,,,,,,,,,,,,,,,,,,,,,,,,,,,,,,,,,,,,,,,,,,277.3850346299878,None,2,0.683147639996605,277.3850346299878,None,278.1158606930112,None,3,1,0.8149681450158823,278.1158606930112,None,278.93306192199816,None,,,,,,,,,,,,,,,,,,,,,,,,,,07,001,2023_Jan_18_1445,searchDisc5,2021.2.3,59.325819837728126,
Practice arrays/exp1a_trial_18_colour1_distractors19_l.png,l,1,,,,0,11,11,8,,,,,,,,,,,,,,,,,,,,,,,,,,,,,,,,,,,,,,,,,,,,,,,280.93478576801135,None,2,0.6971897929906845,280.93478576801135,None,281.6828516150126,None,1,1,1.3180851329816505,281.6828516150126,None,282.99972532401443,None,,,,,,,,,,,,,,,,,,,,,,,,,,07,001,2023_Jan_18_1445,searchDisc5,2021.2.3,59.325819837728126,
Practice arrays/exp1a_trial_31_colour0_distractors0_l.png,l,1,,,,0,12,12,15,,,,,,,,,,,,,,,,,,,,,,,,,,,,,,,,,,,,,,,,,,,,,,,285.0018585039943,None,2,0.46609718998661265,285.0018585039943,None,285.5186162519967,None,1,1,0.7208784379763529,285.5186162519967,None,286.23235913401004,None,,,,,,,,,,,,,,,,,,,,,,,,,,07,001,2023_Jan_18_1445,searchDisc5,2021.2.3,59.325819837728126,
Practice arrays/exp1a_trial_7_colour2_distractors9_r.png,r,3,,,,0,13,13,2,,,,,,,,,,,,,,,,,,,,,,,,,,,,,,,,,,,,,,,,,,,,,,,288.23523340999964,None,2,0.4968308999959845,288.23523340999964,None,288.7836433380144,None,3,1,2.1205220529809594,288.7836433380144,None,290.90010299999267,None,,,,,,,,,,,,,,,,,,,,,,,,,,07,001,2023_Jan_18_1445,searchDisc5,2021.2.3,59.325819837728126,
Practice arrays/exp1a_trial_1_colour1_distractors4_r.png,r,3,,,,0,14,14,1,,,,,,,,,,,,,,,,,,,,,,,,,,,,,,,,,,,,,,,,,,,,,,,292.90196455299156,None,2,0.48020568999345414,292.90196455299156,None,293.43358576399623,None,3,1,0.9378732579934876,293.43358576399623,None,294.36685811000643,None,,,,,,,,,,,,,,,,,,,,,,,,,,07,001,2023_Jan_18_1445,searchDisc5,2021.2.3,59.325819837728126,
Practice arrays/exp1a_trial_27_colour3_distractors9_l.png,l,1,,,,0,15,15,12,,,,,,,,,,,,,,,,,,,,,,,,,,,,,,,,,,,,,,,,,,,,,,,296.368605191994,None,2,0.430279491993133,296.368605191994,None,296.8503085699922,None,1,1,0.7873849240131676,296.8503085699922,None,297.6337430840067,None,,,,,,,,,,,,,,,,,,,,,,,,,,07,001,2023_Jan_18_1445,searchDisc5,2021.2.3,59.325819837728126,
,,,,,,,,,,,,,,,,,,,,,,,,,,,,,,,,,,,,,,,,,,,,,,,,,,,,,,,,,,,,,,,,,,,,,,,299.7184106009954,None,2,8.500530045013875,300.7022572440037,None,,,,,,,,,,,,,,,,,,,,07,001,2023_Jan_18_1445,searchDisc5,2021.2.3,59.325819837728126,
images/exp2b_trial_63_colour0_distractors0_l.png,l,1,0,0,0,,,,,0,0,0,0,,,,,,,,,,,,,,,,,,,,,,,,,,,,,,,,,,,,,,,,,,,322.5174251009885,None,2,1.297195401013596,322.5174251009885,None,,,,,,,,,,,,,,,,309.8025360289903,None,2,10.73380969100981,311.7838671389909,None,323.87995646800846,None,1,1,0.8271349619899411,323.87995646800846,None,324.7175366053998,None,None,None,None,,07,001,2023_Jan_18_1445,searchDisc5,2021.2.3,59.325819837728126,
images/exp2c_trial_36_colour1_distractors31_r.png,r,3,1,31,0,,,,,0,1,1,1,,,,,,,,,,,,,,,,,,,,,,,,,,,,,,,,,,,,,,,,,,,324.73369675999857,None,2,1.967879036004888,324.73369675999857,None,,,,,,,,,,,,,,,,None,None,None,,None,None,326.7531501170015,None,3,1,0.9979337950062472,326.7531501170015,None,327.7505892436893,None,None,None,None,,07,001,2023_Jan_18_1445,searchDisc5,2021.2.3,59.325819837728126,
images/exp2b_trial_250_colour3_distractors4_l.png,l,1,3,4,0,,,,,0,2,2,2,,,,,,,,,,,,,,,,,,,,,,,,,,,,,,,,,,,,,,,,,,,327.76937735499814,None,2,0.953721105994191,327.76937735499814,None,,,,,,,,,,,,,,,,None,None,None,,None,None,328.76992598199286,None,1,1,0.788099815021269,328.76992598199286,None,329.5509173446917,None,None,None,None,,07,001,2023_Jan_18_1445,searchDisc5,2021.2.3,59.325819837728126,
images/exp2c_trial_96_colour1_distractors1_r.png,r,3,1,1,0,,,,,0,3,3,3,,,,,,,,,,,,,,,,,,,,,,,,,,,,,,,,,,,,,,,,,,,329.566941660014,None,2,1.2036697279836517,329.566941660014,None,,,,,,,,,,,,,,,,None,None,None,,None,None,330.8178857289895,None,3,1,0.9060663799755275,330.8178857289895,None,331.7178285777045,None,None,None,None,,07,001,2023_Jan_18_1445,searchDisc5,2021.2.3,59.325819837728126,
images/exp2b_trial_56_colour2_distractors31_l.png,l,1,2,31,0,,,,,0,4,4,4,,,,,,,,,,,,,,,,,,,,,,,,,,,,,,,,,,,,,,,,,,,331.7337870740157,None,2,1.4562780790147372,331.7337870740157,None,,,,,,,,,,,,,,,,None,None,None,,None,None,333.23738304601284,None,1,1,1.230824713013135,333.23738304601284,None,334.46788368868874,None,None,None,None,,07,001,2023_Jan_18_1445,searchDisc5,2021.2.3,59.325819837728126,
images/exp1a_trial_127_colour0_distractors0_l.png,l,1,0,0,0,,,,,0,5,5,5,,,,,,,,,,,,,,,,,,,,,,,,,,,,,,,,,,,,,,,,,,,334.4839499699883,None,2,1.2867187749943696,334.4839499699883,None,,,,,,,,,,,,,,,,None,None,None,,None,None,335.8199894099962,None,1,1,0.9023133870214224,335.8199894099962,None,336.7174610737129,None,None,None,None,,07,001,2023_Jan_18_1445,searchDisc5,2021.2.3,59.325819837728126,
images/exp2a_trial_93_colour3_distractors31_l.png,l,1,3,31,0,,,,,0,6,6,6,,,,,,,,,,,,,,,,,,,,,,,,,,,,,,,,,,,,,,,,,,,336.7345870969875,None,2,1.506425402010791,336.7345870969875,None,,,,,,,,,,,,,,,,None,None,None,,None,None,338.2842936840025,None,1,1,1.0840276310045738,338.2842936840025,None,339.36802288069157,None,None,None,None,,07,001,2023_Jan_18_1445,searchDisc5,2021.2.3,59.325819837728126,
images/exp2c_trial_37_colour2_distractors1_r.png,r,3,2,1,0,,,,,0,7,7,7,,,,,,,,,,,,,,,,,,,,,,,,,,,,,,,,,,,,,,,,,,,339.38436714099953,None,2,0.887644241011003,339.38436714099953,None,,,,,,,,,,,,,,,,None,None,None,,None,None,340.31795736201457,None,3,1,1.069802340993192,340.31795736201457,None,341.3847176647105,None,None,None,None,,07,001,2023_Jan_18_1445,searchDisc5,2021.2.3,59.325819837728126,
images/exp2c_trial_264_colour2_distractors19_r.png,r,3,2,19,0,,,,,0,8,8,8,,,,,,,,,,,,,,,,,,,,,,,,,,,,,,,,,,,,,,,,,,,341.40293408799334,None,2,0.8566840009880252,341.40293408799334,None,,,,,,,,,,,,,,,,None,None,None,,None,None,342.3030595839955,None,3,1,1.315152287017554,342.3030595839955,None,343.61802144668764,None,None,None,None,,07,001,2023_Jan_18_1445,searchDisc5,2021.2.3,59.325819837728126,
images/exp1a_trial_29_colour3_distractors31_l.png,l,1,3,31,0,,,,,0,9,9,9,,,,,,,,,,,,,,,,,,,,,,,,,,,,,,,,,,,,,,,,,,,343.63650322399917,None,2,1.7399880410230253,343.63650322399917,None,,,,,,,,,,,,,,,,None,None,None,,None,None,345.4207870190148,None,1,1,0.9995661409921013,345.4207870190148,None,346.42019081971375,None,None,None,None,,07,001,2023_Jan_18_1445,searchDisc5,2021.2.3,59.325819837728126,
images/exp2c_trial_106_colour3_distractors1_r.png,r,3,3,1,0,,,,,0,10,10,10,,,,,,,,,,,,,,,,,,,,,,,,,,,,,,,,,,,,,,,,,,,346.43476525400183,None,2,1.4516937070002314,346.43476525400183,None,,,,,,,,,,,,,,,,None,None,None,,None,None,347.9370102630055,None,3,1,1.0061082920001354,347.9370102630055,None,348.9347600537003,None,None,None,None,,07,001,2023_Jan_18_1445,searchDisc5,2021.2.3,59.325819837728126,
images/exp2b_trial_133_colour2_distractors1_r.png,r,3,2,1,0,,,,,0,11,11,11,,,,,,,,,,,,,,,,,,,,,,,,,,,,,,,,,,,,,,,,,,,348.95144212499144,None,2,1.2545713059953414,348.95144212499144,None,,,,,,,,,,,,,,,,None,None,None,,None,None,350.25414502999047,None,3,1,1.0557371400063857,350.25414502999047,None,351.301491013699,None,None,None,None,,07,001,2023_Jan_18_1445,searchDisc5,2021.2.3,59.325819837728126,
images/exp1a_trial_199_colour2_distractors9_r.png,r,3,2,9,0,,,,,0,12,12,12,,,,,,,,,,,,,,,,,,,,,,,,,,,,,,,,,,,,,,,,,,,351.3183739770029,None,2,1.0879436240065843,351.3183739770029,None,,,,,,,,,,,,,,,,None,None,None,,None,None,352.4517265559989,None,3,1,0.9037555200047791,352.4517265559989,None,353.3517691697052,None,None,None,None,,07,001,2023_Jan_18_1445,searchDisc5,2021.2.3,59.325819837728126,
images/exp1a_trial_86_colour2_distractors9_l.png,l,1,2,9,0,,,,,0,13,13,13,,,,,,,,,,,,,,,,,,,,,,,,,,,,,,,,,,,,,,,,,,,353.36812050800654,None,2,0.9210595170152374,353.36812050800654,None,,,,,,,,,,,,,,,,None,None,None,,None,None,354.3350615820091,None,1,1,1.451285662013106,354.3350615820091,None,355.78501589471125,None,None,None,None,,07,001,2023_Jan_18_1445,searchDisc5,2021.2.3,59.325819837728126,
images/exp1a_trial_210_colour1_distractors19_l.png,l,1,1,19,0,,,,,0,14,14,14,,,,,,,,,,,,,,,,,,,,,,,,,,,,,,,,,,,,,,,,,,,355.8034640850092,None,2,0.954791419004323,355.8034640850092,None,,,,,,,,,,,,,,,,None,None,None,,None,None,356.8017715699971,None,1,1,1.338083373993868,356.8017715699971,None,358.1354749647144,None,None,None,None,,07,001,2023_Jan_18_1445,searchDisc5,2021.2.3,59.325819837728126,
images/exp1a_trial_85_colour2_distractors4_l.png,l,1,2,4,0,,,,,0,15,15,15,,,,,,,,,,,,,,,,,,,,,,,,,,,,,,,,,,,,,,,,,,,358.1514429480012,None,2,0.7684567949909251,358.1514429480012,None,,,,,,,,,,,,,,,,None,None,None,,None,None,358.96804431299097,None,1,1,1.0022290209890343,358.96804431299097,None,359.96864402270876,None,None,None,None,,07,001,2023_Jan_18_1445,searchDisc5,2021.2.3,59.325819837728126,
images/exp2b_trial_99_colour1_distractors19_r.png,r,3,1,19,0,,,,,0,16,16,16,,,,,,,,,,,,,,,,,,,,,,,,,,,,,,,,,,,,,,,,,,,359.9867805959948,None,2,1.187831401010044,359.9867805959948,None,,,,,,,,,,,,,,,,None,None,None,,None,None,361.21885986899724,None,3,1,1.3361895979905967,361.21885986899724,None,362.5511982027092,None,None,None,None,,07,001,2023_Jan_18_1445,searchDisc5,2021.2.3,59.325819837728126,
images/exp2c_trial_26_colour3_distractors4_l.png,l,1,3,4,0,,,,,0,17,17,17,,,,,,,,,,,,,,,,,,,,,,,,,,,,,,,,,,,,,,,,,,,362.56816991299274,None,2,0.7381234909989871,362.56816991299274,None,,,,,,,,,,,,,,,,None,None,None,,None,None,363.3543069699954,None,1,1,1.305604681983823,363.3543069699954,None,364.6519858246902,None,None,None,None,,07,001,2023_Jan_18_1445,searchDisc5,2021.2.3,59.325819837728126,
images/exp2a_trial_51_colour1_distractors31_l.png,l,1,1,31,0,,,,,0,18,18,18,,,,,,,,,,,,,,,,,,,,,,,,,,,,,,,,,,,,,,,,,,,364.6686019549961,None,2,0.6064729159988929,364.6686019549961,None,,,,,,,,,,,,,,,,None,None,None,,None,None,365.3201861749985,None,1,1,1.084102396009257,365.3201861749985,None,366.40193733369233,None,None,None,None,,07,001,2023_Jan_18_1445,searchDisc5,2021.2.3,59.325819837728126,
images/exp2c_trial_67_colour1_distractors19_r.png,r,3,1,19,0,,,,,0,19,19,19,,,,,,,,,,,,,,,,,,,,,,,,,,,,,,,,,,,,,,,,,,,366.41828544199234,None,2,0.7881522699899506,366.41828544199234,None,,,,,,,,,,,,,,,,None,None,None,,None,None,367.2544965650013,None,3,1,1.1707535289751831,367.2544965650013,None,368.4188670137082,None,None,None,None,,07,001,2023_Jan_18_1445,searchDisc5,2021.2.3,59.325819837728126,
images/exp1a_trial_38_colour2_distractors4_r.png,r,3,2,4,0,,,,,0,20,20,20,,,,,,,,,,,,,,,,,,,,,,,,,,,,,,,,,,,,,,,,,,,368.4353603130148,None,2,0.9563431929855142,368.4353603130148,None,,,,,,,,,,,,,,,,None,None,None,,None,None,369.43539271201007,None,3,1,1.0859760570165236,369.43539271201007,None,370.51900865870994,None,None,None,None,,07,001,2023_Jan_18_1445,searchDisc5,2021.2.3,59.325819837728126,
images/exp2a_trial_281_colour3_distractors1_l.png,l,1,3,1,0,,,,,0,21,21,21,,,,,,,,,,,,,,,,,,,,,,,,,,,,,,,,,,,,,,,,,,,370.53518543599057,None,2,1.0712997440132312,370.53518543599057,None,,,,,,,,,,,,,,,,None,None,None,,None,None,371.6542654990044,None,1,1,0.9554692439851351,371.6542654990044,None,372.6022217916907,None,None,None,None,,07,001,2023_Jan_18_1445,searchDisc5,2021.2.3,59.325819837728126,
images/exp1a_trial_218_colour3_distractors4_l.png,l,1,3,4,0,,,,,0,22,22,22,,,,,,,,,,,,,,,,,,,,,,,,,,,,,,,,,,,,,,,,,,,372.6189866840141,None,2,0.9377802170056384,372.6189866840141,None,,,,,,,,,,,,,,,,None,None,None,,None,None,373.60439621299156,None,1,1,0.9215307440026663,373.60439621299156,None,374.5187429237121,None,None,None,None,,07,001,2023_Jan_18_1445,searchDisc5,2021.2.3,59.325819837728126,
images/exp2a_trial_5_colour2_distractors1_r.png,r,3,2,1,0,,,,,0,23,23,23,,,,,,,,,,,,,,,,,,,,,,,,,,,,,,,,,,,,,,,,,,,374.5348565210006,None,2,0.8568533799843863,374.5348565210006,None,,,,,,,,,,,,,,,,None,None,None,,None,None,375.4378708350123,None,3,1,1.270478305988945,375.4378708350123,None,376.7022753577039,None,None,None,None,,07,001,2023_Jan_18_1445,searchDisc5,2021.2.3,59.325819837728126,
images/exp1a_trial_61_colour3_distractors31_l.png,l,1,3,31,0,,,,,0,24,24,24,,,,,,,,,,,,,,,,,,,,,,,,,,,,,,,,,,,,,,,,,,,376.7187030049972,None,2,0.7069352639955468,376.7187030049972,None,,,,,,,,,,,,,,,,None,None,None,,None,None,377.4722259720147,None,1,1,0.9973346519982442,377.4722259720147,None,378.4692375056911,None,None,None,None,,07,001,2023_Jan_18_1445,searchDisc5,2021.2.3,59.325819837728126,
images/exp2c_trial_68_colour1_distractors31_r.png,r,3,1,31,0,,,,,0,25,25,25,,,,,,,,,,,,,,,,,,,,,,,,,,,,,,,,,,,,,,,,,,,378.4855098729895,None,2,1.1398275670071598,378.4855098729895,None,,,,,,,,,,,,,,,,None,None,None,,None,None,379.67133759500575,None,3,1,0.8996664090082049,379.67133759500575,None,380.56926341270446,None,None,None,None,,07,001,2023_Jan_18_1445,searchDisc5,2021.2.3,59.325819837728126,
images/exp1a_trial_108_colour3_distractors9_r.png,r,3,3,9,0,,,,,0,26,26,26,,,,,,,,,,,,,,,,,,,,,,,,,,,,,,,,,,,,,,,,,,,380.58560966100777,None,2,0.839963513019029,380.58560966100777,None,,,,,,,,,,,,,,,,None,None,None,,None,None,381.468869600998,None,3,1,0.8684833610022906,381.468869600998,None,382.33599814469926,None,None,None,None,,07,001,2023_Jan_18_1445,searchDisc5,2021.2.3,59.325819837728126,
images/exp2a_trial_313_colour3_distractors1_l.png,l,1,3,1,0,,,,,0,27,27,27,,,,,,,,,,,,,,,,,,,,,,,,,,,,,,,,,,,,,,,,,,,382.35243982900283,None,2,0.7709580170048866,382.35243982900283,None,,,,,,,,,,,,,,,,None,None,None,,None,None,383.1710579399951,None,1,1,0.8559367660200223,383.1710579399951,None,384.0192469226895,None,None,None,None,,07,001,2023_Jan_18_1445,searchDisc5,2021.2.3,59.325819837728126,
images/exp2c_trial_250_colour3_distractors4_l.png,l,1,3,4,0,,,,,0,28,28,28,,,,,,,,,,,,,,,,,,,,,,,,,,,,,,,,,,,,,,,,,,,384.0352681360091,None,2,0.6237059829873033,384.0352681360091,None,,,,,,,,,,,,,,,,None,None,None,,None,None,384.70405942900106,None,1,1,0.8862842999806162,384.70405942900106,None,385.5858833667007,None,None,None,None,,07,001,2023_Jan_18_1445,searchDisc5,2021.2.3,59.325819837728126,
images/exp1a_trial_13_colour3_distractors19_r.png,r,3,3,19,0,,,,,0,29,29,29,,,,,,,,,,,,,,,,,,,,,,,,,,,,,,,,,,,,,,,,,,,385.6020476529957,None,2,0.5874281249998603,385.6020476529957,None,,,,,,,,,,,,,,,,None,None,None,,None,None,386.23778909799876,None,3,1,0.8848864300234709,386.23778909799876,None,387.1193047297129,None,None,None,None,,07,001,2023_Jan_18_1445,searchDisc5,2021.2.3,59.325819837728126,
images/exp2c_trial_299_colour3_distractors4_r.png,r,3,3,4,0,,,,,0,30,30,30,,,,,,,,,,,,,,,,,,,,,,,,,,,,,,,,,,,,,,,,,,,387.13574560999405,None,2,0.6209611610102002,387.13574560999405,None,,,,,,,,,,,,,,,,None,None,None,,None,None,387.8028117629874,None,3,1,0.9397523050138261,387.8028117629874,None,388.7363563076942,None,None,None,None,,07,001,2023_Jan_18_1445,searchDisc5,2021.2.3,59.325819837728126,
images/exp1a_trial_59_colour3_distractors9_l.png,l,1,3,9,0,,,,,0,31,31,31,,,,,,,,,,,,,,,,,,,,,,,,,,,,,,,,,,,,,,,,,,,388.75449804900563,None,2,0.48743193998234347,388.75449804900563,None,,,,,,,,,,,,,,,,None,None,None,,None,None,389.28838979199645,None,1,1,0.8249094990023877,389.28838979199645,None,390.1048282837146,None,None,None,None,,07,001,2023_Jan_18_1445,searchDisc5,2021.2.3,59.325819837728126,
images/exp2a_trial_141_colour3_distractors19_r.png,r,3,3,19,0,,,,,0,32,32,32,,,,,,,,,,,,,,,,,,,,,,,,,,,,,,,,,,,,,,,,,,,390.1214128099964,None,2,0.6327481740154326,390.1214128099964,None,,,,,,,,,,,,,,,,None,None,None,,None,None,390.80488877900643,None,3,1,0.8701228230202105,390.80488877900643,None,391.66945620271144,None,None,None,None,,07,001,2023_Jan_18_1445,searchDisc5,2021.2.3,59.325819837728126,
images/exp2c_trial_302_colour3_distractors31_r.png,r,3,3,31,0,,,,,0,33,33,33,,,,,,,,,,,,,,,,,,,,,,,,,,,,,,,,,,,,,,,,,,,391.6860374159878,None,2,0.5536220070207492,391.6860374159878,None,,,,,,,,,,,,,,,,None,None,None,,None,None,392.2878922439995,None,3,1,1.3204738970089238,392.2878922439995,None,393.60289942868985,None,None,None,None,,07,001,2023_Jan_18_1445,searchDisc5,2021.2.3,59.325819837728126,
images/exp2c_trial_185_colour3_distractors1_l.png,l,1,3,1,0,,,,,0,34,34,34,,,,,,,,,,,,,,,,,,,,,,,,,,,,,,,,,,,,,,,,,,,393.619143377,None,2,0.604436188004911,393.619143377,None,,,,,,,,,,,,,,,,None,None,None,,None,None,394.26954351199674,None,1,1,0.821829449996585,394.26954351199674,None,395.08615766771254,None,None,None,None,,07,001,2023_Jan_18_1445,searchDisc5,2021.2.3,59.325819837728126,
images/exp1a_trial_92_colour3_distractors19_l.png,l,1,3,19,0,,,,,0,35,35,35,,,,,,,,,,,,,,,,,,,,,,,,,,,,,,,,,,,,,,,,,,,395.10283666700707,None,2,0.7045662209857255,395.10283666700707,None,,,,,,,,,,,,,,,,None,None,None,,None,None,395.8524414419953,None,1,1,0.902881902991794,395.8524414419953,None,396.7529853917076,None,None,None,None,,07,001,2023_Jan_18_1445,searchDisc5,2021.2.3,59.325819837728126,
images/exp2a_trial_302_colour3_distractors31_r.png,r,3,3,31,0,,,,,0,36,36,36,,,,,,,,,,,,,,,,,,,,,,,,,,,,,,,,,,,,,,,,,,,396.76950593301444,None,2,0.5376918230031151,396.76950593301444,None,,,,,,,,,,,,,,,,None,None,None,,None,None,397.3528998490074,None,3,1,0.9213451679970603,397.3528998490074,None,398.2697324877081,None,None,None,None,,07,001,2023_Jan_18_1445,searchDisc5,2021.2.3,59.325819837728126,
images/exp2c_trial_227_colour1_distractors19_r.png,r,3,1,19,0,,,,,0,37,37,37,,,,,,,,,,,,,,,,,,,,,,,,,,,,,,,,,,,,,,,,,,,398.2858869130141,None,2,0.7186031239980366,398.2858869130141,None,,,,,,,,,,,,,,,,None,None,None,,None,None,399.054772323987,None,3,1,0.8536334930104204,399.054772323987,None,399.9029162527004,None,None,None,None,,07,001,2023_Jan_18_1445,searchDisc5,2021.2.3,59.325819837728126,
images/exp2c_trial_64_colour1_distractors1_r.png,r,3,1,1,0,,,,,0,38,38,38,,,,,,,,,,,,,,,,,,,,,,,,,,,,,,,,,,,,,,,,,,,399.9191408889892,None,2,0.6562817399972118,399.9191408889892,None,,,,,,,,,,,,,,,,None,None,None,,None,None,400.61924757101224,None,3,1,0.8195513300015591,400.61924757101224,None,401.4363159557106,None,None,None,None,,07,001,2023_Jan_18_1445,searchDisc5,2021.2.3,59.325819837728126,
images/exp2a_trial_161_colour1_distractors4_r.png,r,3,1,4,0,,,,,0,39,39,39,,,,,,,,,,,,,,,,,,,,,,,,,,,,,,,,,,,,,,,,,,,401.4528612669965,None,2,0.5544064959976822,401.4528612669965,None,,,,,,,,,,,,,,,,None,None,None,,None,None,402.05491152600734,None,3,1,0.704733539983863,402.05491152600734,None,402.75306839871337,None,None,None,None,,07,001,2023_Jan_18_1445,searchDisc5,2021.2.3,59.325819837728126,
images/exp2c_trial_165_colour2_distractors1_r.png,r,3,2,1,0,,,,,0,40,40,40,,,,,,,,,,,,,,,,,,,,,,,,,,,,,,,,,,,,,,,,,,,402.76932937299716,None,2,0.5204132560174912,402.76932937299716,None,,,,,,,,,,,,,,,,None,None,None,,None,None,403.33653243401204,None,3,1,0.6733543050067965,403.33653243401204,None,404.0032745836943,None,None,None,None,,07,001,2023_Jan_18_1445,searchDisc5,2021.2.3,59.325819837728126,
images/exp2a_trial_68_colour1_distractors31_r.png,r,3,1,31,0,,,,,0,41,41,41,,,,,,,,,,,,,,,,,,,,,,,,,,,,,,,,,,,,,,,,,,,404.0216444109974,None,2,0.5210772230057046,404.0216444109974,None,,,,,,,,,,,,,,,,None,None,None,,None,None,404.58613897601026,None,3,1,0.7659641939972062,404.58613897601026,None,405.3525205786864,None,None,None,None,,07,001,2023_Jan_18_1445,searchDisc5,2021.2.3,59.325819837728126,
images/exp2c_trial_303_colour1_distractors1_l.png,l,1,1,1,0,,,,,0,42,42,42,,,,,,,,,,,,,,,,,,,,,,,,,,,,,,,,,,,,,,,,,,,405.3698203910026,None,2,0.5716434360074345,405.3698203910026,None,,,,,,,,,,,,,,,,None,None,None,,None,None,405.98613617999945,None,1,1,0.7391910680162255,405.98613617999945,None,406.72001150168944,None,None,None,None,,07,001,2023_Jan_18_1445,searchDisc5,2021.2.3,59.325819837728126,
images/exp1a_trial_310_colour2_distractors9_l.png,l,1,2,9,0,,,,,0,43,43,43,,,,,,,,,,,,,,,,,,,,,,,,,,,,,,,,,,,,,,,,,,,406.73615663399687,None,2,0.5210940649849363,406.73615663399687,None,,,,,,,,,,,,,,,,None,None,None,,None,None,407.30287584499456,None,1,1,0.8203964829735924,407.30287584499456,None,408.12001297369716,None,None,None,None,,07,001,2023_Jan_18_1445,searchDisc5,2021.2.3,59.325819837728126,
images/exp2c_trial_255_colour0_distractors0_l.png,l,1,0,0,0,,,,,0,44,44,44,,,,,,,,,,,,,,,,,,,,,,,,,,,,,,,,,,,,,,,,,,,408.13645344399265,None,2,0.523045526992064,408.13645344399265,None,,,,,,,,,,,,,,,,None,None,None,,None,None,408.7054821889906,None,1,1,0.8040804580086842,408.7054821889906,None,409.503212784708,None,None,None,None,,07,001,2023_Jan_18_1445,searchDisc5,2021.2.3,59.325819837728126,
images/exp2b_trial_144_colour1_distractors4_l.png,l,1,1,4,0,,,,,0,45,45,45,,,,,,,,,,,,,,,,,,,,,,,,,,,,,,,,,,,,,,,,,,,409.5196553360147,None,2,0.5547191890073009,409.5196553360147,None,,,,,,,,,,,,,,,,None,None,None,,None,None,410.11995966601535,None,1,1,0.9389877789944876,410.11995966601535,None,411.05349124170607,None,None,None,None,,07,001,2023_Jan_18_1445,searchDisc5,2021.2.3,59.325819837728126,
images/exp2a_trial_265_colour2_distractors31_r.png,r,3,2,31,0,,,,,0,46,46,46,,,,,,,,,,,,,,,,,,,,,,,,,,,,,,,,,,,,,,,,,,,411.0698910150095,None,2,0.5709772059926763,411.0698910150095,None,,,,,,,,,,,,,,,,None,None,None,,None,None,411.68614150301437,None,3,1,1.111095990985632,411.68614150301437,None,412.8034163537086,None,None,None,None,,07,001,2023_Jan_18_1445,searchDisc5,2021.2.3,59.325819837728126,
images/exp2c_trial_56_colour2_distractors31_l.png,l,1,2,31,0,,,,,0,47,47,47,,,,,,,,,,,,,,,,,,,,,,,,,,,,,,,,,,,,,,,,,,,412.81973122101044,None,2,1.0211686480033677,412.81973122101044,None,,,,,,,,,,,,,,,,None,None,None,,None,None,413.8883781490149,None,1,1,1.0361547009961214,413.8883781490149,None,414.9199363657099,None,None,None,None,,07,001,2023_Jan_18_1445,searchDisc5,2021.2.3,59.325819837728126,
images/exp1a_trial_20_colour2_distractors1_l.png,l,1,2,1,0,,,,,0,48,48,48,,,,,,,,,,,,,,,,,,,,,,,,,,,,,,,,,,,,,,,,,,,414.93667819700204,None,2,0.9567737659963313,414.93667819700204,None,,,,,,,,,,,,,,,,None,None,None,,None,None,415.93691870200564,None,1,1,0.9365451789926738,415.93691870200564,None,416.86969712670543,None,None,None,None,,07,001,2023_Jan_18_1445,searchDisc5,2021.2.3,59.325819837728126,
images/exp2b_trial_180_colour2_distractors1_l.png,l,1,2,1,0,,,,,0,49,49,49,,,,,,,,,,,,,,,,,,,,,,,,,,,,,,,,,,,,,,,,,,,416.88692390199867,None,2,1.0382364010147285,416.88692390199867,None,,,,,,,,,,,,,,,,None,None,None,,None,None,417.97038162799436,None,1,1,0.75554814201314,417.97038162799436,None,418.71956825771485,None,None,None,None,,07,001,2023_Jan_18_1445,searchDisc5,2021.2.3,59.325819837728126,
images/exp1a_trial_110_colour3_distractors31_r.png,r,3,3,31,0,,,,,0,50,50,50,,,,,,,,,,,,,,,,,,,,,,,,,,,,,,,,,,,,,,,,,,,418.73679058099515,None,2,0.8571321600174997,418.73679058099515,None,,,,,,,,,,,,,,,,None,None,None,,None,None,419.637077708001,None,3,1,0.8498367180000059,419.637077708001,None,420.48688223271165,None,None,None,None,,07,001,2023_Jan_18_1445,searchDisc5,2021.2.3,59.325819837728126,
images/exp2c_trial_18_colour1_distractors19_l.png,l,1,1,19,0,,,,,0,51,51,51,,,,,,,,,,,,,,,,,,,,,,,,,,,,,,,,,,,,,,,,,,,420.5034910230024,None,2,0.6185970539809205,420.5034910230024,None,,,,,,,,,,,,,,,,None,None,None,,None,None,421.1721696660097,None,1,1,1.0682919440150727,421.1721696660097,None,422.23707223369274,None,None,None,None,,07,001,2023_Jan_18_1445,searchDisc5,2021.2.3,59.325819837728126,
images/exp2c_trial_78_colour3_distractors31_r.png,r,3,3,31,0,,,,,0,52,52,52,,,,,,,,,,,,,,,,,,,,,,,,,,,,,,,,,,,,,,,,,,,422.25378679300775,None,2,0.9371151589730289,422.25378679300775,None,,,,,,,,,,,,,,,,None,None,None,,None,None,423.2369030099944,None,3,1,0.8864865970099345,423.2369030099944,None,424.1202817106969,None,None,None,None,,07,001,2023_Jan_18_1445,searchDisc5,2021.2.3,59.325819837728126,
images/exp2b_trial_41_colour2_distractors31_r.png,r,3,2,31,0,,,,,0,53,53,53,,,,,,,,,,,,,,,,,,,,,,,,,,,,,,,,,,,,,,,,,,,424.1371909379959,None,2,0.7212036159762647,424.1371909379959,None,,,,,,,,,,,,,,,,None,None,None,,None,None,424.90358391200425,None,3,1,1.1367426139768213,424.90358391200425,None,426.03697392268805,None,None,None,None,,07,001,2023_Jan_18_1445,searchDisc5,2021.2.3,59.325819837728126,
images/exp1a_trial_34_colour1_distractors9_r.png,r,3,1,9,0,,,,,0,54,54,54,,,,,,,,,,,,,,,,,,,,,,,,,,,,,,,,,,,,,,,,,,,426.05357507400913,None,2,0.5563887339958455,426.05357507400913,None,,,,,,,,,,,,,,,,None,None,None,,None,None,426.6551142190001,None,3,1,0.7842088489851449,426.6551142190001,None,427.4370094347105,None,None,None,None,,07,001,2023_Jan_18_1445,searchDisc5,2021.2.3,59.325819837728126,
images/exp2b_trial_71_colour2_distractors9_r.png,r,3,2,9,0,,,,,0,55,55,55,,,,,,,,,,,,,,,,,,,,,,,,,,,,,,,,,,,,,,,,,,,427.4556801879953,None,2,0.5400569179910235,427.4556801879953,None,,,,,,,,,,,,,,,,None,None,None,,None,None,428.0394021469983,None,3,1,0.802299478003988,428.0394021469983,None,428.8371013517026,None,None,None,None,,07,001,2023_Jan_18_1445,searchDisc5,2021.2.3,59.325819837728126,
images/exp2c_trial_70_colour2_distractors4_r.png,r,3,2,4,0,,,,,0,56,56,56,,,,,,,,,,,,,,,,,,,,,,,,,,,,,,,,,,,,,,,,,,,428.85328704700805,None,2,0.4566818399762269,428.85328704700805,None,,,,,,,,,,,,,,,,None,None,None,,None,None,429.35632635399816,None,3,1,0.7357920130016282,429.35632635399816,None,430.08662409271346,None,None,None,None,,07,001,2023_Jan_18_1445,searchDisc5,2021.2.3,59.325819837728126,
images/exp2c_trial_193_colour1_distractors4_r.png,r,3,1,4,0,,,,,0,57,57,57,,,,,,,,,,,,,,,,,,,,,,,,,,,,,,,,,,,,,,,,,,,430.1040176629904,None,2,0.48794375100987963,430.1040176629904,None,,,,,,,,,,,,,,,,None,None,None,,None,None,430.6372794669878,None,3,1,0.7724030920071527,430.6372794669878,None,431.4038635886973,None,None,None,None,,07,001,2023_Jan_18_1445,searchDisc5,2021.2.3,59.325819837728126,
images/exp1a_trial_179_colour1_distractors31_l.png,l,1,1,31,0,,,,,0,58,58,58,,,,,,,,,,,,,,,,,,,,,,,,,,,,,,,,,,,,,,,,,,,431.4204743030132,None,2,0.4711839899828192,431.4204743030132,None,,,,,,,,,,,,,,,,None,None,None,,None,None,431.93740702600917,None,1,1,0.9167868980148342,431.93740702600917,None,432.85397285970976,None,None,None,None,,07,001,2023_Jan_18_1445,searchDisc5,2021.2.3,59.325819837728126,
images/exp2b_trial_265_colour2_distractors31_r.png,r,3,2,31,0,,,,,0,59,59,59,,,,,,,,,,,,,,,,,,,,,,,,,,,,,,,,,,,,,,,,,,,432.8725605230138,None,2,0.5046508130035363,432.8725605230138,None,,,,,,,,,,,,,,,,None,None,None,,None,None,433.4207017600129,None,3,1,0.7026760889857542,433.4207017600129,None,434.1204932706896,None,None,None,None,,07,001,2023_Jan_18_1445,searchDisc5,2021.2.3,59.325819837728126,
images/exp2c_trial_25_colour3_distractors1_l.png,l,1,3,1,0,,,,,0,60,60,60,,,,,,,,,,,,,,,,,,,,,,,,,,,,,,,,,,,,,,,,,,,434.137239942007,None,2,0.5408379720174707,434.137239942007,None,,,,,,,,,,,,,,,,None,None,None,,None,None,434.72083983401535,None,1,1,0.7859752789954655,434.72083983401535,None,435.50394192070235,None,None,None,None,,07,001,2023_Jan_18_1445,searchDisc5,2021.2.3,59.325819837728126,
images/exp2c_trial_16_colour1_distractors4_l.png,l,1,1,4,0,,,,,0,61,61,61,,,,,,,,,,,,,,,,,,,,,,,,,,,,,,,,,,,,,,,,,,,435.5205531580141,None,2,0.5210102660057601,435.5205531580141,None,,,,,,,,,,,,,,,,None,None,None,,None,None,436.08748647000175,None,1,1,1.5220433179929387,436.08748647000175,None,437.6039077017049,None,None,None,None,,07,001,2023_Jan_18_1445,searchDisc5,2021.2.3,59.325819837728126,
images/exp2c_trial_279_colour2_distractors19_l.png,l,1,2,19,0,,,,,0,62,62,62,,,,,,,,,,,,,,,,,,,,,,,,,,,,,,,,,,,,,,,,,,,437.62074298100197,None,2,0.520854294009041,437.62074298100197,None,,,,,,,,,,,,,,,,None,None,None,,None,None,438.1872573820001,None,1,1,1.0878883670084178,438.1872573820001,None,439.27075444869115,None,None,None,None,,07,001,2023_Jan_18_1445,searchDisc5,2021.2.3,59.325819837728126,
images/exp2c_trial_135_colour2_distractors9_r.png,r,3,2,9,0,,,,,0,63,63,63,,,,,,,,,,,,,,,,,,,,,,,,,,,,,,,,,,,,,,,,,,,439.2875788829988,None,2,0.3879402750171721,439.2875788829988,None,,,,,,,,,,,,,,,,None,None,None,,None,None,439.7228398240113,None,3,1,0.8211035360000096,439.7228398240113,None,440.53750966570806,None,None,None,None,,07,001,2023_Jan_18_1445,searchDisc5,2021.2.3,59.325819837728126,
images/exp1a_trial_302_colour3_distractors31_r.png,r,3,3,31,0,,,,,0,64,64,64,,,,,,,,,,,,,,,,,,,,,,,,,,,,,,,,,,,,,,,,,,,440.55382092201035,None,2,0.4398614529927727,440.55382092201035,None,,,,,,,,,,,,,,,,None,None,None,,None,None,441.0398128369998,None,3,1,0.9651436500134878,441.0398128369998,None,442.0043506757065,None,None,None,None,,07,001,2023_Jan_18_1445,searchDisc5,2021.2.3,59.325819837728126,
images/exp2b_trial_90_colour3_distractors4_l.png,l,1,3,4,0,,,,,0,65,65,65,,,,,,,,,,,,,,,,,,,,,,,,,,,,,,,,,,,,,,,,,,,442.02087038601167,None,2,0.5367489560157992,442.02087038601167,None,,,,,,,,,,,,,,,,None,None,None,,None,None,442.60370116500417,None,1,1,1.0564435179985594,442.60370116500417,None,443.6537094076921,None,None,None,None,,07,001,2023_Jan_18_1445,searchDisc5,2021.2.3,59.325819837728126,
images/exp2b_trial_111_colour1_distractors1_l.png,l,1,1,1,0,,,,,0,66,66,66,,,,,,,,,,,,,,,,,,,,,,,,,,,,,,,,,,,,,,,,,,,443.67302987599396,None,2,0.455035216989927,443.67302987599396,None,,,,,,,,,,,,,,,,None,None,None,,None,None,444.17119488099706,None,1,1,0.9394016200094484,444.17119488099706,None,445.1043447187112,None,None,None,None,,07,001,2023_Jan_18_1445,searchDisc5,2021.2.3,59.325819837728126,
images/exp2a_trial_120_colour2_distractors31_l.png,l,1,2,31,0,,,,,0,67,67,67,,,,,,,,,,,,,,,,,,,,,,,,,,,,,,,,,,,,,,,,,,,445.1206820560037,None,2,0.5211672129807994,445.1206820560037,None,,,,,,,,,,,,,,,,None,None,None,,None,None,445.69280905200867,None,1,1,1.2116954470111523,445.69280905200867,None,446.90427865469246,None,None,None,None,,07,001,2023_Jan_18_1445,searchDisc5,2021.2.3,59.325819837728126,
images/exp1a_trial_57_colour3_distractors1_l.png,l,1,3,1,0,,,,,0,68,68,68,,,,,,,,,,,,,,,,,,,,,,,,,,,,,,,,,,,,,,,,,,,446.9209348229924,None,2,0.5212967340194155,446.9209348229924,None,,,,,,,,,,,,,,,,None,None,None,,None,None,447.48989666899433,None,1,1,0.9391252640052699,447.48989666899433,None,448.4209987036884,None,None,None,None,,07,001,2023_Jan_18_1445,searchDisc5,2021.2.3,59.325819837728126,
images/exp2c_trial_59_colour3_distractors9_l.png,l,1,3,9,0,,,,,0,69,69,69,,,,,,,,,,,,,,,,,,,,,,,,,,,,,,,,,,,,,,,,,,,448.43968045301153,None,2,0.5210181240108795,448.43968045301153,None,,,,,,,,,,,,,,,,None,None,None,,None,None,449.0045611310052,None,1,1,1.1718023579742294,449.0045611310052,None,450.1709525786864,None,None,None,None,,07,001,2023_Jan_18_1445,searchDisc5,2021.2.3,59.325819837728126,
images/exp2c_trial_31_colour0_distractors0_l.png,l,1,0,0,0,,,,,0,70,70,70,,,,,,,,,,,,,,,,,,,,,,,,,,,,,,,,,,,,,,,,,,,450.1870354079874,None,2,0.4047256350168027,450.1870354079874,None,,,,,,,,,,,,,,,,None,None,None,,None,None,450.63991113498923,None,1,1,0.9725330170185771,450.63991113498923,None,451.6037727527146,None,None,None,None,,07,001,2023_Jan_18_1445,searchDisc5,2021.2.3,59.325819837728126,
images/exp1a_trial_221_colour3_distractors31_l.png,l,1,3,31,0,,,,,0,71,71,71,,,,,,,,,,,,,,,,,,,,,,,,,,,,,,,,,,,,,,,,,,,451.621357660013,None,2,1.8716373839997686,451.621357660013,None,,,,,,,,,,,,,,,,None,None,None,,None,None,453.5378796859877,None,1,1,0.8495871509949211,453.5378796859877,None,454.3878839056997,None,None,None,None,,07,001,2023_Jan_18_1445,searchDisc5,2021.2.3,59.325819837728126,
images/exp2b_trial_237_colour3_distractors19_r.png,r,3,3,19,0,,,,,0,72,72,72,,,,,,,,,,,,,,,,,,,,,,,,,,,,,,,,,,,,,,,,,,,454.40415433599264,None,2,0.8212354650022462,454.40415433599264,None,,,,,,,,,,,,,,,,None,None,None,,None,None,455.27092651999556,None,3,1,1.2530150189995766,455.27092651999556,None,456.5205563156924,None,None,None,None,,07,001,2023_Jan_18_1445,searchDisc5,2021.2.3,59.325819837728126,
images/exp2b_trial_52_colour2_distractors1_l.png,l,1,2,1,0,,,,,0,73,73,73,,,,,,,,,,,,,,,,,,,,,,,,,,,,,,,,,,,,,,,,,,,456.53800585100544,None,2,0.5573463150067255,456.53800585100544,None,,,,,,,,,,,,,,,,None,None,None,,None,None,457.14006052800687,None,1,1,0.8872000340197701,457.14006052800687,None,458.02121707369224,None,None,None,None,,07,001,2023_Jan_18_1445,searchDisc5,2021.2.3,59.325819837728126,
images/exp2a_trial_316_colour3_distractors19_l.png,l,1,3,19,0,,,,,0,74,74,74,,,,,,,,,,,,,,,,,,,,,,,,,,,,,,,,,,,,,,,,,,,458.0377681509999,None,2,0.6242941539967433,458.0377681509999,None,,,,,,,,,,,,,,,,None,None,None,,None,None,458.70465959899593,None,1,1,0.7836478160170373,458.70465959899593,None,459.48796351769124,None,None,None,None,,07,001,2023_Jan_18_1445,searchDisc5,2021.2.3,59.325819837728126,
images/exp2a_trial_254_colour0_distractors0_r.png,r,3,0,0,0,,,,,0,75,75,75,,,,,,,,,,,,,,,,,,,,,,,,,,,,,,,,,,,,,,,,,,,459.5062244180008,None,2,0.9045246089808643,459.5062244180008,None,,,,,,,,,,,,,,,,None,None,None,,None,None,460.45499619600014,None,3,1,0.7725064199767075,460.45499619600014,None,461.22116478168755,None,None,None,None,,07,001,2023_Jan_18_1445,searchDisc5,2021.2.3,59.325819837728126,
images/exp2b_trial_196_colour1_distractors31_r.png,r,3,1,31,0,,,,,0,76,76,76,,,,,,,,,,,,,,,,,,,,,,,,,,,,,,,,,,,,,,,,,,,461.2376074519998,None,2,0.48816424899268895,461.2376074519998,None,,,,,,,,,,,,,,,,None,None,None,,None,None,461.77158389799297,None,3,1,0.8353823150100652,461.77158389799297,None,462.6048040947062,None,None,None,None,,07,001,2023_Jan_18_1445,searchDisc5,2021.2.3,59.325819837728126,
images/exp2c_trial_311_colour2_distractors19_l.png,l,1,2,19,0,,,,,0,77,77,77,,,,,,,,,,,,,,,,,,,,,,,,,,,,,,,,,,,,,,,,,,,462.62124545901315,None,2,0.6204511400137562,462.62124545901315,None,,,,,,,,,,,,,,,,None,None,None,,None,None,463.28826733099413,None,1,1,1.1225431060011033,463.28826733099413,None,464.40468508269987,None,None,None,None,,07,001,2023_Jan_18_1445,searchDisc5,2021.2.3,59.325819837728126,
images/exp1a_trial_296_colour2_distractors19_r.png,r,3,2,19,0,,,,,0,78,78,78,,,,,,,,,,,,,,,,,,,,,,,,,,,,,,,,,,,,,,,,,,,464.42125645800843,None,2,0.70284806197742,464.42125645800843,None,,,,,,,,,,,,,,,,None,None,None,,None,None,465.1709775849886,None,3,1,0.8188393260061275,465.1709775849886,None,465.98813607668853,None,None,None,None,,07,001,2023_Jan_18_1445,searchDisc5,2021.2.3,59.325819837728126,
images/exp1a_trial_242_colour1_distractors19_l.png,l,1,1,19,0,,,,,0,79,79,79,,,,,,,,,,,,,,,,,,,,,,,,,,,,,,,,,,,,,,,,,,,466.0045236099977,None,2,0.8379495209956076,466.0045236099977,None,,,,,,,,,,,,,,,,None,None,None,,None,None,466.88832564500626,None,1,1,0.7513540239888243,466.88832564500626,None,467.6381487326871,None,None,None,None,,07,001,2023_Jan_18_1445,searchDisc5,2021.2.3,59.325819837728126,
images/exp2b_trial_169_colour2_distractors31_r.png,r,3,2,31,0,,,,,0,80,80,80,,,,,,,,,,,,,,,,,,,,,,,,,,,,,,,,,,,,,,,,,,,467.65471663398785,None,2,0.589820258988766,467.65471663398785,None,,,,,,,,,,,,,,,,None,None,None,,None,None,468.290434827999,None,3,1,0.9666499060112983,468.290434827999,None,469.2547822466877,None,None,None,None,,07,001,2023_Jan_18_1445,searchDisc5,2021.2.3,59.325819837728126,
images/exp2a_trial_103_colour2_distractors9_r.png,r,3,2,9,0,,,,,0,81,81,81,,,,,,,,,,,,,,,,,,,,,,,,,,,,,,,,,,,,,,,,,,,469.2710638680146,None,2,0.5880940119968727,469.2710638680146,None,,,,,,,,,,,,,,,,None,None,None,,None,None,469.9051723679877,None,3,1,0.9009339289914351,469.9051723679877,None,470.80507195569226,None,None,None,None,,07,001,2023_Jan_18_1445,searchDisc5,2021.2.3,59.325819837728126,
images/exp1a_trial_166_colour2_distractors4_r.png,r,3,2,4,0,,,,,0,82,82,82,,,,,,,,,,,,,,,,,,,,,,,,,,,,,,,,,,,,,,,,,,,470.82153968000785,None,2,0.8726831619860604,470.82153968000785,None,,,,,,,,,,,,,,,,None,None,None,,None,None,471.7406183659914,None,3,1,0.7695544399903156,471.7406183659914,None,472.5051447656879,None,None,None,None,,07,001,2023_Jan_18_1445,searchDisc5,2021.2.3,59.325819837728126,
images/exp2a_trial_104_colour2_distractors19_r.png,r,3,2,19,0,,,,,0,83,83,83,,,,,,,,,,,,,,,,,,,,,,,,,,,,,,,,,,,,,,,,,,,472.5236703749979,None,2,0.870862882991787,472.5236703749979,None,,,,,,,,,,,,,,,,None,None,None,,None,None,473.43802667601267,None,3,1,0.9472923110006377,473.43802667601267,None,474.3882697066874,None,None,None,None,,07,001,2023_Jan_18_1445,searchDisc5,2021.2.3,59.325819837728126,
images/exp2a_trial_253_colour3_distractors31_l.png,l,1,3,31,0,,,,,0,84,84,84,,,,,,,,,,,,,,,,,,,,,,,,,,,,,,,,,,,,,,,,,,,474.4049299019971,None,2,0.5047457879991271,474.4049299019971,None,,,,,,,,,,,,,,,,None,None,None,,None,None,474.9553119089978,None,1,1,0.8359574040223379,474.9553119089978,None,475.7884182477137,None,None,None,None,,07,001,2023_Jan_18_1445,searchDisc5,2021.2.3,59.325819837728126,
images/exp2b_trial_216_colour2_distractors31_l.png,l,1,2,31,0,,,,,0,85,85,85,,,,,,,,,,,,,,,,,,,,,,,,,,,,,,,,,,,,,,,,,,,475.8050074329949,None,2,0.4899632640008349,475.8050074329949,None,,,,,,,,,,,,,,,,None,None,None,,None,None,476.33846008300316,None,1,1,0.8358954279974569,476.33846008300316,None,477.1717718327127,None,None,None,None,,07,001,2023_Jan_18_1445,searchDisc5,2021.2.3,59.325819837728126,
images/exp2b_trial_188_colour3_distractors19_l.png,l,1,3,19,0,,,,,0,86,86,86,,,,,,,,,,,,,,,,,,,,,,,,,,,,,,,,,,,,,,,,,,,477.1885039010085,None,2,0.5547465599956922,477.1885039010085,None,,,,,,,,,,,,,,,,None,None,None,,None,None,477.79007615399314,None,1,1,0.7366187779989559,477.79007615399314,None,478.52174695269787,None,None,None,None,,07,001,2023_Jan_18_1445,searchDisc5,2021.2.3,59.325819837728126,
images/exp2a_trial_153_colour3_distractors1_l.png,l,1,3,1,0,,,,,0,87,87,87,,,,,,,,,,,,,,,,,,,,,,,,,,,,,,,,,,,,,,,,,,,478.54090527800145,None,2,0.4692039120127447,478.54090527800145,None,,,,,,,,,,,,,,,,None,None,None,,None,None,479.0555703449936,None,1,1,0.7236662769864779,479.0555703449936,None,479.7717258716875,None,None,None,None,,07,001,2023_Jan_18_1445,searchDisc5,2021.2.3,59.325819837728126,
images/exp2a_trial_252_colour3_distractors19_l.png,l,1,3,19,0,,,,,0,88,88,88,,,,,,,,,,,,,,,,,,,,,,,,,,,,,,,,,,,,,,,,,,,479.78846973599866,None,2,0.503748575982172,479.78846973599866,None,,,,,,,,,,,,,,,,None,None,None,,None,None,480.3387517769879,None,1,1,0.6538627289992291,480.3387517769879,None,480.9886227817042,None,None,None,None,,07,001,2023_Jan_18_1445,searchDisc5,2021.2.3,59.325819837728126,
images/exp2b_trial_23_colour2_distractors19_l.png,l,1,2,19,0,,,,,0,89,89,89,,,,,,,,,,,,,,,,,,,,,,,,,,,,,,,,,,,,,,,,,,,481.0052033489919,None,2,0.4710773160040844,481.0052033489919,None,,,,,,,,,,,,,,,,None,None,None,,None,None,481.52200031100074,None,1,1,0.6365519980026875,481.52200031100074,None,482.1547772946942,None,None,None,None,,07,001,2023_Jan_18_1445,searchDisc5,2021.2.3,59.325819837728126,
images/exp1a_trial_122_colour3_distractors4_l.png,l,1,3,4,0,,,,,0,90,90,90,,,,,,,,,,,,,,,,,,,,,,,,,,,,,,,,,,,,,,,,,,,482.1718761269876,None,2,0.48784912898554467,482.1718761269876,None,,,,,,,,,,,,,,,,None,None,None,,None,None,482.70540264900774,None,1,1,0.6046985499851871,482.70540264900774,None,483.3054042267031,None,None,None,None,,07,001,2023_Jan_18_1445,searchDisc5,2021.2.3,59.325819837728126,
images/exp2a_trial_22_colour2_distractors9_l.png,l,1,2,9,0,,,,,0,91,91,91,,,,,,,,,,,,,,,,,,,,,,,,,,,,,,,,,,,,,,,,,,,483.32163919101004,None,2,0.5045399089867715,483.32163919101004,None,,,,,,,,,,,,,,,,None,None,None,,None,None,483.87204866300453,None,1,1,0.6509775579907,483.87204866300453,None,484.5218719516997,None,None,None,None,,07,001,2023_Jan_18_1445,searchDisc5,2021.2.3,59.325819837728126,
images/exp2a_trial_119_colour2_distractors19_l.png,l,1,2,19,0,,,,,0,92,92,92,,,,,,,,,,,,,,,,,,,,,,,,,,,,,,,,,,,,,,,,,,,484.5386050149973,None,2,0.5088846079888754,484.5386050149973,None,,,,,,,,,,,,,,,,None,None,None,,None,None,485.09582155098906,None,1,1,0.7266380299988668,485.09582155098906,None,485.822194990702,None,None,None,None,,07,001,2023_Jan_18_1445,searchDisc5,2021.2.3,59.325819837728126,
images/exp2b_trial_35_colour1_distractors19_r.png,r,3,1,19,0,,,,,0,93,93,93,,,,,,,,,,,,,,,,,,,,,,,,,,,,,,,,,,,,,,,,,,,485.83824382099556,None,2,0.48782362398924306,485.83824382099556,None,,,,,,,,,,,,,,,,None,None,None,,None,None,486.3714756910049,None,3,1,0.7541163090209011,486.3714756910049,None,487.1223266177112,None,None,None,None,,07,001,2023_Jan_18_1445,searchDisc5,2021.2.3,59.325819837728126,
images/exp2b_trial_209_colour1_distractors9_l.png,l,1,1,9,0,,,,,0,94,94,94,,,,,,,,,,,,,,,,,,,,,,,,,,,,,,,,,,,,,,,,,,,487.1402153620147,None,2,0.4373107830178924,487.1402153620147,None,,,,,,,,,,,,,,,,None,None,None,,None,None,487.622204927,None,1,1,0.8037434860016219,487.622204927,None,488.4218746786937,None,None,None,None,,07,001,2023_Jan_18_1445,searchDisc5,2021.2.3,59.325819837728126,
images/exp2a_trial_297_colour2_distractors31_r.png,r,3,2,31,0,,,,,0,95,95,95,,,,,,,,,,,,,,,,,,,,,,,,,,,,,,,,,,,,,,,,,,,488.44084729699534,None,2,0.504715978022432,488.44084729699534,None,,,,,,,,,,,,,,,,None,None,None,,None,None,488.9884100269992,None,3,1,0.7480083819827996,488.9884100269992,None,489.7388133716886,None,None,None,None,,07,001,2023_Jan_18_1445,searchDisc5,2021.2.3,59.325819837728126,
images/exp2b_trial_317_colour3_distractors31_l.png,l,1,3,31,0,,,,,0,96,96,96,,,,,,,,,,,,,,,,,,,,,,,,,,,,,,,,,,,,,,,,,,,489.7548718480102,None,2,0.4529649589967448,489.7548718480102,None,,,,,,,,,,,,,,,,None,None,None,,None,None,490.2554846680141,None,1,1,0.7029686089954339,490.2554846680141,None,490.95562763669295,None,None,None,None,,07,001,2023_Jan_18_1445,searchDisc5,2021.2.3,59.325819837728126,
images/exp2b_trial_33_colour1_distractors4_r.png,r,3,1,4,0,,,,,0,97,97,97,,,,,,,,,,,,,,,,,,,,,,,,,,,,,,,,,,,,,,,,,,,490.97214338800404,None,2,0.4877406780142337,490.97214338800404,None,,,,,,,,,,,,,,,,None,None,None,,None,None,491.50770642099087,None,3,1,0.9554965150018688,491.50770642099087,None,492.45556369269616,None,None,None,None,,07,001,2023_Jan_18_1445,searchDisc5,2021.2.3,59.325819837728126,
images/exp2c_trial_156_colour3_distractors19_l.png,l,1,3,19,0,,,,,0,98,98,98,,,,,,,,,,,,,,,,,,,,,,,,,,,,,,,,,,,,,,,,,,,492.4721436199907,None,2,0.3875352969917003,492.4721436199907,None,,,,,,,,,,,,,,,,None,None,None,,None,None,492.9057138370117,None,1,1,0.787619195994921,492.9057138370117,None,493.68881518769194,None,None,None,None,,07,001,2023_Jan_18_1445,searchDisc5,2021.2.3,59.325819837728126,
images/exp1a_trial_318_colour0_distractors0_r.png,r,3,0,0,0,,,,,0,99,99,99,,,,,,,,,,,,,,,,,,,,,,,,,,,,,,,,,,,,,,,,,,,493.7051612380019,None,2,0.4698609620099887,493.7051612380019,None,,,,,,,,,,,,,,,,None,None,None,,None,None,494.2220815170149,None,3,1,0.7231593510077801,494.2220815170149,None,494.9388152867032,None,None,None,None,,07,001,2023_Jan_18_1445,searchDisc5,2021.2.3,59.325819837728126,
images/exp2b_trial_55_colour2_distractors19_l.png,l,1,2,19,0,,,,,0,100,100,100,,,,,,,,,,,,,,,,,,,,,,,,,,,,,,,,,,,,,,,,,,,494.95566682200297,None,2,0.4231148069957271,494.95566682200297,None,,,,,,,,,,,,,,,,None,None,None,,None,None,495.4219726799929,None,1,1,0.6182508700003382,495.4219726799929,None,496.0390587676957,None,None,None,None,,07,001,2023_Jan_18_1445,searchDisc5,2021.2.3,59.325819837728126,
images/exp2b_trial_173_colour3_distractors19_r.png,r,3,3,19,0,,,,,0,101,101,101,,,,,,,,,,,,,,,,,,,,,,,,,,,,,,,,,,,,,,,,,,,496.0552131170116,None,2,0.43783164699561894,496.0552131170116,None,,,,,,,,,,,,,,,,None,None,None,,None,None,496.54137845200603,None,3,1,0.8542721990088467,496.54137845200603,None,497.38931008570944,None,None,None,None,,07,001,2023_Jan_18_1445,searchDisc5,2021.2.3,59.325819837728126,
images/exp2c_trial_40_colour2_distractors19_r.png,r,3,2,19,0,,,,,0,102,102,102,,,,,,,,,,,,,,,,,,,,,,,,,,,,,,,,,,,,,,,,,,,497.4077680069895,None,2,0.38736933600739576,497.4077680069895,None,,,,,,,,,,,,,,,,None,None,None,,None,None,497.8413881440065,None,3,1,0.6864074250042904,497.8413881440065,None,498.5223556337005,None,None,None,None,,07,001,2023_Jan_18_1445,searchDisc5,2021.2.3,59.325819837728126,
images/exp2c_trial_100_colour1_distractors31_r.png,r,3,1,31,0,,,,,0,103,103,103,,,,,,,,,,,,,,,,,,,,,,,,,,,,,,,,,,,,,,,,,,,498.53918256401084,None,2,0.420568765985081,498.53918256401084,None,,,,,,,,,,,,,,,,None,None,None,,None,None,499.0074042369961,None,3,1,0.6199402660131454,499.0074042369961,None,499.62278042169055,None,None,None,None,,07,001,2023_Jan_18_1445,searchDisc5,2021.2.3,59.325819837728126,
images/exp2b_trial_53_colour2_distractors4_l.png,l,1,2,4,0,,,,,0,104,104,104,,,,,,,,,,,,,,,,,,,,,,,,,,,,,,,,,,,,,,,,,,,499.63895642300486,None,2,0.4563855099841021,499.63895642300486,None,,,,,,,,,,,,,,,,None,None,None,,None,None,500.14119043800747,None,1,1,0.6866517360031139,500.14119043800747,None,500.82244710970554,None,None,None,None,,07,001,2023_Jan_18_1445,searchDisc5,2021.2.3,59.325819837728126,
images/exp2a_trial_218_colour3_distractors4_l.png,l,1,3,4,0,,,,,0,105,105,105,,,,,,,,,,,,,,,,,,,,,,,,,,,,,,,,,,,,,,,,,,,500.8390153099899,None,2,0.44002040597843006,500.8390153099899,None,,,,,,,,,,,,,,,,None,None,None,,None,None,501.322633097996,None,1,1,0.6382830240181647,501.322633097996,None,501.95570901071187,None,None,None,None,,07,001,2023_Jan_18_1445,searchDisc5,2021.2.3,59.325819837728126,
images/exp2c_trial_228_colour1_distractors31_r.png,r,3,1,31,0,,,,,0,106,106,106,,,,,,,,,,,,,,,,,,,,,,,,,,,,,,,,,,,,,,,,,,,501.97432503299206,None,2,0.43755539500853047,501.97432503299206,None,,,,,,,,,,,,,,,,None,None,None,,None,None,502.45526048500324,None,3,1,0.5673800520016812,502.45526048500324,None,503.02258464469924,None,None,None,None,,07,001,2023_Jan_18_1445,searchDisc5,2021.2.3,59.325819837728126,
images/exp2b_trial_34_colour1_distractors9_r.png,r,3,1,9,0,,,,,0,107,107,107,,,,,,,,,,,,,,,,,,,,,,,,,,,,,,,,,,,,,,,,,,,503.0409909070004,None,2,0.38761389098362997,503.0409909070004,None,,,,,,,,,,,,,,,,None,None,None,,None,None,503.47199907700997,None,3,1,0.5708761609857902,503.47199907700997,None,504.0384607606975,None,None,None,None,,07,001,2023_Jan_18_1445,searchDisc5,2021.2.3,59.325819837728126,
images/exp1a_trial_27_colour3_distractors9_l.png,l,1,3,9,0,,,,,0,108,108,108,,,,,,,,,,,,,,,,,,,,,,,,,,,,,,,,,,,,,,,,,,,504.05589839300956,None,2,0.43888840000727214,504.05589839300956,None,,,,,,,,,,,,,,,,None,None,None,,None,None,504.53912629999104,None,1,1,0.5538331669813488,504.53912629999104,None,505.08949951370596,None,None,None,None,,07,001,2023_Jan_18_1445,searchDisc5,2021.2.3,59.325819837728126,
images/exp2b_trial_127_colour0_distractors0_l.png,l,1,0,0,0,,,,,0,109,109,109,,,,,,,,,,,,,,,,,,,,,,,,,,,,,,,,,,,,,,,,,,,505.10585656701005,None,2,0.4564606479834765,505.10585656701005,None,,,,,,,,,,,,,,,,None,None,None,,None,None,505.60811972999363,None,1,1,0.5369359710020944,505.60811972999363,None,506.13881099570426,None,None,None,None,,07,001,2023_Jan_18_1445,searchDisc5,2021.2.3,59.325819837728126,
images/exp1a_trial_93_colour3_distractors31_l.png,l,1,3,31,0,,,,,0,110,110,110,,,,,,,,,,,,,,,,,,,,,,,,,,,,,,,,,,,,,,,,,,,506.15595301100984,None,2,0.4378925600030925,506.15595301100984,None,,,,,,,,,,,,,,,,None,None,None,,None,None,506.6414632750093,None,1,1,0.6989503410004545,506.6414632750093,None,507.3386302847066,None,None,None,None,,07,001,2023_Jan_18_1445,searchDisc5,2021.2.3,59.325819837728126,
images/exp2c_trial_306_colour1_distractors19_l.png,l,1,1,19,0,,,,,0,111,111,111,,,,,,,,,,,,,,,,,,,,,,,,,,,,,,,,,,,,,,,,,,,507.3559691889968,None,2,0.40546280800481327,507.3559691889968,None,,,,,,,,,,,,,,,,None,None,None,,None,None,507.8083449029946,None,1,1,0.6032346739957575,507.8083449029946,None,508.4062375416979,None,None,None,None,,07,001,2023_Jan_18_1445,searchDisc5,2021.2.3,59.325819837728126,
images/exp2c_trial_119_colour2_distractors19_l.png,l,1,2,19,0,,,,,0,112,112,112,,,,,,,,,,,,,,,,,,,,,,,,,,,,,,,,,,,,,,,,,,,508.4245578919945,None,2,0.4541880610049702,508.4245578919945,None,,,,,,,,,,,,,,,,None,None,None,,None,None,508.9227803089889,None,1,1,0.6861878119816538,508.9227803089889,None,509.6058899387135,None,None,None,None,,07,001,2023_Jan_18_1445,searchDisc5,2021.2.3,59.325819837728126,
images/exp2b_trial_192_colour1_distractors1_r.png,r,3,1,1,0,,,,,0,113,113,113,,,,,,,,,,,,,,,,,,,,,,,,,,,,,,,,,,,,,,,,,,,509.6241289580066,None,2,0.4713224500010256,509.6241289580066,None,,,,,,,,,,,,,,,,None,None,None,,None,None,510.13904941201326,None,3,1,0.8566380130068865,510.13904941201326,None,510.98932072069147,None,None,None,None,,07,001,2023_Jan_18_1445,searchDisc5,2021.2.3,59.325819837728126,
images/exp2c_trial_65_colour1_distractors4_r.png,r,3,1,4,0,,,,,0,114,114,114,,,,,,,,,,,,,,,,,,,,,,,,,,,,,,,,,,,,,,,,,,,511.00592925801175,None,2,0.45623782300390303,511.00592925801175,None,,,,,,,,,,,,,,,,None,None,None,,None,None,511.5083965990052,None,3,1,0.5530562719795853,511.5083965990052,None,512.056040172698,None,None,None,None,,07,001,2023_Jan_18_1445,searchDisc5,2021.2.3,59.325819837728126,
images/exp2a_trial_52_colour2_distractors1_l.png,l,1,2,1,0,,,,,0,115,115,115,,,,,,,,,,,,,,,,,,,,,,,,,,,,,,,,,,,,,,,,,,,512.0721970229934,None,2,0.42119296500459313,512.0721970229934,None,,,,,,,,,,,,,,,,None,None,None,,None,None,512.5397057259979,None,1,1,0.6057489519880619,512.5397057259979,None,513.1396410457091,None,None,None,None,,07,001,2023_Jan_18_1445,searchDisc5,2021.2.3,59.325819837728126,
images/exp2a_trial_225_colour1_distractors4_r.png,r,3,1,4,0,,,,,0,116,116,116,,,,,,,,,,,,,,,,,,,,,,,,,,,,,,,,,,,,,,,,,,,513.156098787993,None,2,0.4879075470089447,513.156098787993,None,,,,,,,,,,,,,,,,None,None,None,,None,None,513.6896197469905,None,3,1,0.7216180230025202,513.6896197469905,None,514.4058850377041,None,None,None,None,,07,001,2023_Jan_18_1445,searchDisc5,2021.2.3,59.325819837728126,
images/exp2a_trial_95_colour0_distractors0_l.png,l,1,0,0,0,,,,,0,117,117,117,,,,,,,,,,,,,,,,,,,,,,,,,,,,,,,,,,,,,,,,,,,514.4226171250048,None,2,0.4046858549991157,514.4226171250048,None,,,,,,,,,,,,,,,,None,None,None,,None,None,514.8751570600143,None,1,1,0.5569120720028877,514.8751570600143,None,515.4228057257133,None,None,None,None,,07,001,2023_Jan_18_1445,searchDisc5,2021.2.3,59.325819837728126,
images/exp2a_trial_77_colour3_distractors19_r.png,r,3,3,19,0,,,,,0,118,118,118,,,,,,,,,,,,,,,,,,,,,,,,,,,,,,,,,,,,,,,,,,,515.4389355969906,None,2,0.4728527480037883,515.4389355969906,None,,,,,,,,,,,,,,,,None,None,None,,None,None,515.9564346190018,None,3,1,0.6011678819777444,515.9564346190018,None,516.5562506697024,None,None,None,None,,07,001,2023_Jan_18_1445,searchDisc5,2021.2.3,59.325819837728126,
images/exp1a_trial_80_colour1_distractors4_l.png,l,1,1,4,0,,,,,0,119,119,119,,,,,,,,,,,,,,,,,,,,,,,,,,,,,,,,,,,,,,,,,,,516.5728203690087,None,2,0.4558200090250466,516.5728203690087,None,,,,,,,,,,,,,,,,None,None,None,,None,None,517.0731284010108,None,1,1,0.9552025620068889,517.0731284010108,None,518.0230855756963,None,None,None,None,,07,001,2023_Jan_18_1445,searchDisc5,2021.2.3,59.325819837728126,
images/exp2c_trial_83_colour1_distractors31_l.png,l,1,1,31,0,,,,,0,120,120,120,,,,,,,,,,,,,,,,,,,,,,,,,,,,,,,,,,,,,,,,,,,518.0395931940002,None,2,0.5700403870141599,518.0395931940002,None,,,,,,,,,,,,,,,,None,None,None,,None,None,518.6584316540102,None,1,1,0.7512326320284046,518.6584316540102,None,519.4058370027051,None,None,None,None,,07,001,2023_Jan_18_1445,searchDisc5,2021.2.3,59.325819837728126,
images/exp2a_trial_301_colour3_distractors19_r.png,r,3,3,19,0,,,,,0,121,121,121,,,,,,,,,,,,,,,,,,,,,,,,,,,,,,,,,,,,,,,,,,,519.4231471669918,None,2,0.5055662599916104,519.4231471669918,None,,,,,,,,,,,,,,,,None,None,None,,None,None,519.9752054389974,None,3,1,0.7552746839937754,519.9752054389974,None,520.7229824296955,None,None,None,None,,07,001,2023_Jan_18_1445,searchDisc5,2021.2.3,59.325819837728126,
images/exp1a_trial_124_colour3_distractors19_l.png,l,1,3,19,0,,,,,0,122,122,122,,,,,,,,,,,,,,,,,,,,,,,,,,,,,,,,,,,,,,,,,,,520.7389385720016,None,2,0.9187242299958598,520.7389385720016,None,,,,,,,,,,,,,,,,None,None,None,,None,None,521.7065161970095,None,1,1,0.8180170709965751,521.7065161970095,None,522.5230334197113,None,None,None,None,,07,001,2023_Jan_18_1445,searchDisc5,2021.2.3,59.325819837728126,
images/exp2b_trial_191_colour0_distractors0_l.png,l,1,0,0,0,,,,,0,123,123,123,,,,,,,,,,,,,,,,,,,,,,,,,,,,,,,,,,,,,,,,,,,522.5396222739946,None,2,0.5545569620153401,522.5396222739946,None,,,,,,,,,,,,,,,,None,None,None,,None,None,523.1417017939966,None,1,1,0.6231015399971511,523.1417017939966,None,523.7564444046875,None,None,None,None,,07,001,2023_Jan_18_1445,searchDisc5,2021.2.3,59.325819837728126,
images/exp2a_trial_85_colour2_distractors4_l.png,l,1,2,4,0,,,,,0,124,124,124,,,,,,,,,,,,,,,,,,,,,,,,,,,,,,,,,,,,,,,,,,,523.7731834010046,None,2,0.5732893730164506,523.7731834010046,None,,,,,,,,,,,,,,,,None,None,None,,None,None,524.391667318996,None,1,1,0.8193405700149015,524.391667318996,None,525.2064560067083,None,None,None,None,,07,001,2023_Jan_18_1445,searchDisc5,2021.2.3,59.325819837728126,
images/exp2c_trial_145_colour1_distractors9_l.png,l,1,1,9,0,,,,,0,125,125,125,,,,,,,,,,,,,,,,,,,,,,,,,,,,,,,,,,,,,,,,,,,525.2232002500095,None,2,0.47023422800702974,525.2232002500095,None,,,,,,,,,,,,,,,,None,None,None,,None,None,525.740076268994,None,1,1,0.7217139749845956,525.740076268994,None,526.4564955426904,None,None,None,None,,07,001,2023_Jan_18_1445,searchDisc5,2021.2.3,59.325819837728126,
images/exp1a_trial_45_colour3_distractors19_r.png,r,3,3,19,0,,,,,0,126,126,126,,,,,,,,,,,,,,,,,,,,,,,,,,,,,,,,,,,,,,,,,,,526.4751965859905,None,2,0.4546741939848289,526.4751965859905,None,,,,,,,,,,,,,,,,None,None,None,,None,None,526.9753006490064,None,3,1,0.9681946549972054,526.9753006490064,None,527.939998538699,None,None,None,None,,07,001,2023_Jan_18_1445,searchDisc5,2021.2.3,59.325819837728126,
images/exp2c_trial_181_colour2_distractors4_l.png,l,1,2,4,0,,,,,0,127,127,127,,,,,,,,,,,,,,,,,,,,,,,,,,,,,,,,,,,,,,,,,,,527.9564344370156,None,2,0.4210070540138986,527.9564344370156,None,,,,,,,,,,,,,,,,None,None,None,,None,None,528.4231126760133,None,1,1,0.6220900979824364,528.4231126760133,None,529.0398462247103,None,None,None,None,,07,001,2023_Jan_18_1445,searchDisc5,2021.2.3,59.325819837728126,
images/exp2b_trial_258_colour1_distractors9_r.png,r,3,1,9,0,,,,,0,128,128,128,,,,,,,,,,,,,,,,,,,,,,,,,,,,,,,,,,,,,,,,,,,529.0564287519956,None,2,0.47112937897327356,529.0564287519956,None,,,,,,,,,,,,,,,,None,None,None,,None,None,529.5734563480073,None,3,1,0.77087355000549,529.5734563480073,None,530.3398958547041,None,None,None,None,,07,001,2023_Jan_18_1445,searchDisc5,2021.2.3,59.325819837728126,
images/exp2b_trial_134_colour2_distractors4_r.png,r,3,2,4,0,,,,,0,129,129,129,,,,,,,,,,,,,,,,,,,,,,,,,,,,,,,,,,,,,,,,,,,530.3565835680056,None,2,0.421150114008924,530.3565835680056,None,,,,,,,,,,,,,,,,None,None,None,,None,None,530.8231836979976,None,3,1,0.672039278986631,530.8231836979976,None,531.4899930896936,None,None,None,None,,07,001,2023_Jan_18_1445,searchDisc5,2021.2.3,59.325819837728126,
images/exp1a_trial_235_colour3_distractors4_r.png,r,3,3,4,0,,,,,0,130,130,130,,,,,,,,,,,,,,,,,,,,,,,,,,,,,,,,,,,,,,,,,,,531.506366630987,None,2,0.43903981099720113,531.506366630987,None,,,,,,,,,,,,,,,,None,None,None,,None,None,531.990305756015,None,3,1,0.6857000850141048,531.990305756015,None,532.672877437697,None,None,None,None,,07,001,2023_Jan_18_1445,searchDisc5,2021.2.3,59.325819837728126,
images/exp2a_trial_208_colour1_distractors4_l.png,l,1,1,4,0,,,,,0,131,131,131,,,,,,,,,,,,,,,,,,,,,,,,,,,,,,,,,,,,,,,,,,,532.69010824,None,2,0.4053561110049486,532.69010824,None,,,,,,,,,,,,,,,,None,None,None,,None,None,533.1403271770105,None,1,1,0.6915181369986385,533.1403271770105,None,533.8255696156994,None,None,None,None,,07,001,2023_Jan_18_1445,searchDisc5,2021.2.3,59.325819837728126,
images/exp2a_trial_267_colour3_distractors4_r.png,r,3,3,4,0,,,,,0,132,132,132,,,,,,,,,,,,,,,,,,,,,,,,,,,,,,,,,,,,,,,,,,,533.8415324829984,None,2,0.4856791470083408,533.8415324829984,None,,,,,,,,,,,,,,,,None,None,None,,None,None,534.3730875329929,None,3,1,0.6558493179909419,534.3730875329929,None,535.0235210226965,None,None,None,None,,07,001,2023_Jan_18_1445,searchDisc5,2021.2.3,59.325819837728126,
images/exp2a_trial_158_colour0_distractors0_r.png,r,3,0,0,0,,,,,0,133,133,133,,,,,,,,,,,,,,,,,,,,,,,,,,,,,,,,,,,,,,,,,,,535.0421611630009,None,2,0.4374350440048147,535.0421611630009,None,,,,,,,,,,,,,,,,None,None,None,,None,None,535.5252687649918,None,3,1,0.7562220910040196,535.5252687649918,None,536.2733903127082,None,None,None,None,,07,001,2023_Jan_18_1445,searchDisc5,2021.2.3,59.325819837728126,
images/exp2b_trial_59_colour3_distractors9_l.png,l,1,3,9,0,,,,,0,134,134,134,,,,,,,,,,,,,,,,,,,,,,,,,,,,,,,,,,,,,,,,,,,536.2897218459984,None,2,0.4047020559955854,536.2897218459984,None,,,,,,,,,,,,,,,,None,None,None,,None,None,536.7421391970129,None,1,1,0.5879538689914625,536.7421391970129,None,537.3236064366938,None,None,None,None,,07,001,2023_Jan_18_1445,searchDisc5,2021.2.3,59.325819837728126,
images/exp2b_trial_261_colour2_distractors1_r.png,r,3,2,1,0,,,,,0,135,135,135,,,,,,,,,,,,,,,,,,,,,,,,,,,,,,,,,,,,,,,,,,,537.3419991550036,None,2,0.4542728039959911,537.3419991550036,None,,,,,,,,,,,,,,,,None,None,None,,None,None,537.8403451649938,None,3,1,0.6724769409920555,537.8403451649938,None,538.5067486237094,None,None,None,None,,07,001,2023_Jan_18_1445,searchDisc5,2021.2.3,59.325819837728126,
images/exp1a_trial_290_colour1_distractors9_r.png,r,3,1,9,0,,,,,0,136,136,136,,,,,,,,,,,,,,,,,,,,,,,,,,,,,,,,,,,,,,,,,,,538.5234324219928,None,2,0.4046332960133441,538.5234324219928,None,,,,,,,,,,,,,,,,None,None,None,,None,None,538.9737078459875,None,3,1,1.3218904540117364,538.9737078459875,None,540.2902003086929,None,None,None,None,,07,001,2023_Jan_18_1445,searchDisc5,2021.2.3,59.325819837728126,
images/exp2b_trial_185_colour3_distractors1_l.png,l,1,3,1,0,,,,,0,137,137,137,,,,,,,,,,,,,,,,,,,,,,,,,,,,,,,,,,,,,,,,,,,540.3089548069984,None,2,0.48508674901677296,540.3089548069984,None,,,,,,,,,,,,,,,,None,None,None,,None,None,540.8398971290153,None,1,1,0.7392640269827098,540.8398971290153,None,541.5735765146965,None,None,None,None,,07,001,2023_Jan_18_1445,searchDisc5,2021.2.3,59.325819837728126,
images/exp2a_trial_9_colour2_distractors31_r.png,r,3,2,31,0,,,,,0,138,138,138,,,,,,,,,,,,,,,,,,,,,,,,,,,,,,,,,,,,,,,,,,,541.5898359210114,None,2,0.6546870210149791,541.5898359210114,None,,,,,,,,,,,,,,,,None,None,None,,None,None,542.289839789999,None,3,1,0.8283917840162758,542.289839789999,None,543.1233733526897,None,None,None,None,,07,001,2023_Jan_18_1445,searchDisc5,2021.2.3,59.325819837728126,
images/exp2b_trial_110_colour3_distractors31_r.png,r,3,3,31,0,,,,,0,139,139,139,,,,,,,,,,,,,,,,,,,,,,,,,,,,,,,,,,,,,,,,,,,543.140692556015,None,2,0.7539555960102007,543.140692556015,None,,,,,,,,,,,,,,,,None,None,None,,None,None,543.9426182130119,None,3,1,0.752601621003123,543.9426182130119,None,544.6900784677127,None,None,None,None,,07,001,2023_Jan_18_1445,searchDisc5,2021.2.3,59.325819837728126,
images/exp2b_trial_245_colour2_distractors4_l.png,l,1,2,4,0,,,,,0,140,140,140,,,,,,,,,,,,,,,,,,,,,,,,,,,,,,,,,,,,,,,,,,,544.7067071270139,None,2,1.0875984040030744,544.7067071270139,None,,,,,,,,,,,,,,,,None,None,None,,None,None,545.842634702014,None,1,1,0.8231434629997239,545.842634702014,None,546.6592086736928,None,None,None,None,,07,001,2023_Jan_18_1445,searchDisc5,2021.2.3,59.325819837728126,
images/exp2c_trial_265_colour2_distractors31_r.png,r,3,2,31,0,,,,,0,141,141,141,,,,,,,,,,,,,,,,,,,,,,,,,,,,,,,,,,,,,,,,,,,546.6756616579951,None,2,0.802389394986676,546.6756616579951,None,,,,,,,,,,,,,,,,None,None,None,,None,None,547.5263238199987,None,3,1,1.1697278589999769,547.5263238199987,None,548.6906492736889,None,None,None,None,,07,001,2023_Jan_18_1445,searchDisc5,2021.2.3,59.325819837728126,
images/exp2a_trial_198_colour2_distractors4_r.png,r,3,2,4,0,,,,,0,142,142,142,,,,,,,,,,,,,,,,,,,,,,,,,,,,,,,,,,,,,,,,,,,548.7068720810057,None,2,0.5730699980049394,548.7068720810057,None,,,,,,,,,,,,,,,,None,None,None,,None,None,549.3258966809954,None,3,1,0.6678412590117659,549.3258966809954,None,549.9904418986989,None,None,None,None,,07,001,2023_Jan_18_1445,searchDisc5,2021.2.3,59.325819837728126,
images/exp1a_trial_100_colour1_distractors31_r.png,r,3,1,31,0,,,,,0,143,143,143,,,,,,,,,,,,,,,,,,,,,,,,,,,,,,,,,,,,,,,,,,,550.0069282400073,None,2,0.5211279029899742,550.0069282400073,None,,,,,,,,,,,,,,,,None,None,None,,None,None,550.5738798580132,None,3,1,0.8327654530003201,550.5738798580132,None,551.4072974646988,None,None,None,None,,07,001,2023_Jan_18_1445,searchDisc5,2021.2.3,59.325819837728126,
images/exp2c_trial_270_colour3_distractors31_r.png,r,3,3,31,0,,,,,0,144,144,144,,,,,,,,,,,,,,,,,,,,,,,,,,,,,,,,,,,,,,,,,,,551.4237326160073,None,2,0.4877064310130663,551.4237326160073,None,,,,,,,,,,,,,,,,None,None,None,,None,None,551.9573435439961,None,3,1,0.9050044209870975,551.9573435439961,None,552.859182761691,None,None,None,None,,07,001,2023_Jan_18_1445,searchDisc5,2021.2.3,59.325819837728126,
images/exp1a_trial_9_colour2_distractors31_r.png,r,3,2,31,0,,,,,0,145,145,145,,,,,,,,,,,,,,,,,,,,,,,,,,,,,,,,,,,,,,,,,,,552.8758985250024,None,2,0.45462785800918937,552.8758985250024,None,,,,,,,,,,,,,,,,None,None,None,,None,None,553.3766922919895,None,3,1,0.9801340620033443,553.3766922919895,None,554.3566139996983,None,None,None,None,,07,001,2023_Jan_18_1445,searchDisc5,2021.2.3,59.325819837728126,
images/exp2a_trial_271_colour1_distractors1_l.png,l,1,1,1,0,,,,,0,146,146,146,,,,,,,,,,,,,,,,,,,,,,,,,,,,,,,,,,,,,,,,,,,554.3736944310076,None,2,0.45660794898867607,554.3736944310076,None,,,,,,,,,,,,,,,,None,None,None,,None,None,554.8740848760062,None,1,1,0.687255782977445,554.8740848760062,None,555.5574414166913,None,None,None,None,,07,001,2023_Jan_18_1445,searchDisc5,2021.2.3,59.325819837728126,
images/exp1a_trial_145_colour1_distractors9_l.png,l,1,1,9,0,,,,,0,147,147,147,,,,,,,,,,,,,,,,,,,,,,,,,,,,,,,,,,,,,,,,,,,555.5739676690137,None,2,0.5208383460121695,555.5739676690137,None,,,,,,,,,,,,,,,,None,None,None,,None,None,556.1426779569883,None,1,1,0.7886603389924858,556.1426779569883,None,556.9240078546864,None,None,None,None,,07,001,2023_Jan_18_1445,searchDisc5,2021.2.3,59.325819837728126,
images/exp1a_trial_162_colour1_distractors9_r.png,r,3,1,9,0,,,,,0,148,148,148,,,,,,,,,,,,,,,,,,,,,,,,,,,,,,,,,,,,,,,,,,,556.942556251015,None,2,0.4876449379953556,556.942556251015,None,,,,,,,,,,,,,,,,None,None,None,,None,None,557.476519081014,None,3,1,0.9541972709994297,557.476519081014,None,558.4242743457144,None,None,None,None,,07,001,2023_Jan_18_1445,searchDisc5,2021.2.3,59.325819837728126,
images/exp1a_trial_312_colour2_distractors31_l.png,l,1,2,31,0,,,,,0,149,149,149,,,,,,,,,,,,,,,,,,,,,,,,,,,,,,,,,,,,,,,,,,,558.4399751340097,None,2,0.5043124810035806,558.4399751340097,None,,,,,,,,,,,,,,,,None,None,None,,None,None,558.9926323599939,None,1,1,0.7329684679862112,558.9926323599939,None,559.7241287417128,None,None,None,None,,07,001,2023_Jan_18_1445,searchDisc5,2021.2.3,59.325819837728126,
images/exp1a_trial_244_colour2_distractors1_l.png,l,1,2,1,0,,,,,0,150,150,150,,,,,,,,,,,,,,,,,,,,,,,,,,,,,,,,,,,,,,,,,,,559.740879029996,None,2,0.603879356989637,559.740879029996,None,,,,,,,,,,,,,,,,None,None,None,,None,None,560.3908821649966,None,1,1,0.6744791300152428,560.3908821649966,None,561.0575329347048,None,None,None,None,,07,001,2023_Jan_18_1445,searchDisc5,2021.2.3,59.325819837728126,
images/exp2c_trial_199_colour2_distractors9_r.png,r,3,2,9,0,,,,,0,151,151,151,,,,,,,,,,,,,,,,,,,,,,,,,,,,,,,,,,,,,,,,,,,561.0740145510063,None,2,0.47111456500715576,561.0740145510063,None,,,,,,,,,,,,,,,,None,None,None,,None,None,561.5911256080144,None,3,1,0.8029454780044034,561.5911256080144,None,562.3909297666978,None,None,None,None,,07,001,2023_Jan_18_1445,searchDisc5,2021.2.3,59.325819837728126,
images/exp2b_trial_171_colour3_distractors4_r.png,r,3,3,4,0,,,,,0,152,152,152,,,,,,,,,,,,,,,,,,,,,,,,,,,,,,,,,,,,,,,,,,,562.4074957169942,None,2,0.4404297129949555,562.4074957169942,None,,,,,,,,,,,,,,,,None,None,None,,None,None,562.8931757700047,None,3,1,0.8028448570112232,562.8931757700047,None,563.6909995927126,None,None,None,None,,07,001,2023_Jan_18_1445,searchDisc5,2021.2.3,59.325819837728126,
images/exp2c_trial_217_colour3_distractors1_l.png,l,1,3,1,0,,,,,0,153,153,153,,,,,,,,,,,,,,,,,,,,,,,,,,,,,,,,,,,,,,,,,,,563.7071847360057,None,2,0.4232808150118217,563.7071847360057,None,,,,,,,,,,,,,,,,None,None,None,,None,None,564.1765129159903,None,1,1,0.6697225319803692,564.1765129159903,None,564.8407900187012,None,None,None,None,,07,001,2023_Jan_18_1445,searchDisc5,2021.2.3,59.325819837728126,
images/exp2a_trial_98_colour1_distractors9_r.png,r,3,1,9,0,,,,,0,154,154,154,,,,,,,,,,,,,,,,,,,,,,,,,,,,,,,,,,,,,,,,,,,564.8573783989996,None,2,0.5544929619936738,564.8573783989996,None,,,,,,,,,,,,,,,,None,None,None,,None,None,565.457798434014,None,3,1,0.7217954599764198,565.457798434014,None,566.173762522696,None,None,None,None,,07,001,2023_Jan_18_1445,searchDisc5,2021.2.3,59.325819837728126,
images/exp2a_trial_289_colour1_distractors4_r.png,r,3,1,4,0,,,,,0,155,155,155,,,,,,,,,,,,,,,,,,,,,,,,,,,,,,,,,,,,,,,,,,,566.1901306869986,None,2,0.4567357419873588,566.1901306869986,None,,,,,,,,,,,,,,,,None,None,None,,None,None,566.6932339330087,None,3,1,0.6716017049911898,566.6932339330087,None,567.3597080977052,None,None,None,None,,07,001,2023_Jan_18_1445,searchDisc5,2021.2.3,59.325819837728126,
images/exp2a_trial_266_colour3_distractors1_r.png,r,3,3,1,0,,,,,0,156,156,156,,,,,,,,,,,,,,,,,,,,,,,,,,,,,,,,,,,,,,,,,,,567.3743272880092,None,2,0.673444963991642,567.3743272880092,None,,,,,,,,,,,,,,,,None,None,None,,None,None,568.0928798789973,None,3,1,0.6014777910022531,568.0928798789973,None,568.6909657086944,None,None,None,None,,07,001,2023_Jan_18_1445,searchDisc5,2021.2.3,59.325819837728126,
images/exp2a_trial_147_colour1_distractors31_l.png,l,1,1,31,0,,,,,0,157,157,157,,,,,,,,,,,,,,,,,,,,,,,,,,,,,,,,,,,,,,,,,,,568.7078278330155,None,2,0.5707987159839831,568.7078278330155,None,,,,,,,,,,,,,,,,None,None,None,,None,None,569.326078654005,None,1,1,0.7192825069942046,569.326078654005,None,570.0410480186983,None,None,None,None,,07,001,2023_Jan_18_1445,searchDisc5,2021.2.3,59.325819837728126,
images/exp1a_trial_185_colour3_distractors1_l.png,l,1,3,1,0,,,,,0,158,158,158,,,,,,,,,,,,,,,,,,,,,,,,,,,,,,,,,,,,,,,,,,,570.0575860840036,None,2,0.47333877100027166,570.0575860840036,None,,,,,,,,,,,,,,,,None,None,None,,None,None,570.5745620990056,None,1,1,0.6209992389776744,570.5745620990056,None,571.1913265147014,None,None,None,None,,07,001,2023_Jan_18_1445,searchDisc5,2021.2.3,59.325819837728126,
images/exp2a_trial_299_colour3_distractors4_r.png,r,3,3,4,0,,,,,0,159,159,159,,,,,,,,,,,,,,,,,,,,,,,,,,,,,,,,,,,,,,,,,,,571.2070008029987,None,2,0.4874037279805634,571.2070008029987,None,,,,,,,,,,,,,,,,None,None,None,,None,None,571.7412200859981,None,3,1,0.5888056420080829,571.7412200859981,None,572.3244396646915,None,None,None,None,,07,001,2023_Jan_18_1445,searchDisc5,2021.2.3,59.325819837728126,
images/exp1a_trial_81_colour1_distractors9_l.png,l,1,1,9,0,,,,,0,160,160,160,,,,,,,,,,,,,,,,,,,,,,,,,,,,,,,,,,,,,,,,,,,572.3429099770146,None,2,0.4546519659925252,572.3429099770146,None,,,,,,,,,,,,,,,,None,None,None,,None,None,572.8413080210157,None,1,1,0.6043742419860791,572.8413080210157,None,573.441171235696,None,None,None,None,,07,001,2023_Jan_18_1445,searchDisc5,2021.2.3,59.325819837728126,
images/exp1a_trial_259_colour1_distractors19_r.png,r,3,1,19,0,,,,,0,161,161,161,,,,,,,,,,,,,,,,,,,,,,,,,,,,,,,,,,,,,,,,,,,573.4598111739906,None,2,0.5208098030125257,573.4598111739906,None,,,,,,,,,,,,,,,,None,None,None,,None,None,574.0265556309896,None,3,1,0.7033518689859193,574.0265556309896,None,574.7246080347104,None,None,None,None,,07,001,2023_Jan_18_1445,searchDisc5,2021.2.3,59.325819837728126,
images/exp2a_trial_142_colour3_distractors31_r.png,r,3,3,31,0,,,,,0,162,162,162,,,,,,,,,,,,,,,,,,,,,,,,,,,,,,,,,,,,,,,,,,,574.7410685910145,None,2,0.4876777160097845,574.7410685910145,None,,,,,,,,,,,,,,,,None,None,None,,None,None,575.2746450949926,None,3,1,0.950591451022774,575.2746450949926,None,576.2245822887053,None,None,None,None,,07,001,2023_Jan_18_1445,searchDisc5,2021.2.3,59.325819837728126,
images/exp1a_trial_272_colour1_distractors4_l.png,l,1,1,4,0,,,,,0,163,163,163,,,,,,,,,,,,,,,,,,,,,,,,,,,,,,,,,,,,,,,,,,,576.2407539660053,None,2,0.4399720059882384,576.2407539660053,None,,,,,,,,,,,,,,,,None,None,None,,None,None,576.724318077002,None,1,1,0.7193710660212673,576.724318077002,None,577.4413755626883,None,None,None,None,,07,001,2023_Jan_18_1445,searchDisc5,2021.2.3,59.325819837728126,
images/exp1a_trial_301_colour3_distractors19_r.png,r,3,3,19,0,,,,,0,164,164,164,,,,,,,,,,,,,,,,,,,,,,,,,,,,,,,,,,,,,,,,,,,577.4579142279981,None,2,0.5044902030203957,577.4579142279981,None,,,,,,,,,,,,,,,,None,None,None,,None,None,578.0094754839956,None,3,1,0.7669488760002423,578.0094754839956,None,578.774545082706,None,None,None,None,,07,001,2023_Jan_18_1445,searchDisc5,2021.2.3,59.325819837728126,
images/exp2b_trial_177_colour1_distractors9_l.png,l,1,1,9,0,,,,,0,165,165,165,,,,,,,,,,,,,,,,,,,,,,,,,,,,,,,,,,,,,,,,,,,578.7912102199916,None,2,0.4559385369939264,578.7912102199916,None,,,,,,,,,,,,,,,,None,None,None,,None,None,579.2916385509889,None,1,1,1.0532882400148083,579.2916385509889,None,580.3416055956914,None,None,None,None,,07,001,2023_Jan_18_1445,searchDisc5,2021.2.3,59.325819837728126,
images/exp1a_trial_49_colour1_distractors9_l.png,l,1,1,9,0,,,,,0,166,166,166,,,,,,,,,,,,,,,,,,,,,,,,,,,,,,,,,,,,,,,,,,,580.3581250570132,None,2,0.5054403639805969,580.3581250570132,None,,,,,,,,,,,,,,,,None,None,None,,None,None,580.90827812301,None,1,1,0.7532908610010054,580.90827812301,None,581.658022625692,None,None,None,None,,07,001,2023_Jan_18_1445,searchDisc5,2021.2.3,59.325819837728126,
images/exp2c_trial_183_colour2_distractors19_l.png,l,1,2,19,0,,,,,0,167,167,167,,,,,,,,,,,,,,,,,,,,,,,,,,,,,,,,,,,,,,,,,,,581.6770219549944,None,2,0.43835551501251757,581.6770219549944,None,,,,,,,,,,,,,,,,None,None,None,,None,None,582.158298446011,None,1,1,0.7348312129906844,582.158298446011,None,582.8907286566973,None,None,None,None,,07,001,2023_Jan_18_1445,searchDisc5,2021.2.3,59.325819837728126,
images/exp2b_trial_1_colour1_distractors4_r.png,r,3,1,4,0,,,,,0,168,168,168,,,,,,,,,,,,,,,,,,,,,,,,,,,,,,,,,,,,,,,,,,,582.9079482890083,None,2,0.490508866001619,582.9079482890083,None,,,,,,,,,,,,,,,,None,None,None,,None,None,583.4417484799924,None,3,1,0.9369852099916898,583.4417484799924,None,584.3748716347036,None,None,None,None,,07,001,2023_Jan_18_1445,searchDisc5,2021.2.3,59.325819837728126,
images/exp2b_trial_156_colour3_distractors19_l.png,l,1,3,19,0,,,,,0,169,169,169,,,,,,,,,,,,,,,,,,,,,,,,,,,,,,,,,,,,,,,,,,,584.3937206339906,None,2,0.4371471689955797,584.3937206339906,None,,,,,,,,,,,,,,,,None,None,None,,None,None,584.874916478002,None,1,1,0.7710904449922964,584.874916478002,None,585.6415924516914,None,None,None,None,,07,001,2023_Jan_18_1445,searchDisc5,2021.2.3,59.325819837728126,
images/exp2a_trial_64_colour1_distractors1_r.png,r,3,1,1,0,,,,,0,170,170,170,,,,,,,,,,,,,,,,,,,,,,,,,,,,,,,,,,,,,,,,,,,585.6601484970015,None,2,0.47112754598492756,585.6601484970015,None,,,,,,,,,,,,,,,,None,None,None,,None,None,586.1768937270099,None,3,1,0.7385585050215013,586.1768937270099,None,586.9081942146877,None,None,None,None,,07,001,2023_Jan_18_1445,searchDisc5,2021.2.3,59.325819837728126,
images/exp1a_trial_78_colour3_distractors31_r.png,r,3,3,31,0,,,,,0,171,171,171,,,,,,,,,,,,,,,,,,,,,,,,,,,,,,,,,,,,,,,,,,,586.9247991789889,None,2,0.45662814599927515,586.9247991789889,None,,,,,,,,,,,,,,,,None,None,None,,None,None,587.4250248869939,None,3,1,0.8649617490009405,587.4250248869939,None,588.2918701127055,None,None,None,None,,07,001,2023_Jan_18_1445,searchDisc5,2021.2.3,59.325819837728126,
images/exp2c_trial_271_colour1_distractors1_l.png,l,1,1,1,0,,,,,0,172,172,172,,,,,,,,,,,,,,,,,,,,,,,,,,,,,,,,,,,,,,,,,,,588.3080812410044,None,2,0.42480247901403345,588.3080812410044,None,,,,,,,,,,,,,,,,None,None,None,,None,None,588.7773345790047,None,1,1,0.6687303869985044,588.7773345790047,None,589.4415467407089,None,None,None,None,,07,001,2023_Jan_18_1445,searchDisc5,2021.2.3,59.325819837728126,
images/exp2b_trial_14_colour3_distractors31_r.png,r,3,3,31,0,,,,,0,173,173,173,,,,,,,,,,,,,,,,,,,,,,,,,,,,,,,,,,,,,,,,,,,589.4576121460123,None,2,0.6043434719904326,589.4576121460123,None,,,,,,,,,,,,,,,,None,None,None,,None,None,590.1082703430147,None,3,1,0.8196486399974674,590.1082703430147,None,590.9249516547134,None,None,None,None,,07,001,2023_Jan_18_1445,searchDisc5,2021.2.3,59.325819837728126,
images/exp1a_trial_62_colour0_distractors0_r.png,r,3,0,0,0,,,,,0,174,174,174,,,,,,,,,,,,,,,,,,,,,,,,,,,,,,,,,,,,,,,,,,,590.9413039670035,None,2,0.5898036010039505,590.9413039670035,None,,,,,,,,,,,,,,,,None,None,None,,None,None,591.5772793829965,None,3,1,0.6557540349895135,591.5772793829965,None,592.2252053876873,None,None,None,None,,07,001,2023_Jan_18_1445,searchDisc5,2021.2.3,59.325819837728126,
images/exp2c_trial_243_colour1_distractors31_l.png,l,1,1,31,0,,,,,0,175,175,175,,,,,,,,,,,,,,,,,,,,,,,,,,,,,,,,,,,,,,,,,,,592.2412802320032,None,2,0.4362779929942917,592.2412802320032,None,,,,,,,,,,,,,,,,None,None,None,,None,None,592.7251581519959,None,1,1,0.603307938989019,592.7251581519959,None,593.3250118457072,None,None,None,None,,07,001,2023_Jan_18_1445,searchDisc5,2021.2.3,59.325819837728126,
images/exp1a_trial_231_colour2_distractors9_r.png,r,3,2,9,0,,,,,0,176,176,176,,,,,,,,,,,,,,,,,,,,,,,,,,,,,,,,,,,,,,,,,,,593.3419146600063,None,2,0.45433785300701857,593.3419146600063,None,,,,,,,,,,,,,,,,None,None,None,,None,None,593.8420725819888,None,3,1,1.2878084979893174,593.8420725819888,None,595.1250822377042,None,None,None,None,,07,001,2023_Jan_18_1445,searchDisc5,2021.2.3,59.325819837728126,
images/exp2b_trial_272_colour1_distractors4_l.png,l,1,1,4,0,,,,,0,177,177,177,,,,,,,,,,,,,,,,,,,,,,,,,,,,,,,,,,,,,,,,,,,595.1412967260112,None,2,0.3890787729760632,595.1412967260112,None,,,,,,,,,,,,,,,,None,None,None,,None,None,595.5772391950013,None,1,1,0.7039707009971607,595.5772391950013,None,596.2752649346949,None,None,None,None,,07,001,2023_Jan_18_1445,searchDisc5,2021.2.3,59.325819837728126,
images/exp2b_trial_223_colour0_distractors0_l.png,l,1,0,0,0,,,,,0,178,178,178,,,,,,,,,,,,,,,,,,,,,,,,,,,,,,,,,,,,,,,,,,,596.2931517760153,None,2,0.3706097050162498,596.2931517760153,None,,,,,,,,,,,,,,,,None,None,None,,None,None,596.7106591539923,None,1,1,0.6563983609958086,596.7106591539923,None,597.3585467386874,None,None,None,None,,07,001,2023_Jan_18_1445,searchDisc5,2021.2.3,59.325819837728126,
images/exp1a_trial_212_colour2_distractors1_l.png,l,1,2,1,0,,,,,0,179,179,179,,,,,,,,,,,,,,,,,,,,,,,,,,,,,,,,,,,,,,,,,,,597.3748825239891,None,2,0.3377344209875446,597.3748825239891,None,,,,,,,,,,,,,,,,None,None,None,,None,None,597.7582009430043,None,1,1,0.9724196229944937,597.7582009430043,None,598.725253187702,None,None,None,None,,07,001,2023_Jan_18_1445,searchDisc5,2021.2.3,59.325819837728126,
images/exp2c_trial_127_colour0_distractors0_l.png,l,1,0,0,0,,,,,0,180,180,180,,,,,,,,,,,,,,,,,,,,,,,,,,,,,,,,,,,,,,,,,,,598.7420775379869,None,2,0.35383348300820217,598.7420775379869,None,,,,,,,,,,,,,,,,None,None,None,,None,None,599.1420169280027,None,1,1,0.6729574069904629,599.1420169280027,None,599.8085569416871,None,None,None,None,,07,001,2023_Jan_18_1445,searchDisc5,2021.2.3,59.325819837728126,
images/exp2a_trial_230_colour2_distractors4_r.png,r,3,2,4,0,,,,,0,181,181,181,,,,,,,,,,,,,,,,,,,,,,,,,,,,,,,,,,,,,,,,,,,599.824868338008,None,2,0.32111977599561214,599.824868338008,None,,,,,,,,,,,,,,,,None,None,None,,None,None,600.1920455869986,None,3,1,0.7866972539923154,600.1920455869986,None,600.9753202236898,None,None,None,None,,07,001,2023_Jan_18_1445,searchDisc5,2021.2.3,59.325819837728126,
images/exp2a_trial_202_colour3_distractors1_r.png,r,3,3,1,0,,,,,0,182,182,182,,,,,,,,,,,,,,,,,,,,,,,,,,,,,,,,,,,,,,,,,,,600.9918476970051,None,2,0.3399432559963316,600.9918476970051,None,,,,,,,,,,,,,,,,None,None,None,,None,None,601.3757333999965,None,3,1,0.6038526209886186,601.3757333999965,None,601.9752987697138,None,None,None,None,,07,001,2023_Jan_18_1445,searchDisc5,2021.2.3,59.325819837728126,
images/exp1a_trial_286_colour0_distractors0_r.png,r,3,0,0,0,,,,,0,183,183,183,,,,,,,,,,,,,,,,,,,,,,,,,,,,,,,,,,,,,,,,,,,601.9918970070139,None,2,0.3711374390113633,601.9918970070139,None,,,,,,,,,,,,,,,,None,None,None,,None,None,602.4086682010093,None,3,1,0.6417072959884536,602.4086682010093,None,603.0421503366961,None,None,None,None,,07,001,2023_Jan_18_1445,searchDisc5,2021.2.3,59.325819837728126,
images/exp1a_trial_65_colour1_distractors4_r.png,r,3,1,4,0,,,,,0,184,184,184,,,,,,,,,,,,,,,,,,,,,,,,,,,,,,,,,,,,,,,,,,,603.0584345050156,None,2,0.3709551020001527,603.0584345050156,None,,,,,,,,,,,,,,,,None,None,None,,None,None,603.4773898450076,None,3,1,0.6710416870191693,603.4773898450076,None,604.1419597537024,None,None,None,None,,07,001,2023_Jan_18_1445,searchDisc5,2021.2.3,59.325819837728126,
images/exp1a_trial_82_colour1_distractors19_l.png,l,1,1,19,0,,,,,0,185,185,185,,,,,,,,,,,,,,,,,,,,,,,,,,,,,,,,,,,,,,,,,,,604.1584503350023,None,2,0.3711198550008703,604.1584503350023,None,,,,,,,,,,,,,,,,None,None,None,,None,None,604.5752722040052,None,1,1,0.7175127759983297,604.5752722040052,None,605.2920132626896,None,None,None,None,,07,001,2023_Jan_18_1445,searchDisc5,2021.2.3,59.325819837728126,
images/exp1a_trial_17_colour1_distractors9_l.png,l,1,1,9,0,,,,,0,186,186,186,,,,,,,,,,,,,,,,,,,,,,,,,,,,,,,,,,,,,,,,,,,605.3080268960039,None,2,0.36883659500745125,605.3080268960039,None,,,,,,,,,,,,,,,,None,None,None,,None,None,605.7253825420048,None,1,1,0.8717333800159395,605.7253825420048,None,606.5920719837013,None,None,None,None,,07,001,2023_Jan_18_1445,searchDisc5,2021.2.3,59.325819837728126,
images/exp2b_trial_299_colour3_distractors4_r.png,r,3,3,4,0,,,,,0,187,187,187,,,,,,,,,,,,,,,,,,,,,,,,,,,,,,,,,,,,,,,,,,,606.6088044960052,None,2,0.3389958920015488,606.6088044960052,None,,,,,,,,,,,,,,,,None,None,None,,None,None,606.9916872449976,None,3,1,0.754326028021751,606.9916872449976,None,607.742251692689,None,None,None,None,,07,001,2023_Jan_18_1445,searchDisc5,2021.2.3,59.325819837728126,
images/exp2a_trial_318_colour0_distractors0_r.png,r,3,0,0,0,,,,,0,188,188,188,,,,,,,,,,,,,,,,,,,,,,,,,,,,,,,,,,,,,,,,,,,607.7587849560077,None,2,0.37090471902047284,607.7587849560077,None,,,,,,,,,,,,,,,,None,None,None,,None,None,608.1779450220056,None,3,1,1.0055412639921997,608.1779450220056,None,609.1750514757005,None,None,None,None,,07,001,2023_Jan_18_1445,searchDisc5,2021.2.3,59.325819837728126,
images/exp2b_trial_284_colour3_distractors19_l.png,l,1,3,19,0,,,,,0,189,189,189,,,,,,,,,,,,,,,,,,,,,,,,,,,,,,,,,,,,,,,,,,,609.1919057930063,None,2,0.5213532310153823,609.1919057930063,None,,,,,,,,,,,,,,,,None,None,None,,None,None,609.7589327830065,None,1,1,0.820142738026334,609.7589327830065,None,610.5754836887063,None,None,None,None,,07,001,2023_Jan_18_1445,searchDisc5,2021.2.3,59.325819837728126,
images/exp2c_trial_292_colour1_distractors31_r.png,r,3,1,31,0,,,,,0,190,190,190,,,,,,,,,,,,,,,,,,,,,,,,,,,,,,,,,,,,,,,,,,,610.591823632014,None,2,0.5047117799986154,610.591823632014,None,,,,,,,,,,,,,,,,None,None,None,,None,None,611.1443100670003,None,3,1,0.9860588010051288,611.1443100670003,None,612.1260211516928,None,None,None,None,,07,001,2023_Jan_18_1445,searchDisc5,2021.2.3,59.325819837728126,
images/exp2c_trial_44_colour3_distractors9_r.png,r,3,3,9,0,,,,,0,191,191,191,,,,,,,,,,,,,,,,,,,,,,,,,,,,,,,,,,,,,,,,,,,612.1421973080141,None,2,0.4237740450189449,612.1421973080141,None,,,,,,,,,,,,,,,,None,None,None,,None,None,612.6108164449979,None,3,1,0.7847159109951463,612.6108164449979,None,613.3922817037092,None,None,None,None,,07,001,2023_Jan_18_1445,searchDisc5,2021.2.3,59.325819837728126,
images/exp2b_trial_292_colour1_distractors31_r.png,r,3,1,31,0,,,,,0,192,192,192,,,,,,,,,,,,,,,,,,,,,,,,,,,,,,,,,,,,,,,,,,,613.4085815199942,None,2,0.5044893720187247,613.4085815199942,None,,,,,,,,,,,,,,,,None,None,None,,None,None,613.9590009149979,None,3,1,1.0022106990218163,613.9590009149979,None,614.958859100705,None,None,None,None,,07,001,2023_Jan_18_1445,searchDisc5,2021.2.3,59.325819837728126,
images/exp2a_trial_159_colour0_distractors0_l.png,l,1,0,0,0,,,,,0,193,193,193,,,,,,,,,,,,,,,,,,,,,,,,,,,,,,,,,,,,,,,,,,,614.975597156008,None,2,0.5543488309776876,614.975597156008,None,,,,,,,,,,,,,,,,None,None,None,,None,None,615.5760086220107,None,1,1,0.6721928550105076,615.5760086220107,None,616.242300139711,None,None,None,None,,07,001,2023_Jan_18_1445,searchDisc5,2021.2.3,59.325819837728126,
images/exp2a_trial_262_colour2_distractors4_r.png,r,3,2,4,0,,,,,0,194,194,194,,,,,,,,,,,,,,,,,,,,,,,,,,,,,,,,,,,,,,,,,,,616.2589793069928,None,2,0.4064334919967223,616.2589793069928,None,,,,,,,,,,,,,,,,None,None,None,,None,None,616.7112694100069,None,3,1,0.9017742520081811,616.7112694100069,None,617.6092994137143,None,None,None,None,,07,001,2023_Jan_18_1445,searchDisc5,2021.2.3,59.325819837728126,
images/exp1a_trial_287_colour0_distractors0_l.png,l,1,0,0,0,,,,,0,195,195,195,,,,,,,,,,,,,,,,,,,,,,,,,,,,,,,,,,,,,,,,,,,617.6259717619978,None,2,0.7389947329938877,617.6259717619978,None,,,,,,,,,,,,,,,,None,None,None,,None,None,618.4092521250132,None,1,1,0.6060015679977369,618.4092521250132,None,619.009001155704,None,None,None,None,,07,001,2023_Jan_18_1445,searchDisc5,2021.2.3,59.325819837728126,
images/exp2c_trial_109_colour3_distractors19_r.png,r,3,3,19,0,,,,,0,196,196,196,,,,,,,,,,,,,,,,,,,,,,,,,,,,,,,,,,,,,,,,,,,619.0248519460147,None,2,2.938409746013349,619.0248519460147,None,,,,,,,,,,,,,,,,None,None,None,,None,None,622.0112858309876,None,3,1,0.7173239159747027,622.0112858309876,None,622.7253110657039,None,None,None,None,,07,001,2023_Jan_18_1445,searchDisc5,2021.2.3,59.325819837728126,
images/exp2a_trial_237_colour3_distractors19_r.png,r,3,3,19,0,,,,,0,197,197,197,,,,,,,,,,,,,,,,,,,,,,,,,,,,,,,,,,,,,,,,,,,622.7426897989935,None,2,0.6715647040109616,622.7426897989935,None,,,,,,,,,,,,,,,,None,None,None,,None,None,623.4588866980048,None,3,1,0.7533008110185619,623.4588866980048,None,624.2087498957117,None,None,None,None,,07,001,2023_Jan_18_1445,searchDisc5,2021.2.3,59.325819837728126,
images/exp2c_trial_287_colour0_distractors0_l.png,l,1,0,0,0,,,,,0,198,198,198,,,,,,,,,,,,,,,,,,,,,,,,,,,,,,,,,,,,,,,,,,,624.2257755220053,None,2,0.9710285809997004,624.2257755220053,None,,,,,,,,,,,,,,,,None,None,None,,None,None,625.2441673970025,None,1,1,0.7089865960006136,625.2441673970025,None,625.9425975036866,None,None,None,None,,07,001,2023_Jan_18_1445,searchDisc5,2021.2.3,59.325819837728126,
images/exp1a_trial_7_colour2_distractors9_r.png,r,3,2,9,0,,,,,0,199,199,199,,,,,,,,,,,,,,,,,,,,,,,,,,,,,,,,,,,,,,,,,,,625.9611802140134,None,2,0.6023031740041915,625.9611802140134,None,,,,,,,,,,,,,,,,None,None,None,,None,None,626.6093582040048,None,3,1,0.6875188749982044,626.6093582040048,None,627.2926546086965,None,None,None,None,,07,001,2023_Jan_18_1445,searchDisc5,2021.2.3,59.325819837728126,
images/exp1a_trial_254_colour0_distractors0_r.png,r,3,0,0,0,,,,,0,200,200,200,,,,,,,,,,,,,,,,,,,,,,,,,,,,,,,,,,,,,,,,,,,627.311113600008,None,2,0.6211095289909281,627.311113600008,None,,,,,,,,,,,,,,,,None,None,None,,None,None,627.9761259579973,None,3,1,0.6229823070170823,627.9761259579973,None,628.5927325777011,None,None,None,None,,07,001,2023_Jan_18_1445,searchDisc5,2021.2.3,59.325819837728126,
images/exp2c_trial_272_colour1_distractors4_l.png,l,1,1,4,0,,,,,0,201,201,201,,,,,,,,,,,,,,,,,,,,,,,,,,,,,,,,,,,,,,,,,,,628.6094114370062,None,2,0.48785897201742046,628.6094114370062,None,,,,,,,,,,,,,,,,None,None,None,,None,None,629.1449286979914,None,1,1,0.6718935289827641,629.1449286979914,None,629.8089239097026,None,None,None,None,,07,001,2023_Jan_18_1445,searchDisc5,2021.2.3,59.325819837728126,
images/exp1a_trial_47_colour1_distractors1_l.png,l,1,1,1,0,,,,,0,202,202,202,,,,,,,,,,,,,,,,,,,,,,,,,,,,,,,,,,,,,,,,,,,629.8253942599986,None,2,0.5069881899980828,629.8253942599986,None,,,,,,,,,,,,,,,,None,None,None,,None,None,630.3783572000102,None,1,1,0.670554134005215,630.3783572000102,None,631.0428174647095,None,None,None,None,,07,001,2023_Jan_18_1445,searchDisc5,2021.2.3,59.325819837728126,
images/exp2b_trial_60_colour3_distractors19_l.png,l,1,3,19,0,,,,,0,203,203,203,,,,,,,,,,,,,,,,,,,,,,,,,,,,,,,,,,,,,,,,,,,631.0593674950069,None,2,0.454230973002268,631.0593674950069,None,,,,,,,,,,,,,,,,None,None,None,,None,None,631.5618668970128,None,1,1,0.6535674140031915,631.5618668970128,None,632.2095323216927,None,None,None,None,,07,001,2023_Jan_18_1445,searchDisc5,2021.2.3,59.325819837728126,
images/exp1a_trial_292_colour1_distractors31_r.png,r,3,1,31,0,,,,,0,204,204,204,,,,,,,,,,,,,,,,,,,,,,,,,,,,,,,,,,,,,,,,,,,632.2260863780102,None,2,0.5064253660093527,632.2260863780102,None,,,,,,,,,,,,,,,,None,None,None,,None,None,632.7776576190081,None,3,1,0.88193245002185,632.7776576190081,None,633.6593603627116,None,None,None,None,,07,001,2023_Jan_18_1445,searchDisc5,2021.2.3,59.325819837728126,
images/exp2a_trial_235_colour3_distractors4_r.png,r,3,3,4,0,,,,,0,205,205,205,,,,,,,,,,,,,,,,,,,,,,,,,,,,,,,,,,,,,,,,,,,633.6763231350051,None,2,0.5048458699893672,633.6763231350051,None,,,,,,,,,,,,,,,,None,None,None,,None,None,634.2263571280055,None,3,1,0.6208855160220992,634.2263571280055,None,634.8424031047034,None,None,None,None,,07,001,2023_Jan_18_1445,searchDisc5,2021.2.3,59.325819837728126,
images/exp2b_trial_95_colour0_distractors0_l.png,l,1,0,0,0,,,,,0,206,206,206,,,,,,,,,,,,,,,,,,,,,,,,,,,,,,,,,,,,,,,,,,,634.859474633995,None,2,0.504873272991972,634.859474633995,None,,,,,,,,,,,,,,,,None,None,None,,None,None,635.409738702001,None,1,1,0.5896053460019175,635.409738702001,None,635.992945555714,None,None,None,None,,07,001,2023_Jan_18_1445,searchDisc5,2021.2.3,59.325819837728126,
images/exp2c_trial_157_colour3_distractors31_l.png,l,1,3,31,0,,,,,0,207,207,207,,,,,,,,,,,,,,,,,,,,,,,,,,,,,,,,,,,,,,,,,,,636.009480320994,None,2,0.4875117029878311,636.009480320994,None,,,,,,,,,,,,,,,,None,None,None,,None,None,636.5448743290035,None,1,1,0.6534510539786424,636.5448743290035,None,637.1931550647132,None,None,None,None,,07,001,2023_Jan_18_1445,searchDisc5,2021.2.3,59.325819837728126,
images/exp2b_trial_112_colour1_distractors4_l.png,l,1,1,4,0,,,,,0,208,208,208,,,,,,,,,,,,,,,,,,,,,,,,,,,,,,,,,,,,,,,,,,,637.2095287459961,None,2,0.44076639000559226,637.2095287459961,None,,,,,,,,,,,,,,,,None,None,None,,None,None,637.6952643120021,None,1,1,0.6023191299755126,637.6952643120021,None,638.2931711057026,None,None,None,None,,07,001,2023_Jan_18_1445,searchDisc5,2021.2.3,59.325819837728126,
images/exp1a_trial_39_colour2_distractors9_r.png,r,3,2,9,0,,,,,0,209,209,209,,,,,,,,,,,,,,,,,,,,,,,,,,,,,,,,,,,,,,,,,,,638.3114390470146,None,2,0.5042192039836664,638.3114390470146,None,,,,,,,,,,,,,,,,None,None,None,,None,None,638.8596850699978,None,3,1,0.587840923020849,638.8596850699978,None,639.4431435106962,None,None,None,None,,07,001,2023_Jan_18_1445,searchDisc5,2021.2.3,59.325819837728126,
images/exp2a_trial_176_colour1_distractors4_l.png,l,1,1,4,0,,,,,0,210,210,210,,,,,,,,,,,,,,,,,,,,,,,,,,,,,,,,,,,,,,,,,,,639.4617700210074,None,2,0.4403387700149324,639.4617700210074,None,,,,,,,,,,,,,,,,None,None,None,,None,None,639.9433055919944,None,1,1,0.9037264439975843,639.9433055919944,None,640.8430320397019,None,None,None,None,,07,001,2023_Jan_18_1445,searchDisc5,2021.2.3,59.325819837728126,
images/exp2b_trial_147_colour1_distractors31_l.png,l,1,1,31,0,,,,,0,211,211,211,,,,,,,,,,,,,,,,,,,,,,,,,,,,,,,,,,,,,,,,,,,640.8618484330073,None,2,0.4227368720166851,640.8618484330073,None,,,,,,,,,,,,,,,,None,None,None,,None,None,641.3266364540032,None,1,1,0.5840339349815622,641.3266364540032,None,641.909738065704,None,None,None,None,,07,001,2023_Jan_18_1445,searchDisc5,2021.2.3,59.325819837728126,
images/exp2c_trial_259_colour1_distractors19_r.png,r,3,1,19,0,,,,,0,212,212,212,,,,,,,,,,,,,,,,,,,,,,,,,,,,,,,,,,,,,,,,,,,641.9264322289964,None,2,0.45446142900618725,641.9264322289964,None,,,,,,,,,,,,,,,,None,None,None,,None,None,642.4262413149991,None,3,1,0.6528697549947537,642.4262413149991,None,643.0757882696926,None,None,None,None,,07,001,2023_Jan_18_1445,searchDisc5,2021.2.3,59.325819837728126,
images/exp1a_trial_71_colour2_distractors9_r.png,r,3,2,9,0,,,,,0,213,213,213,,,,,,,,,,,,,,,,,,,,,,,,,,,,,,,,,,,,,,,,,,,643.0928774939966,None,2,0.45524027998908423,643.0928774939966,None,,,,,,,,,,,,,,,,None,None,None,,None,None,643.5954150070029,None,3,1,0.8866798709786963,643.5954150070029,None,644.4765281346918,None,None,None,None,,07,001,2023_Jan_18_1445,searchDisc5,2021.2.3,59.325819837728126,
images/exp1a_trial_202_colour3_distractors1_r.png,r,3,3,1,0,,,,,0,214,214,214,,,,,,,,,,,,,,,,,,,,,,,,,,,,,,,,,,,,,,,,,,,644.4928898939979,None,2,0.40569255501031876,644.4928898939979,None,,,,,,,,,,,,,,,,None,None,None,,None,None,644.9433788160095,None,3,1,0.6536746109777596,644.9433788160095,None,645.592602366698,None,None,None,None,,07,001,2023_Jan_18_1445,searchDisc5,2021.2.3,59.325819837728126,
images/exp1a_trial_248_colour2_distractors31_l.png,l,1,2,31,0,,,,,0,215,215,215,,,,,,,,,,,,,,,,,,,,,,,,,,,,,,,,,,,,,,,,,,,645.610034125013,None,2,0.40692674901220016,645.610034125013,None,,,,,,,,,,,,,,,,None,None,None,,None,None,646.0621824469999,None,1,1,0.5977337170043029,646.0621824469999,None,646.659798491688,None,None,None,None,,07,001,2023_Jan_18_1445,searchDisc5,2021.2.3,59.325819837728126,
images/exp1a_trial_277_colour2_distractors4_l.png,l,1,2,4,0,,,,,0,216,216,216,,,,,,,,,,,,,,,,,,,,,,,,,,,,,,,,,,,,,,,,,,,646.6759427920042,None,2,0.421870839985786,646.6759427920042,None,,,,,,,,,,,,,,,,None,None,None,,None,None,647.1452852360089,None,1,1,0.7879283449728973,647.1452852360089,None,647.926689481712,None,None,None,None,,07,001,2023_Jan_18_1445,searchDisc5,2021.2.3,59.325819837728126,
images/exp2c_trial_120_colour2_distractors31_l.png,l,1,2,31,0,,,,,0,217,217,217,,,,,,,,,,,,,,,,,,,,,,,,,,,,,,,,,,,,,,,,,,,647.9430617369944,None,2,0.43754220101982355,647.9430617369944,None,,,,,,,,,,,,,,,,None,None,None,,None,None,648.4268972499995,None,1,1,0.6531649320095312,648.4268972499995,None,649.0767377757002,None,None,None,None,,07,001,2023_Jan_18_1445,searchDisc5,2021.2.3,59.325819837728126,
images/exp2b_trial_295_colour2_distractors9_r.png,r,3,2,9,0,,,,,0,218,218,218,,,,,,,,,,,,,,,,,,,,,,,,,,,,,,,,,,,,,,,,,,,649.0932350060029,None,2,0.5211163059866522,649.0932350060029,None,,,,,,,,,,,,,,,,None,None,None,,None,None,649.6622370340046,None,3,1,0.7863614150264766,649.6622370340046,None,650.4432870967139,None,None,None,None,,07,001,2023_Jan_18_1445,searchDisc5,2021.2.3,59.325819837728126,
images/exp1a_trial_163_colour1_distractors19_r.png,r,3,1,19,0,,,,,0,219,219,219,,,,,,,,,,,,,,,,,,,,,,,,,,,,,,,,,,,,,,,,,,,650.4597580209957,None,2,0.5209712439973373,650.4597580209957,None,,,,,,,,,,,,,,,,None,None,None,,None,None,651.0261013240088,None,3,1,0.8677017249865457,651.0261013240088,None,651.8933739356871,None,None,None,None,,07,001,2023_Jan_18_1445,searchDisc5,2021.2.3,59.325819837728126,
images/exp1a_trial_132_colour1_distractors31_r.png,r,3,1,31,0,,,,,0,220,220,220,,,,,,,,,,,,,,,,,,,,,,,,,,,,,,,,,,,,,,,,,,,651.909853508987,None,2,0.4399779699742794,651.909853508987,None,,,,,,,,,,,,,,,,None,None,None,,None,None,652.3936556529952,None,3,1,0.6640686549944803,652.3936556529952,None,653.0602408247069,None,None,None,None,,07,001,2023_Jan_18_1445,searchDisc5,2021.2.3,59.325819837728126,
images/exp2b_trial_271_colour1_distractors1_l.png,l,1,1,1,0,,,,,0,221,221,221,,,,,,,,,,,,,,,,,,,,,,,,,,,,,,,,,,,,,,,,,,,653.0767205010052,None,2,0.43976144900079817,653.0767205010052,None,,,,,,,,,,,,,,,,None,None,None,,None,None,653.5602100419928,None,1,1,0.5560207109956536,653.5602100419928,None,654.1103409767093,None,None,None,None,,07,001,2023_Jan_18_1445,searchDisc5,2021.2.3,59.325819837728126,
images/exp2a_trial_199_colour2_distractors9_r.png,r,3,2,9,0,,,,,0,222,222,222,,,,,,,,,,,,,,,,,,,,,,,,,,,,,,,,,,,,,,,,,,,654.1268983010086,None,2,0.48790343801374547,654.1268983010086,None,,,,,,,,,,,,,,,,None,None,None,,None,None,654.6604341340135,None,3,1,0.8158300330105703,654.6604341340135,None,655.4767716317147,None,None,None,None,,07,001,2023_Jan_18_1445,searchDisc5,2021.2.3,59.325819837728126,
images/exp2b_trial_204_colour3_distractors9_r.png,r,3,3,9,0,,,,,0,223,223,223,,,,,,,,,,,,,,,,,,,,,,,,,,,,,,,,,,,,,,,,,,,655.4933988190023,None,2,0.637657751009101,655.4933988190023,None,,,,,,,,,,,,,,,,None,None,None,,None,None,656.1785093660001,None,3,1,0.7389360450033564,656.1785093660001,None,656.9101483657141,None,None,None,None,,07,001,2023_Jan_18_1445,searchDisc5,2021.2.3,59.325819837728126,
images/exp1a_trial_173_colour3_distractors19_r.png,r,3,3,19,0,,,,,0,224,224,224,,,,,,,,,,,,,,,,,,,,,,,,,,,,,,,,,,,,,,,,,,,656.9267525839969,None,2,0.3877661150181666,656.9267525839969,None,,,,,,,,,,,,,,,,None,None,None,,None,None,657.3620067329903,None,3,1,0.5683420059795026,657.3620067329903,None,657.9271470376989,None,None,None,None,,07,001,2023_Jan_18_1445,searchDisc5,2021.2.3,59.325819837728126,
images/exp2a_trial_32_colour1_distractors1_r.png,r,3,1,1,0,,,,,0,225,225,225,,,,,,,,,,,,,,,,,,,,,,,,,,,,,,,,,,,,,,,,,,,657.94566312799,None,2,0.47057939699152485,657.94566312799,None,,,,,,,,,,,,,,,,None,None,None,,None,None,658.4603965250135,None,3,1,0.6223563679959625,658.4603965250135,None,659.0768115376995,None,None,None,None,,07,001,2023_Jan_18_1445,searchDisc5,2021.2.3,59.325819837728126,
