ImageFile,targ_side,correctAnswer,colour,distNo,targetType,trials_2.thisRepN,trials_2.thisTrialN,trials_2.thisN,trials_2.thisIndex,trials.thisRepN,trials.thisTrialN,trials.thisN,trials.thisIndex,text_6.started,text_6.stopped,buttonBox.keys,buttonBox.rt,buttonBox.started,buttonBox.stopped,text_7.started,text_7.stopped,buttonBox_3.keys,buttonBox_3.rt,buttonBox_3.started,buttonBox_3.stopped,text_8.started,text_8.stopped,buttonBox_4.keys,buttonBox_4.rt,buttonBox_4.started,buttonBox_4.stopped,text_9.started,text_9.stopped,buttonBox_5.keys,buttonBox_5.rt,buttonBox_5.started,buttonBox_5.stopped,text_2.started,text_2.stopped,buttonBox_6.keys,buttonBox_6.rt,buttonBox_6.started,buttonBox_6.stopped,text_5.started,text_5.stopped,buttonBox_7.keys,buttonBox_7.rt,image_2.started,image_2.stopped,image_3.started,image_3.stopped,buttonBox_8.keys,buttonBox_8.rt,buttonBox_8.started,buttonBox_8.stopped,polygon.started,polygon.stopped,buttonBox_9.keys,buttonBox_9.rt,buttonBox_9.started,buttonBox_9.stopped,image.started,image.stopped,buttonBox_10.keys,buttonBox_10.corr,buttonBox_10.rt,buttonBox_10.started,buttonBox_10.stopped,text_4.started,text_4.stopped,text.started,text.stopped,buttonBox_11.keys,buttonBox_11.rt,buttonBox_11.started,buttonBox_11.stopped,targetTypeInstruction.started,targetTypeInstruction.stopped,buttonBox_2.keys,buttonBox_2.rt,buttonBox_2.started,buttonBox_2.stopped,dispStimuli.started,dispStimuli.stopped,buttonBox_12.keys,buttonBox_12.corr,buttonBox_12.rt,buttonBox_12.started,buttonBox_12.stopped,breakMessage.started,breakMessage.stopped,buttonBox_13.keys,buttonBox_13.started,buttonBox_13.stopped,buttonBox_13.rt,participant,session,date,expName,psychopyVersion,frameRate,
,,,,,,,,,,,,,,11.135290143021848,None,2,49.03782209401834,11.135290143021848,None,,,,,,,,,,,,,,,,,,,,,,,,,,,,,,,,,,,,,,,,,,,,,,,,,,,,,,,,,,,,,,,,,,,,,,,,,,,,,08,001,2023_Jan_18_1708,searchDisc5,2021.2.3,59.93985419321621,
,,,,,,,,,,,,,,,,,,,,60.16740773100173,None,2,20.131567711010575,60.16740773100173,None,,,,,,,,,,,,,,,,,,,,,,,,,,,,,,,,,,,,,,,,,,,,,,,,,,,,,,,,,,,,,,,,,,,,,,,08,001,2023_Jan_18_1708,searchDisc5,2021.2.3,59.93985419321621,
,,,,,,,,,,,,,,,,,,,,,,,,,,80.30347789800726,None,2,4.5143359520006925,80.30347789800726,None,,,,,,,,,,,,,,,,,,,,,,,,,,,,,,,,,,,,,,,,,,,,,,,,,,,,,,,,,,,,,,,,,08,001,2023_Jan_18_1708,searchDisc5,2021.2.3,59.93985419321621,
,,,,,,,,,,,,,,,,,,,,,,,,,,,,,,,,84.8204468540207,None,2,10.362704585015308,84.8204468540207,None,,,,,,,,,,,,,,,,,,,,,,,,,,,,,,,,,,,,,,,,,,,,,,,,,,,,,,,,,,,08,001,2023_Jan_18_1708,searchDisc5,2021.2.3,59.93985419321621,
,,,,,,,,,,,,,,,,,,,,,,,,,,,,,,,,,,,,,,95.18721332700807,None,2,9.064862115017604,96.17049511201913,None,,,,,,,,,,,,,,,,,,,,,,,,,,,,,,,,,,,,,,,,,,,,,,,,,,,,,08,001,2023_Jan_18_1708,searchDisc5,2021.2.3,59.93985419321621,
,,,,,,,,,,,,,,,,,,,,,,,,,,,,,,,,,,,,,,,,,,,,105.23543142899871,None,2,17.4817303569871,,,,,,,,,,,,,,,,,,,,,,,,,,,,,,,,,,,,,,,,,,,,,,,,,08,001,2023_Jan_18_1708,searchDisc5,2021.2.3,59.93985419321621,
,,,,,,,,,,,,,,,,,,,,,,,,,,,,,,,,,,,,,,,,,,,,,,,,125.71946883801138,None,125.71946883801138,None,2,6.397637322981609,125.71946883801138,None,,,,,,,,,,,,,,,,,,,,,,,,,,,,,,,,,,,,,,,,,08,001,2023_Jan_18_1708,searchDisc5,2021.2.3,59.93985419321621,
Practice arrays/exp1a_trial_0_colour1_distractors1_r.png,r,3,,,,0,0,0,0,,,,,,,,,,,,,,,,,,,,,,,,,,,,,,,,,,,,,,,,,,,,,,,132.1527555930079,None,2,15.902708403009456,132.1527555930079,None,148.10584877702058,None,3,1,2.6363852439972106,148.10584877702058,None,150.7366565700213,None,,,,,,,,,,,,,,,,,,,,,,,,,,08,001,2023_Jan_18_1708,searchDisc5,2021.2.3,59.93985419321621,
Practice arrays/exp1a_trial_27_colour3_distractors9_l.png,l,1,,,,0,1,1,12,,,,,,,,,,,,,,,,,,,,,,,,,,,,,,,,,,,,,,,,,,,,,,,152.7388733450207,None,2,2.232795990013983,152.7388733450207,None,155.02199104899773,None,1,1,4.282041400991147,155.02199104899773,None,159.30361398600508,None,,,,,,,,,,,,,,,,,,,,,,,,,,08,001,2023_Jan_18_1708,searchDisc5,2021.2.3,59.93985419321621,
Practice arrays/exp1a_trial_21_colour2_distractors4_l.png,l,1,,,,0,2,2,9,,,,,,,,,,,,,,,,,,,,,,,,,,,,,,,,,,,,,,,,,,,,,,,161.30360556201776,None,2,2.4999039429822005,161.30360556201776,None,163.85589908700786,None,3,0,2.104888308007503,163.85589908700786,None,165.95310395400156,None,,,,,,,,,,,,,,,,,,,,,,,,,,08,001,2023_Jan_18_1708,searchDisc5,2021.2.3,59.93985419321621,
Practice arrays/exp1a_trial_30_colour0_distractors0_r.png,r,3,,,,0,3,3,14,,,,,,,,,,,,,,,,,,,,,,,,,,,,,,,,,,,,,,,,,,,,,,,167.95386171000428,None,2,4.163610768999206,167.95386171000428,None,172.17052266502287,None,3,1,1.088021703006234,172.17052266502287,None,173.2539974260144,None,,,,,,,,,,,,,,,,,,,,,,,,,,08,001,2023_Jan_18_1708,searchDisc5,2021.2.3,59.93985419321621,
Practice arrays/exp1a_trial_14_colour3_distractors31_r.png,r,3,,,,0,4,4,6,,,,,,,,,,,,,,,,,,,,,,,,,,,,,,,,,,,,,,,,,,,,,,,175.2538042590022,None,2,1.41459862398915,175.2538042590022,None,176.72045777199673,181.72084434502176,3,1,6.9686947890149895,176.72045777199673,None,183.6896175740112,None,,,,,,,,,,,,,,,,,,,,,,,,,,08,001,2023_Jan_18_1708,searchDisc5,2021.2.3,59.93985419321621,
Practice arrays/exp1a_trial_7_colour2_distractors9_r.png,r,3,,,,0,5,5,2,,,,,,,,,,,,,,,,,,,,,,,,,,,,,,,,,,,,,,,,,,,,,,,185.6893700210203,None,2,1.0804783969942946,185.6893700210203,None,186.82321356300963,None,3,1,1.1677720980078448,186.82321356300963,None,187.9878558180062,None,,,,,,,,,,,,,,,,,,,,,,,,,,08,001,2023_Jan_18_1708,searchDisc5,2021.2.3,59.93985419321621,
Practice arrays/exp1a_trial_31_colour0_distractors0_l.png,l,1,,,,0,6,6,15,,,,,,,,,,,,,,,,,,,,,,,,,,,,,,,,,,,,,,,,,,,,,,,189.98952548700618,None,2,0.5824097960139625,189.98952548700618,None,190.6225266030233,None,1,1,0.5867377330141608,190.6225266030233,None,191.20453920401633,None,,,,,,,,,,,,,,,,,,,,,,,,,,08,001,2023_Jan_18_1708,searchDisc5,2021.2.3,59.93985419321621,
Practice arrays/exp1a_trial_17_colour1_distractors9_l.png,l,1,,,,0,7,7,7,,,,,,,,,,,,,,,,,,,,,,,,,,,,,,,,,,,,,,,,,,,,,,,193.20627689300454,None,2,0.5824401789868716,193.20627689300454,None,193.8400985269982,None,1,1,0.7649997410189826,193.8400985269982,None,194.60445038301987,None,,,,,,,,,,,,,,,,,,,,,,,,,,08,001,2023_Jan_18_1708,searchDisc5,2021.2.3,59.93985419321621,
Practice arrays/exp1a_trial_10_colour3_distractors1_r.png,r,3,,,,0,8,8,4,,,,,,,,,,,,,,,,,,,,,,,,,,,,,,,,,,,,,,,,,,,,,,,196.60620662901783,None,2,0.9490782059729099,196.60620662901783,None,197.60699967699475,None,3,1,0.8831508570001461,197.60699967699475,None,198.48819791301503,None,,,,,,,,,,,,,,,,,,,,,,,,,,08,001,2023_Jan_18_1708,searchDisc5,2021.2.3,59.93985419321621,
Practice arrays/exp1a_trial_8_colour2_distractors19_r.png,r,3,,,,0,9,9,3,,,,,,,,,,,,,,,,,,,,,,,,,,,,,,,,,,,,,,,,,,,,,,,200.48980283900164,None,2,0.6637319290020969,200.48980283900164,None,201.20665283300332,None,3,1,0.7170356040005572,201.20665283300332,None,201.9212955610128,None,,,,,,,,,,,,,,,,,,,,,,,,,,08,001,2023_Jan_18_1708,searchDisc5,2021.2.3,59.93985419321621,
Practice arrays/exp1a_trial_1_colour1_distractors4_r.png,r,3,,,,0,10,10,1,,,,,,,,,,,,,,,,,,,,,,,,,,,,,,,,,,,,,,,,,,,,,,,203.9235018659965,None,2,1.5480428260052577,203.9235018659965,None,205.52142736999667,None,3,1,0.6366752079920843,205.52142736999667,None,206.15500337199774,None,,,,,,,,,,,,,,,,,,,,,,,,,,08,001,2023_Jan_18_1708,searchDisc5,2021.2.3,59.93985419321621,
Practice arrays/exp1a_trial_16_colour1_distractors4_l.png,l,1,,,,0,11,11,13,,,,,,,,,,,,,,,,,,,,,,,,,,,,,,,,,,,,,,,,,,,,,,,208.15501353601576,None,2,1.1819500160054304,208.15501353601576,None,209.39033307202044,None,3,0,0.6214875049772672,209.39033307202044,None,210.0050349039957,None,,,,,,,,,,,,,,,,,,,,,,,,,,08,001,2023_Jan_18_1708,searchDisc5,2021.2.3,59.93985419321621,
Practice arrays/exp1a_trial_12_colour3_distractors9_r.png,r,3,,,,0,12,12,5,,,,,,,,,,,,,,,,,,,,,,,,,,,,,,,,,,,,,,,,,,,,,,,212.007195608021,None,2,0.7657224620052148,212.007195608021,None,212.82188273599604,None,3,1,1.0339009329909459,212.82188273599604,None,213.8549924470135,None,,,,,,,,,,,,,,,,,,,,,,,,,,08,001,2023_Jan_18_1708,searchDisc5,2021.2.3,59.93985419321621,
Practice arrays/exp1a_trial_25_colour3_distractors1_l.png,l,1,,,,0,13,13,11,,,,,,,,,,,,,,,,,,,,,,,,,,,,,,,,,,,,,,,,,,,,,,,215.85675875699962,None,2,0.4137811299879104,215.85675875699962,None,216.32388392600114,None,1,1,0.6374319010064937,216.32388392600114,None,216.95527278300142,None,,,,,,,,,,,,,,,,,,,,,,,,,,08,001,2023_Jan_18_1708,searchDisc5,2021.2.3,59.93985419321621,
Practice arrays/exp1a_trial_23_colour2_distractors19_l.png,l,1,,,,0,14,14,10,,,,,,,,,,,,,,,,,,,,,,,,,,,,,,,,,,,,,,,,,,,,,,,218.95682946502347,None,2,0.48091172898421064,218.95682946502347,None,219.4886593800038,None,1,1,0.8006965509848669,219.4886593800038,None,220.28842132701539,None,,,,,,,,,,,,,,,,,,,,,,,,,,08,001,2023_Jan_18_1708,searchDisc5,2021.2.3,59.93985419321621,
Practice arrays/exp1a_trial_18_colour1_distractors19_l.png,l,1,,,,0,15,15,8,,,,,,,,,,,,,,,,,,,,,,,,,,,,,,,,,,,,,,,,,,,,,,,222.29037690602127,None,2,0.3970642820058856,222.29037690602127,None,222.73862378901686,None,1,1,0.7834697009820957,222.73862378901686,None,223.52205548301572,None,,,,,,,,,,,,,,,,,,,,,,,,,,08,001,2023_Jan_18_1708,searchDisc5,2021.2.3,59.93985419321621,
,,,,,,,,,,,,,,,,,,,,,,,,,,,,,,,,,,,,,,,,,,,,,,,,,,,,,,,,,,,,,,,,,,,,,,,225.60714061601902,None,2,12.833917593001388,226.59077581000747,None,,,,,,,,,,,,,,,,,,,,08,001,2023_Jan_18_1708,searchDisc5,2021.2.3,59.93985419321621,
images/exp2a_trial_295_colour2_distractors9_r.png,r,3,2,9,0,,,,,0,0,0,0,,,,,,,,,,,,,,,,,,,,,,,,,,,,,,,,,,,,,,,,,,,249.22244002501247,None,2,3.945489423989784,249.22244002501247,None,,,,,,,,,,,,,,,,240.02482633001637,None,2,7.214926292974269,242.00777907800511,None,253.23925849900115,None,3,1,1.041291375993751,253.23925849900115,None,254.2897959032096,None,None,None,None,,08,001,2023_Jan_18_1708,searchDisc5,2021.2.3,59.93985419321621,
images/exp2c_trial_68_colour1_distractors31_r.png,r,3,1,31,0,,,,,0,1,1,1,,,,,,,,,,,,,,,,,,,,,,,,,,,,,,,,,,,,,,,,,,,254.30764414102305,None,2,3.3379843599977903,254.30764414102305,None,,,,,,,,,,,,,,,,None,None,None,,None,None,257.68930528502096,None,3,1,0.5989038970146794,257.68930528502096,None,258.2896915341029,None,None,None,None,,08,001,2023_Jan_18_1708,searchDisc5,2021.2.3,59.93985419321621,
images/exp2b_trial_266_colour3_distractors1_r.png,r,3,3,1,0,,,,,0,2,2,2,,,,,,,,,,,,,,,,,,,,,,,,,,,,,,,,,,,,,,,,,,,258.30802885701996,None,2,0.9042442709906027,258.30802885701996,None,,,,,,,,,,,,,,,,None,None,None,,None,None,259.2583399100113,None,3,1,0.6497505680017639,259.2583399100113,None,259.90635167010475,None,None,None,None,,08,001,2023_Jan_18_1708,searchDisc5,2021.2.3,59.93985419321621,
images/exp2c_trial_295_colour2_distractors9_r.png,r,3,2,9,0,,,,,0,3,3,3,,,,,,,,,,,,,,,,,,,,,,,,,,,,,,,,,,,,,,,,,,,259.92295206402196,None,2,0.839473005005857,259.92295206402196,None,,,,,,,,,,,,,,,,None,None,None,,None,None,260.8056990990008,None,3,1,0.6158366739982739,260.8056990990008,None,261.422439755121,None,None,None,None,,08,001,2023_Jan_18_1708,searchDisc5,2021.2.3,59.93985419321621,
images/exp2a_trial_281_colour3_distractors1_l.png,l,1,3,1,0,,,,,0,4,4,4,,,,,,,,,,,,,,,,,,,,,,,,,,,,,,,,,,,,,,,,,,,261.43935022701044,None,2,0.4884529580012895,261.43935022701044,None,,,,,,,,,,,,,,,,None,None,None,,None,None,261.97273559399764,None,1,1,0.6361846769868862,261.97273559399764,None,262.606853955111,None,None,None,None,,08,001,2023_Jan_18_1708,searchDisc5,2021.2.3,59.93985419321621,
images/exp2c_trial_83_colour1_distractors31_l.png,l,1,1,31,0,,,,,0,5,5,5,,,,,,,,,,,,,,,,,,,,,,,,,,,,,,,,,,,,,,,,,,,262.6231245910167,None,2,1.370060024986742,262.6231245910167,None,,,,,,,,,,,,,,,,None,None,None,,None,None,264.0394328600087,None,1,1,0.6840534970106091,264.0394328600087,None,264.7233778791036,None,None,None,None,,08,001,2023_Jan_18_1708,searchDisc5,2021.2.3,59.93985419321621,
images/exp2a_trial_301_colour3_distractors19_r.png,r,3,3,19,0,,,,,0,6,6,6,,,,,,,,,,,,,,,,,,,,,,,,,,,,,,,,,,,,,,,,,,,264.7396552560094,None,2,0.7871584889944643,264.7396552560094,None,,,,,,,,,,,,,,,,None,None,None,,None,None,265.57310138401226,None,3,1,0.7856329850037582,265.57310138401226,None,266.3565552511194,None,None,None,None,,08,001,2023_Jan_18_1708,searchDisc5,2021.2.3,59.93985419321621,
images/exp2c_trial_293_colour2_distractors1_r.png,r,3,2,1,0,,,,,0,7,7,7,,,,,,,,,,,,,,,,,,,,,,,,,,,,,,,,,,,,,,,,,,,266.37284575399826,None,2,0.8710075179988053,266.37284575399826,None,,,,,,,,,,,,,,,,None,None,None,,None,None,267.2899088920094,None,3,1,0.5511760750086978,267.2899088920094,None,267.83994795612523,None,None,None,None,,08,001,2023_Jan_18_1708,searchDisc5,2021.2.3,59.93985419321621,
images/exp1a_trial_149_colour2_distractors4_l.png,l,1,2,4,0,,,,,0,8,8,8,,,,,,,,,,,,,,,,,,,,,,,,,,,,,,,,,,,,,,,,,,,267.8562733930012,None,2,0.4543036999821197,267.8562733930012,None,,,,,,,,,,,,,,,,None,None,None,,None,None,268.35650660601095,None,1,1,0.6368943289853632,268.35650660601095,None,268.9904555781162,None,None,None,None,,08,001,2023_Jan_18_1708,searchDisc5,2021.2.3,59.93985419321621,
images/exp1a_trial_26_colour3_distractors4_l.png,l,1,3,4,0,,,,,0,9,9,9,,,,,,,,,,,,,,,,,,,,,,,,,,,,,,,,,,,,,,,,,,,269.0065928910044,None,2,0.487339664978208,269.0065928910044,None,,,,,,,,,,,,,,,,None,None,None,,None,None,269.5394678020093,None,1,1,0.6029411540075671,269.5394678020093,None,270.1393984541122,None,None,None,None,,08,001,2023_Jan_18_1708,searchDisc5,2021.2.3,59.93985419321621,
images/exp2b_trial_179_colour1_distractors31_l.png,l,1,1,31,0,,,,,0,10,10,10,,,,,,,,,,,,,,,,,,,,,,,,,,,,,,,,,,,,,,,,,,,270.15587616400444,None,2,0.4875754439854063,270.15587616400444,None,,,,,,,,,,,,,,,,None,None,None,,None,None,270.69163772501634,None,1,1,0.7209423720196355,270.69163772501634,None,271.40660002010407,None,None,None,None,,08,001,2023_Jan_18_1708,searchDisc5,2021.2.3,59.93985419321621,
images/exp2c_trial_104_colour2_distractors19_r.png,r,3,2,19,0,,,,,0,11,11,11,,,,,,,,,,,,,,,,,,,,,,,,,,,,,,,,,,,,,,,,,,,271.42285619300674,None,2,0.6692665810114704,271.42285619300674,None,,,,,,,,,,,,,,,,None,None,None,,None,None,272.1396149240027,None,3,1,0.668210589006776,272.1396149240027,None,272.8067324851057,None,None,None,None,,08,001,2023_Jan_18_1708,searchDisc5,2021.2.3,59.93985419321621,
images/exp2a_trial_2_colour1_distractors9_r.png,r,3,1,9,0,,,,,0,12,12,12,,,,,,,,,,,,,,,,,,,,,,,,,,,,,,,,,,,,,,,,,,,272.82287283299956,None,2,0.4209041740105022,272.82287283299956,None,,,,,,,,,,,,,,,,None,None,None,,None,None,273.28991868701996,None,3,1,0.6699627939960919,273.28991868701996,None,273.9566535431135,None,None,None,None,,08,001,2023_Jan_18_1708,searchDisc5,2021.2.3,59.93985419321621,
images/exp2c_trial_126_colour0_distractors0_r.png,r,3,0,0,0,,,,,0,13,13,13,,,,,,,,,,,,,,,,,,,,,,,,,,,,,,,,,,,,,,,,,,,273.972592762002,None,2,0.471127886994509,273.972592762002,None,,,,,,,,,,,,,,,,None,None,None,,None,None,274.4902042550093,None,3,1,0.7550322139868513,274.4902042550093,None,275.2402074971236,None,None,None,None,,08,001,2023_Jan_18_1708,searchDisc5,2021.2.3,59.93985419321621,
images/exp2c_trial_182_colour2_distractors9_l.png,l,1,2,9,0,,,,,0,14,14,14,,,,,,,,,,,,,,,,,,,,,,,,,,,,,,,,,,,,,,,,,,,275.2565447880188,None,2,0.4375110249966383,275.2565447880188,None,,,,,,,,,,,,,,,,None,None,None,,None,None,275.74022903700825,None,1,1,0.6873931210138835,275.74022903700825,None,276.423222114105,None,None,None,None,,08,001,2023_Jan_18_1708,searchDisc5,2021.2.3,59.93985419321621,
images/exp2b_trial_136_colour2_distractors19_r.png,r,3,2,19,0,,,,,0,15,15,15,,,,,,,,,,,,,,,,,,,,,,,,,,,,,,,,,,,,,,,,,,,276.43960960101685,None,2,0.604547041002661,276.43960960101685,None,,,,,,,,,,,,,,,,None,None,None,,None,None,277.09211944800336,None,3,1,0.8187224099820014,277.09211944800336,None,277.9067170541151,None,None,None,None,,08,001,2023_Jan_18_1708,searchDisc5,2021.2.3,59.93985419321621,
images/exp2b_trial_50_colour1_distractors19_l.png,l,1,1,19,0,,,,,0,16,16,16,,,,,,,,,,,,,,,,,,,,,,,,,,,,,,,,,,,,,,,,,,,277.9228885699995,None,2,0.606500149006024,277.9228885699995,None,,,,,,,,,,,,,,,,None,None,None,,None,None,278.57506501401076,None,1,1,0.8023340080108028,278.57506501401076,None,279.3734972871083,None,None,None,None,,08,001,2023_Jan_18_1708,searchDisc5,2021.2.3,59.93985419321621,
images/exp2c_trial_254_colour0_distractors0_r.png,r,3,0,0,0,,,,,0,17,17,17,,,,,,,,,,,,,,,,,,,,,,,,,,,,,,,,,,,,,,,,,,,279.3900245790137,None,2,0.6360783580166753,279.3900245790137,None,,,,,,,,,,,,,,,,None,None,None,,None,None,280.07538982099504,None,3,1,0.5877927849942353,280.07538982099504,None,280.6570262951194,None,None,None,None,,08,001,2023_Jan_18_1708,searchDisc5,2021.2.3,59.93985419321621,
images/exp1a_trial_96_colour1_distractors1_r.png,r,3,1,1,0,,,,,0,18,18,18,,,,,,,,,,,,,,,,,,,,,,,,,,,,,,,,,,,,,,,,,,,280.67327684001066,None,2,0.5874990230076946,280.67327684001066,None,,,,,,,,,,,,,,,,None,None,None,,None,None,281.30871711700456,None,1,0,0.7877697099756915,281.30871711700456,None,282.09024868312406,None,None,None,None,,08,001,2023_Jan_18_1708,searchDisc5,2021.2.3,59.93985419321621,
images/exp1a_trial_318_colour0_distractors0_r.png,r,3,0,0,0,,,,,0,19,19,19,,,,,,,,,,,,,,,,,,,,,,,,,,,,,,,,,,,,,,,,,,,282.1061683880107,None,2,1.122028716985369,282.1061683880107,None,,,,,,,,,,,,,,,,None,None,None,,None,None,283.2735764730023,None,3,1,0.8366580469883047,283.2735764730023,None,284.1064946751052,None,None,None,None,,08,001,2023_Jan_18_1708,searchDisc5,2021.2.3,59.93985419321621,
images/exp2a_trial_176_colour1_distractors4_l.png,l,1,1,4,0,,,,,0,20,20,20,,,,,,,,,,,,,,,,,,,,,,,,,,,,,,,,,,,,,,,,,,,284.12316949199885,None,2,0.7736814520030748,284.12316949199885,None,,,,,,,,,,,,,,,,None,None,None,,None,None,284.9422882500221,None,1,1,0.7028504690097179,284.9422882500221,None,285.6404199961165,None,None,None,None,,08,001,2023_Jan_18_1708,searchDisc5,2021.2.3,59.93985419321621,
images/exp1a_trial_259_colour1_distractors19_r.png,r,3,1,19,0,,,,,0,21,21,21,,,,,,,,,,,,,,,,,,,,,,,,,,,,,,,,,,,,,,,,,,,285.6568391600158,None,2,0.49102065997431055,285.6568391600158,None,,,,,,,,,,,,,,,,None,None,None,,None,None,286.1937910139968,None,3,1,0.6801222750218585,286.1937910139968,None,286.8738789781113,None,None,None,None,,08,001,2023_Jan_18_1708,searchDisc5,2021.2.3,59.93985419321621,
images/exp1a_trial_66_colour1_distractors9_r.png,r,3,1,9,0,,,,,0,22,22,22,,,,,,,,,,,,,,,,,,,,,,,,,,,,,,,,,,,,,,,,,,,286.89230021700496,None,2,0.4377992750087287,286.89230021700496,None,,,,,,,,,,,,,,,,None,None,None,,None,None,287.3735233019979,None,3,1,0.801392568013398,287.3735233019979,None,288.1738077781105,None,None,None,None,,08,001,2023_Jan_18_1708,searchDisc5,2021.2.3,59.93985419321621,
images/exp2b_trial_42_colour3_distractors1_r.png,r,3,3,1,0,,,,,0,23,23,23,,,,,,,,,,,,,,,,,,,,,,,,,,,,,,,,,,,,,,,,,,,288.1897760470165,None,2,0.44004916699486785,288.1897760470165,None,,,,,,,,,,,,,,,,None,None,None,,None,None,288.67345795501024,None,3,1,0.5690791000088211,288.67345795501024,None,289.24045566810526,None,None,None,None,,08,001,2023_Jan_18_1708,searchDisc5,2021.2.3,59.93985419321621,
images/exp2b_trial_299_colour3_distractors4_r.png,r,3,3,4,0,,,,,0,24,24,24,,,,,,,,,,,,,,,,,,,,,,,,,,,,,,,,,,,,,,,,,,,289.2586819380231,None,2,0.3730812249996234,289.2586819380231,None,,,,,,,,,,,,,,,,None,None,None,,None,None,289.6758567460056,None,3,1,0.7165074640070088,289.6758567460056,None,290.3905904991028,None,None,None,None,,08,001,2023_Jan_18_1708,searchDisc5,2021.2.3,59.93985419321621,
images/exp2a_trial_98_colour1_distractors9_r.png,r,3,1,9,0,,,,,0,25,25,25,,,,,,,,,,,,,,,,,,,,,,,,,,,,,,,,,,,,,,,,,,,290.40696608801954,None,2,0.3207453349896241,290.40696608801954,None,,,,,,,,,,,,,,,,None,None,None,,None,None,290.7737638060062,None,3,1,0.5536094199924264,290.7737638060062,None,291.32379409109706,None,None,None,None,,08,001,2023_Jan_18_1708,searchDisc5,2021.2.3,59.93985419321621,
images/exp2b_trial_309_colour2_distractors4_l.png,l,1,2,4,0,,,,,0,26,26,26,,,,,,,,,,,,,,,,,,,,,,,,,,,,,,,,,,,,,,,,,,,291.3417542480165,None,2,0.30653333498048596,291.3417542480165,None,,,,,,,,,,,,,,,,None,None,None,,None,None,291.6904402670043,None,1,1,0.718116153992014,291.6904402670043,None,292.4072758221067,None,None,None,None,,08,001,2023_Jan_18_1708,searchDisc5,2021.2.3,59.93985419321621,
images/exp2b_trial_262_colour2_distractors4_r.png,r,3,2,4,0,,,,,0,27,27,27,,,,,,,,,,,,,,,,,,,,,,,,,,,,,,,,,,,,,,,,,,,292.42369699201663,None,2,0.5043756949889939,292.42369699201663,None,,,,,,,,,,,,,,,,None,None,None,,None,None,292.9754004999995,None,3,1,0.6045959710027091,292.9754004999995,None,293.57396906312204,None,None,None,None,,08,001,2023_Jan_18_1708,searchDisc5,2021.2.3,59.93985419321621,
images/exp2a_trial_178_colour1_distractors19_l.png,l,1,1,19,0,,,,,0,28,28,28,,,,,,,,,,,,,,,,,,,,,,,,,,,,,,,,,,,,,,,,,,,293.590190220013,None,2,0.33959889100515284,293.590190220013,None,,,,,,,,,,,,,,,,None,None,None,,None,None,293.975955433998,None,1,1,0.6997553189867176,293.975955433998,None,294.67392133910323,None,None,None,None,,08,001,2023_Jan_18_1708,searchDisc5,2021.2.3,59.93985419321621,
images/exp2b_trial_311_colour2_distractors19_l.png,l,1,2,19,0,,,,,0,29,29,29,,,,,,,,,,,,,,,,,,,,,,,,,,,,,,,,,,,,,,,,,,,294.69035084501957,None,2,0.4211212980153505,294.69035084501957,None,,,,,,,,,,,,,,,,None,None,None,,None,None,295.15938159200596,None,1,1,0.8356509739824105,295.15938159200596,None,295.99071766011764,None,None,None,None,,08,001,2023_Jan_18_1708,searchDisc5,2021.2.3,59.93985419321621,
images/exp2c_trial_145_colour1_distractors9_l.png,l,1,1,9,0,,,,,0,30,30,30,,,,,,,,,,,,,,,,,,,,,,,,,,,,,,,,,,,,,,,,,,,296.006743105012,None,2,0.5384744609764311,296.006743105012,None,,,,,,,,,,,,,,,,None,None,None,,None,None,296.59270459701656,None,1,1,0.8026791609881911,296.59270459701656,None,297.3906125740963,None,None,None,None,,08,001,2023_Jan_18_1708,searchDisc5,2021.2.3,59.93985419321621,
images/exp2b_trial_275_colour1_distractors31_l.png,l,1,1,31,0,,,,,0,31,31,31,,,,,,,,,,,,,,,,,,,,,,,,,,,,,,,,,,,,,,,,,,,297.40671286100405,None,2,0.8067023410112597,297.40671286100405,None,,,,,,,,,,,,,,,,None,None,None,,None,None,298.2592284780112,None,1,1,0.7835176689841319,298.2592284780112,None,299.04077402409746,None,None,None,None,,08,001,2023_Jan_18_1708,searchDisc5,2021.2.3,59.93985419321621,
images/exp2a_trial_236_colour3_distractors9_r.png,r,3,3,9,0,,,,,0,32,32,32,,,,,,,,,,,,,,,,,,,,,,,,,,,,,,,,,,,,,,,,,,,299.0568825700029,None,2,0.5573946009972133,299.0568825700029,None,,,,,,,,,,,,,,,,None,None,None,,None,None,299.6586852680193,None,3,1,0.7664912189939059,299.6586852680193,None,300.4240549331065,None,None,None,None,,08,001,2023_Jan_18_1708,searchDisc5,2021.2.3,59.93985419321621,
images/exp1a_trial_103_colour2_distractors9_r.png,r,3,2,9,0,,,,,0,33,33,33,,,,,,,,,,,,,,,,,,,,,,,,,,,,,,,,,,,,,,,,,,,300.44038388101035,None,2,0.33781650898163207,300.44038388101035,None,,,,,,,,,,,,,,,,None,None,None,,None,None,300.8235702450038,None,3,1,0.7024315339804161,300.8235702450038,None,301.5241742731072,None,None,None,None,,08,001,2023_Jan_18_1708,searchDisc5,2021.2.3,59.93985419321621,
images/exp2a_trial_269_colour3_distractors19_r.png,r,3,3,19,0,,,,,0,34,34,34,,,,,,,,,,,,,,,,,,,,,,,,,,,,,,,,,,,,,,,,,,,301.5405837580038,None,2,0.30643579000025056,301.5405837580038,None,,,,,,,,,,,,,,,,None,None,None,,None,None,301.8905649690132,None,3,1,0.6678560709988233,301.8905649690132,None,302.5576565731084,None,None,None,None,,08,001,2023_Jan_18_1708,searchDisc5,2021.2.3,59.93985419321621,
images/exp2b_trial_60_colour3_distractors19_l.png,l,1,3,19,0,,,,,0,35,35,35,,,,,,,,,,,,,,,,,,,,,,,,,,,,,,,,,,,,,,,,,,,302.57424407001236,None,2,0.3210388569859788,302.57424407001236,None,,,,,,,,,,,,,,,,None,None,None,,None,None,302.9407226460171,None,1,1,0.7027845699922182,302.9407226460171,None,303.6407242331246,None,None,None,None,,08,001,2023_Jan_18_1708,searchDisc5,2021.2.3,59.93985419321621,
images/exp2c_trial_144_colour1_distractors4_l.png,l,1,1,4,0,,,,,0,36,36,36,,,,,,,,,,,,,,,,,,,,,,,,,,,,,,,,,,,,,,,,,,,303.6570982900157,None,2,0.4543563119950704,303.6570982900157,None,,,,,,,,,,,,,,,,None,None,None,,None,None,304.1596125990036,None,1,1,0.5561877959989943,304.1596125990036,None,304.70760375410316,None,None,None,None,,08,001,2023_Jan_18_1708,searchDisc5,2021.2.3,59.93985419321621,
images/exp2c_trial_147_colour1_distractors31_l.png,l,1,1,31,0,,,,,0,37,37,37,,,,,,,,,,,,,,,,,,,,,,,,,,,,,,,,,,,,,,,,,,,304.7238490190066,None,2,0.7361991289944854,304.7238490190066,None,,,,,,,,,,,,,,,,None,None,None,,None,None,305.5093833950232,None,1,1,0.684779614006402,305.5093833950232,None,306.1911329241178,None,None,None,None,,08,001,2023_Jan_18_1708,searchDisc5,2021.2.3,59.93985419321621,
images/exp2b_trial_212_colour2_distractors1_l.png,l,1,2,1,0,,,,,0,38,38,38,,,,,,,,,,,,,,,,,,,,,,,,,,,,,,,,,,,,,,,,,,,306.20734872401226,None,2,0.4208345249935519,306.20734872401226,None,,,,,,,,,,,,,,,,None,None,None,,None,None,306.6766490559967,None,1,1,0.6392264009919018,306.6766490559967,None,307.3078642171225,None,None,None,None,,08,001,2023_Jan_18_1708,searchDisc5,2021.2.3,59.93985419321621,
images/exp2b_trial_48_colour1_distractors4_l.png,l,1,1,4,0,,,,,0,39,39,39,,,,,,,,,,,,,,,,,,,,,,,,,,,,,,,,,,,,,,,,,,,307.3241783370031,None,2,0.45331082300981507,307.3241783370031,None,,,,,,,,,,,,,,,,None,None,None,,None,None,307.8264818150201,None,1,1,0.6711828139959835,307.8264818150201,None,308.49106899410833,None,None,None,None,,08,001,2023_Jan_18_1708,searchDisc5,2021.2.3,59.93985419321621,
images/exp2c_trial_88_colour2_distractors31_l.png,l,1,2,31,0,,,,,0,40,40,40,,,,,,,,,,,,,,,,,,,,,,,,,,,,,,,,,,,,,,,,,,,308.5073870070046,None,2,0.37076826198608615,308.5073870070046,None,,,,,,,,,,,,,,,,None,None,None,,None,None,308.92447204800555,None,1,1,0.6350920779805165,308.92447204800555,None,309.55774527512256,None,None,None,None,,08,001,2023_Jan_18_1708,searchDisc5,2021.2.3,59.93985419321621,
images/exp1a_trial_188_colour3_distractors19_l.png,l,1,3,19,0,,,,,0,41,41,41,,,,,,,,,,,,,,,,,,,,,,,,,,,,,,,,,,,,,,,,,,,309.57379016201594,None,2,0.37063915899489075,309.57379016201594,None,,,,,,,,,,,,,,,,None,None,None,,None,None,309.9903521219967,None,1,1,1.0173267729987856,309.9903521219967,None,311.0068354071176,None,None,None,None,,08,001,2023_Jan_18_1708,searchDisc5,2021.2.3,59.93985419321621,
images/exp2a_trial_293_colour2_distractors1_r.png,r,3,2,1,0,,,,,0,42,42,42,,,,,,,,,,,,,,,,,,,,,,,,,,,,,,,,,,,,,,,,,,,311.02406996901846,None,2,0.48908099098480307,311.02406996901846,None,,,,,,,,,,,,,,,,None,None,None,,None,None,311.5580638470128,None,3,1,0.8537866070109885,311.5580638470128,None,312.4077913891,None,None,None,None,,08,001,2023_Jan_18_1708,searchDisc5,2021.2.3,59.93985419321621,
images/exp2c_trial_2_colour1_distractors9_r.png,r,3,1,9,0,,,,,0,43,43,43,,,,,,,,,,,,,,,,,,,,,,,,,,,,,,,,,,,,,,,,,,,312.424175948021,None,2,0.3877411919820588,312.424175948021,None,,,,,,,,,,,,,,,,None,None,None,,None,None,312.859561373014,None,3,1,0.7199952049995773,312.859561373014,None,313.5744307571207,None,None,None,None,,08,001,2023_Jan_18_1708,searchDisc5,2021.2.3,59.93985419321621,
images/exp2a_trial_160_colour1_distractors1_r.png,r,3,1,1,0,,,,,0,44,44,44,,,,,,,,,,,,,,,,,,,,,,,,,,,,,,,,,,,,,,,,,,,313.5908768270165,None,2,0.3376413400110323,313.5908768270165,None,,,,,,,,,,,,,,,,None,None,None,,None,None,313.97389516199473,None,3,1,0.554494768002769,313.97389516199473,None,314.52454786209853,None,None,None,None,,08,001,2023_Jan_18_1708,searchDisc5,2021.2.3,59.93985419321621,
images/exp1a_trial_25_colour3_distractors1_l.png,l,1,3,1,0,,,,,0,45,45,45,,,,,,,,,,,,,,,,,,,,,,,,,,,,,,,,,,,,,,,,,,,314.5406981310225,None,2,0.37131064501591027,314.5406981310225,None,,,,,,,,,,,,,,,,None,None,None,,None,None,314.959906892007,None,1,1,0.670813039992936,314.959906892007,None,315.6246896551223,None,None,None,None,,08,001,2023_Jan_18_1708,searchDisc5,2021.2.3,59.93985419321621,
images/exp2b_trial_214_colour2_distractors9_l.png,l,1,2,9,0,,,,,0,46,46,46,,,,,,,,,,,,,,,,,,,,,,,,,,,,,,,,,,,,,,,,,,,315.6412490210205,None,2,0.387371410994092,315.6412490210205,None,,,,,,,,,,,,,,,,None,None,None,,None,None,316.07643192101386,None,1,1,0.55303218998597,316.07643192101386,None,316.62457827010655,None,None,None,None,,08,001,2023_Jan_18_1708,searchDisc5,2021.2.3,59.93985419321621,
images/exp2a_trial_132_colour1_distractors31_r.png,r,3,1,31,0,,,,,0,47,47,47,,,,,,,,,,,,,,,,,,,,,,,,,,,,,,,,,,,,,,,,,,,316.6409378700191,None,2,0.4045930329884868,316.6409378700191,None,,,,,,,,,,,,,,,,None,None,None,,None,None,317.09320026199566,None,3,1,0.5510272639803588,317.09320026199566,None,317.64132072011705,None,None,None,None,,08,001,2023_Jan_18_1708,searchDisc5,2021.2.3,59.93985419321621,
images/exp1a_trial_9_colour2_distractors31_r.png,r,3,2,31,0,,,,,0,48,48,48,,,,,,,,,,,,,,,,,,,,,,,,,,,,,,,,,,,,,,,,,,,317.65764226100873,None,2,0.47505374599131756,317.65764226100873,None,,,,,,,,,,,,,,,,None,None,None,,None,None,318.18049292001524,None,1,0,0.5774331360007636,318.18049292001524,None,318.7578714901232,None,None,None,None,,08,001,2023_Jan_18_1708,searchDisc5,2021.2.3,59.93985419321621,
images/exp1a_trial_6_colour2_distractors4_r.png,r,3,2,4,0,,,,,0,49,49,49,,,,,,,,,,,,,,,,,,,,,,,,,,,,,,,,,,,,,,,,,,,318.7743132839969,None,2,0.9899764290021267,318.7743132839969,None,,,,,,,,,,,,,,,,None,None,None,,None,None,319.8100238869956,None,3,1,0.7014534549962264,319.8100238869956,None,320.5079190781165,None,None,None,None,,08,001,2023_Jan_18_1708,searchDisc5,2021.2.3,59.93985419321621,
images/exp2c_trial_309_colour2_distractors4_l.png,l,1,2,4,0,,,,,0,50,50,50,,,,,,,,,,,,,,,,,,,,,,,,,,,,,,,,,,,,,,,,,,,320.52435844999854,None,2,0.7879719109914731,320.52435844999854,None,,,,,,,,,,,,,,,,None,None,None,,None,None,321.35791853201226,None,1,1,0.5211009849736001,321.35791853201226,None,321.87480027310664,None,None,None,None,,08,001,2023_Jan_18_1708,searchDisc5,2021.2.3,59.93985419321621,
images/exp1a_trial_186_colour3_distractors4_l.png,l,1,3,4,0,,,,,0,51,51,51,,,,,,,,,,,,,,,,,,,,,,,,,,,,,,,,,,,,,,,,,,,321.89064792200224,None,2,0.3704003519960679,321.89064792200224,None,,,,,,,,,,,,,,,,None,None,None,,None,None,322.30810399801703,None,1,1,0.5531257200054824,322.30810399801703,None,322.85749995010553,None,None,None,None,,08,001,2023_Jan_18_1708,searchDisc5,2021.2.3,59.93985419321621,
images/exp1a_trial_18_colour1_distractors19_l.png,l,1,1,19,0,,,,,0,52,52,52,,,,,,,,,,,,,,,,,,,,,,,,,,,,,,,,,,,,,,,,,,,322.87474952600314,None,2,0.32550787599757314,322.87474952600314,None,,,,,,,,,,,,,,,,None,None,None,,None,None,323.24541391502135,None,1,1,0.545884095976362,323.24541391502135,None,323.7915198461036,None,None,None,None,,08,001,2023_Jan_18_1708,searchDisc5,2021.2.3,59.93985419321621,
images/exp2b_trial_69_colour2_distractors1_r.png,r,3,2,1,0,,,,,0,53,53,53,,,,,,,,,,,,,,,,,,,,,,,,,,,,,,,,,,,,,,,,,,,323.8075364100223,None,2,0.32310889998916537,323.8075364100223,None,,,,,,,,,,,,,,,,None,None,None,,None,None,324.1769694540126,None,3,1,0.6194786090054549,324.1769694540126,None,324.79149068910044,None,None,None,None,,08,001,2023_Jan_18_1708,searchDisc5,2021.2.3,59.93985419321621,
images/exp2a_trial_291_colour1_distractors19_r.png,r,3,1,19,0,,,,,0,54,54,54,,,,,,,,,,,,,,,,,,,,,,,,,,,,,,,,,,,,,,,,,,,324.8074606870068,None,2,0.354472918988904,324.8074606870068,None,,,,,,,,,,,,,,,,None,None,None,,None,None,325.2078172019974,None,3,1,0.7185121789807454,325.2078172019974,None,325.924801892112,None,None,None,None,,08,001,2023_Jan_18_1708,searchDisc5,2021.2.3,59.93985419321621,
images/exp2b_trial_248_colour2_distractors31_l.png,l,1,2,31,0,,,,,0,55,55,55,,,,,,,,,,,,,,,,,,,,,,,,,,,,,,,,,,,,,,,,,,,325.94298560300376,None,2,0.23765775098581798,325.94298560300376,None,,,,,,,,,,,,,,,,None,None,None,,None,None,326.2247644830204,None,1,1,0.7358938039978966,326.2247644830204,None,326.95855647011774,None,None,None,None,,08,001,2023_Jan_18_1708,searchDisc5,2021.2.3,59.93985419321621,
images/exp1a_trial_239_colour1_distractors1_l.png,l,1,1,1,0,,,,,0,56,56,56,,,,,,,,,,,,,,,,,,,,,,,,,,,,,,,,,,,,,,,,,,,326.97462768800324,None,2,0.30613434899714775,326.97462768800324,None,,,,,,,,,,,,,,,,None,None,None,,None,None,327.3244444090233,None,1,1,0.6857673170161434,327.3244444090233,None,328.0083688510989,None,None,None,None,,08,001,2023_Jan_18_1708,searchDisc5,2021.2.3,59.93985419321621,
images/exp1a_trial_304_colour1_distractors4_l.png,l,1,1,4,0,,,,,0,57,57,57,,,,,,,,,,,,,,,,,,,,,,,,,,,,,,,,,,,,,,,,,,,328.0246915460157,None,2,0.3709702320047654,328.0246915460157,None,,,,,,,,,,,,,,,,None,None,None,,None,None,328.442980221007,None,1,1,0.6869850759976543,328.442980221007,None,329.1248319830978,None,None,None,None,,08,001,2023_Jan_18_1708,searchDisc5,2021.2.3,59.93985419321621,
images/exp2a_trial_156_colour3_distractors19_l.png,l,1,3,19,0,,,,,0,58,58,58,,,,,,,,,,,,,,,,,,,,,,,,,,,,,,,,,,,,,,,,,,,329.1433616669965,None,2,0.37128123198635876,329.1433616669965,None,,,,,,,,,,,,,,,,None,None,None,,None,None,329.5597293440078,None,1,1,0.5368380309955683,329.5597293440078,None,330.0915573021106,None,None,None,None,,08,001,2023_Jan_18_1708,searchDisc5,2021.2.3,59.93985419321621,
images/exp2b_trial_92_colour3_distractors19_l.png,l,1,3,19,0,,,,,0,59,59,59,,,,,,,,,,,,,,,,,,,,,,,,,,,,,,,,,,,,,,,,,,,330.1095099869999,None,2,0.3212343319901265,330.1095099869999,None,,,,,,,,,,,,,,,,None,None,None,,None,None,330.4772536420205,None,1,1,0.6515852419834118,330.4772536420205,None,331.12498931310836,None,None,None,None,,08,001,2023_Jan_18_1708,searchDisc5,2021.2.3,59.93985419321621,
images/exp1a_trial_49_colour1_distractors9_l.png,l,1,1,9,0,,,,,0,60,60,60,,,,,,,,,,,,,,,,,,,,,,,,,,,,,,,,,,,,,,,,,,,331.14148527701036,None,2,0.30571781101753004,331.14148527701036,None,,,,,,,,,,,,,,,,None,None,None,,None,None,331.49100482900394,None,1,1,0.5183463120192755,331.49100482900394,None,332.0085551351134,None,None,None,None,,08,001,2023_Jan_18_1708,searchDisc5,2021.2.3,59.93985419321621,
images/exp1a_trial_12_colour3_distractors9_r.png,r,3,3,9,0,,,,,0,61,61,61,,,,,,,,,,,,,,,,,,,,,,,,,,,,,,,,,,,,,,,,,,,332.0249052210129,None,2,0.3210416880028788,332.0249052210129,None,,,,,,,,,,,,,,,,None,None,None,,None,None,332.3915545199998,None,3,1,0.6537484030122869,332.3915545199998,None,333.0416373871034,None,None,None,None,,08,001,2023_Jan_18_1708,searchDisc5,2021.2.3,59.93985419321621,
images/exp2c_trial_57_colour3_distractors1_l.png,l,1,3,1,0,,,,,0,62,62,62,,,,,,,,,,,,,,,,,,,,,,,,,,,,,,,,,,,,,,,,,,,333.06034639300196,None,2,0.5532008229929488,333.06034639300196,None,,,,,,,,,,,,,,,,None,None,None,,None,None,333.660652777995,None,1,1,0.6711026429838967,333.660652777995,None,334.324553322111,None,None,None,None,,08,001,2023_Jan_18_1708,searchDisc5,2021.2.3,59.93985419321621,
images/exp2b_trial_183_colour2_distractors19_l.png,l,1,2,19,0,,,,,0,63,63,63,,,,,,,,,,,,,,,,,,,,,,,,,,,,,,,,,,,,,,,,,,,334.3416636120237,None,2,0.7379064930137247,334.3416636120237,None,,,,,,,,,,,,,,,,None,None,None,,None,None,335.12480294902343,None,1,1,0.6016440520179458,335.12480294902343,None,335.72444699009645,None,None,None,None,,08,001,2023_Jan_18_1708,searchDisc5,2021.2.3,59.93985419321621,
images/exp2b_trial_22_colour2_distractors9_l.png,l,1,2,9,0,,,,,0,64,64,64,,,,,,,,,,,,,,,,,,,,,,,,,,,,,,,,,,,,,,,,,,,335.7418377720169,None,2,0.42161932500312105,335.7418377720169,None,,,,,,,,,,,,,,,,None,None,None,,None,None,336.2103556950169,None,1,1,0.6867454219900537,336.2103556950169,None,336.89200435209784,None,None,None,None,,08,001,2023_Jan_18_1708,searchDisc5,2021.2.3,59.93985419321621,
images/exp2a_trial_92_colour3_distractors19_l.png,l,1,3,19,0,,,,,0,65,65,65,,,,,,,,,,,,,,,,,,,,,,,,,,,,,,,,,,,,,,,,,,,336.9102452820225,None,2,0.33776852599112317,336.9102452820225,None,,,,,,,,,,,,,,,,None,None,None,,None,None,337.29320997101604,None,3,0,0.6025303509959485,337.29320997101604,None,337.89193306011146,None,None,None,None,,08,001,2023_Jan_18_1708,searchDisc5,2021.2.3,59.93985419321621,
images/exp2b_trial_67_colour1_distractors19_r.png,r,3,1,19,0,,,,,0,66,66,66,,,,,,,,,,,,,,,,,,,,,,,,,,,,,,,,,,,,,,,,,,,337.9081565240049,None,2,1.0397684439958539,337.9081565240049,None,,,,,,,,,,,,,,,,None,None,None,,None,None,338.99401350700646,None,3,1,0.9829938570037484,338.99401350700646,None,339.97514877209903,None,None,None,None,,08,001,2023_Jan_18_1708,searchDisc5,2021.2.3,59.93985419321621,
images/exp2c_trial_56_colour2_distractors31_l.png,l,1,2,31,0,,,,,0,67,67,67,,,,,,,,,,,,,,,,,,,,,,,,,,,,,,,,,,,,,,,,,,,339.99152596801287,None,2,0.4875448709935881,339.99152596801287,None,,,,,,,,,,,,,,,,None,None,None,,None,None,340.52524567200453,None,1,1,0.6177041649934836,340.52524567200453,None,341.1420098761213,None,None,None,None,,08,001,2023_Jan_18_1708,searchDisc5,2021.2.3,59.93985419321621,
images/exp2a_trial_206_colour3_distractors31_r.png,r,3,3,31,0,,,,,0,68,68,68,,,,,,,,,,,,,,,,,,,,,,,,,,,,,,,,,,,,,,,,,,,341.158080727997,None,2,0.4564507080067415,341.158080727997,None,,,,,,,,,,,,,,,,None,None,None,,None,None,341.6600304900203,None,3,1,0.6493368159863167,341.6600304900203,None,342.3085287771013,None,None,None,None,,08,001,2023_Jan_18_1708,searchDisc5,2021.2.3,59.93985419321621,
images/exp2a_trial_313_colour3_distractors1_l.png,l,1,3,1,0,,,,,0,69,69,69,,,,,,,,,,,,,,,,,,,,,,,,,,,,,,,,,,,,,,,,,,,342.3269519570167,None,2,0.43978401299682446,342.3269519570167,None,,,,,,,,,,,,,,,,None,None,None,,None,None,342.8101919220062,None,1,1,0.9044842020084616,342.8101919220062,None,343.7086426691152,None,None,None,None,,08,001,2023_Jan_18_1708,searchDisc5,2021.2.3,59.93985419321621,
images/exp1a_trial_79_colour1_distractors1_l.png,l,1,1,1,0,,,,,0,70,70,70,,,,,,,,,,,,,,,,,,,,,,,,,,,,,,,,,,,,,,,,,,,343.72495918002096,None,2,1.3874590549967252,343.72495918002096,None,,,,,,,,,,,,,,,,None,None,None,,None,None,345.15858073800337,None,1,1,0.7551826489798259,345.15858073800337,None,345.90865840312324,None,None,None,None,,08,001,2023_Jan_18_1708,searchDisc5,2021.2.3,59.93985419321621,
images/exp1a_trial_102_colour2_distractors4_r.png,r,3,2,4,0,,,,,0,71,71,71,,,,,,,,,,,,,,,,,,,,,,,,,,,,,,,,,,,,,,,,,,,345.9252467220067,None,2,0.3697951549838763,345.9252467220067,None,,,,,,,,,,,,,,,,None,None,None,,None,None,346.34151469302014,None,3,1,0.6712811700126622,346.34151469302014,None,347.00882728610884,None,None,None,None,,08,001,2023_Jan_18_1708,searchDisc5,2021.2.3,59.93985419321621,
images/exp2c_trial_243_colour1_distractors31_l.png,l,1,1,31,0,,,,,0,72,72,72,,,,,,,,,,,,,,,,,,,,,,,,,,,,,,,,,,,,,,,,,,,347.0248772750201,None,2,0.30357612899388187,347.0248772750201,None,,,,,,,,,,,,,,,,None,None,None,,None,None,347.37494967802195,None,1,1,0.5675461280043237,347.37494967802195,None,347.941586407111,None,None,None,None,,08,001,2023_Jan_18_1708,searchDisc5,2021.2.3,59.93985419321621,
images/exp2b_trial_235_colour3_distractors4_r.png,r,3,3,4,0,,,,,0,73,73,73,,,,,,,,,,,,,,,,,,,,,,,,,,,,,,,,,,,,,,,,,,,347.96055577500374,None,2,0.4710676539980341,347.96055577500374,None,,,,,,,,,,,,,,,,None,None,None,,None,None,348.47508267499506,None,3,1,0.7869822579959873,348.47508267499506,None,349.258797009103,None,None,None,None,,08,001,2023_Jan_18_1708,searchDisc5,2021.2.3,59.93985419321621,
images/exp2b_trial_155_colour3_distractors9_l.png,l,1,3,9,0,,,,,0,74,74,74,,,,,,,,,,,,,,,,,,,,,,,,,,,,,,,,,,,,,,,,,,,349.27471821999643,None,2,0.25736374099506065,349.27471821999643,None,,,,,,,,,,,,,,,,None,None,None,,None,None,349.575431388017,None,1,1,0.5663966900028754,349.575431388017,None,350.14213401810264,None,None,None,None,,08,001,2023_Jan_18_1708,searchDisc5,2021.2.3,59.93985419321621,
images/exp2b_trial_109_colour3_distractors19_r.png,r,3,3,19,0,,,,,0,75,75,75,,,,,,,,,,,,,,,,,,,,,,,,,,,,,,,,,,,,,,,,,,,350.15859741400345,None,2,0.40436464600497857,350.15859741400345,None,,,,,,,,,,,,,,,,None,None,None,,None,None,350.61083009801223,None,3,1,0.6689049169945065,350.61083009801223,None,351.2755146291223,None,None,None,None,,08,001,2023_Jan_18_1708,searchDisc5,2021.2.3,59.93985419321621,
images/exp2a_trial_263_colour2_distractors9_r.png,r,3,2,9,0,,,,,0,76,76,76,,,,,,,,,,,,,,,,,,,,,,,,,,,,,,,,,,,,,,,,,,,351.2914755270176,None,2,0.3878940760041587,351.2914755270176,None,,,,,,,,,,,,,,,,None,None,None,,None,None,351.72520876300405,None,3,1,0.8328484749945346,351.72520876300405,None,352.55900578710714,None,None,None,None,,08,001,2023_Jan_18_1708,searchDisc5,2021.2.3,59.93985419321621,
images/exp2b_trial_26_colour3_distractors4_l.png,l,1,3,4,0,,,,,0,77,77,77,,,,,,,,,,,,,,,,,,,,,,,,,,,,,,,,,,,,,,,,,,,352.575155049999,None,2,0.2563812099979259,352.575155049999,None,,,,,,,,,,,,,,,,None,None,None,,None,None,352.8775041910121,None,1,1,0.6522483139997348,352.8775041910121,None,353.5254935491015,None,None,None,None,,08,001,2023_Jan_18_1708,searchDisc5,2021.2.3,59.93985419321621,
images/exp2b_trial_61_colour3_distractors31_l.png,l,1,3,31,0,,,,,0,78,78,78,,,,,,,,,,,,,,,,,,,,,,,,,,,,,,,,,,,,,,,,,,,353.54155123600503,None,2,0.2710388069972396,353.54155123600503,None,,,,,,,,,,,,,,,,None,None,None,,None,None,353.85866428900044,None,1,1,0.6512730499962345,353.85866428900044,None,354.5092411210993,None,None,None,None,,08,001,2023_Jan_18_1708,searchDisc5,2021.2.3,59.93985419321621,
images/exp1a_trial_60_colour3_distractors19_l.png,l,1,3,19,0,,,,,0,79,79,79,,,,,,,,,,,,,,,,,,,,,,,,,,,,,,,,,,,,,,,,,,,354.5251471750089,None,2,0.38732456500292756,354.5251471750089,None,,,,,,,,,,,,,,,,None,None,None,,None,None,354.9617488680233,None,1,1,0.7334505340259057,354.9617488680233,None,355.6923795961251,None,None,None,None,,08,001,2023_Jan_18_1708,searchDisc5,2021.2.3,59.93985419321621,
images/exp2a_trial_249_colour3_distractors1_l.png,l,1,3,1,0,,,,,0,80,80,80,,,,,,,,,,,,,,,,,,,,,,,,,,,,,,,,,,,,,,,,,,,355.7088779650221,None,2,0.45608541200635955,355.7088779650221,None,,,,,,,,,,,,,,,,None,None,None,,None,None,356.2090084820229,None,1,1,0.5220501619915012,356.2090084820229,None,356.7258878581109,None,None,None,None,,08,001,2023_Jan_18_1708,searchDisc5,2021.2.3,59.93985419321621,
images/exp2a_trial_118_colour2_distractors9_l.png,l,1,2,9,0,,,,,0,81,81,81,,,,,,,,,,,,,,,,,,,,,,,,,,,,,,,,,,,,,,,,,,,356.742149740021,None,2,0.687534944008803,356.742149740021,None,,,,,,,,,,,,,,,,None,None,None,,None,None,357.47838956900523,None,1,1,1.0479764970077667,357.47838956900523,None,358.52577601510563,None,None,None,None,,08,001,2023_Jan_18_1708,searchDisc5,2021.2.3,59.93985419321621,
images/exp2b_trial_146_colour1_distractors19_l.png,l,1,1,19,0,,,,,0,82,82,82,,,,,,,,,,,,,,,,,,,,,,,,,,,,,,,,,,,,,,,,,,,358.54229696301627,None,2,0.48880730898235925,358.54229696301627,None,,,,,,,,,,,,,,,,None,None,None,,None,None,359.0762978400162,None,1,1,0.7357212489878293,359.0762978400162,None,359.81019248610244,None,None,None,None,,08,001,2023_Jan_18_1708,searchDisc5,2021.2.3,59.93985419321621,
images/exp2a_trial_268_colour3_distractors9_r.png,r,3,3,9,0,,,,,0,83,83,83,,,,,,,,,,,,,,,,,,,,,,,,,,,,,,,,,,,,,,,,,,,359.82642810299876,None,2,0.6037940809910651,359.82642810299876,None,,,,,,,,,,,,,,,,None,None,None,,None,None,360.4756636430102,None,1,0,1.0856685480102897,360.4756636430102,None,361.55889040011095,None,None,None,None,,08,001,2023_Jan_18_1708,searchDisc5,2021.2.3,59.93985419321621,
images/exp2c_trial_310_colour2_distractors9_l.png,l,1,2,9,0,,,,,0,84,84,84,,,,,,,,,,,,,,,,,,,,,,,,,,,,,,,,,,,,,,,,,,,361.576084255008,None,2,0.7931698079919443,361.576084255008,None,,,,,,,,,,,,,,,,None,None,None,,None,None,362.4102087060164,None,1,1,1.4983122860139702,362.4102087060164,None,363.9094153531245,None,None,None,None,,08,001,2023_Jan_18_1708,searchDisc5,2021.2.3,59.93985419321621,
images/exp2a_trial_168_colour2_distractors19_r.png,r,3,2,19,0,,,,,0,85,85,85,,,,,,,,,,,,,,,,,,,,,,,,,,,,,,,,,,,,,,,,,,,363.9264911850041,None,2,0.5550583089934662,363.9264911850041,None,,,,,,,,,,,,,,,,None,None,None,,None,None,364.52570316701895,None,3,1,0.6455446599866264,364.52570316701895,None,365.17602999910594,None,None,None,None,,08,001,2023_Jan_18_1708,searchDisc5,2021.2.3,59.93985419321621,
images/exp2a_trial_96_colour1_distractors1_r.png,r,3,1,1,0,,,,,0,86,86,86,,,,,,,,,,,,,,,,,,,,,,,,,,,,,,,,,,,,,,,,,,,365.19312662101584,None,2,0.3878390430181753,365.19312662101584,None,,,,,,,,,,,,,,,,None,None,None,,None,None,365.62586425599875,None,3,1,0.754562594986055,365.62586425599875,None,366.3760302431241,None,None,None,None,,08,001,2023_Jan_18_1708,searchDisc5,2021.2.3,59.93985419321621,
images/exp2c_trial_114_colour1_distractors19_l.png,l,1,1,19,0,,,,,0,87,87,87,,,,,,,,,,,,,,,,,,,,,,,,,,,,,,,,,,,,,,,,,,,366.39281664500595,None,2,0.3379598270112183,366.39281664500595,None,,,,,,,,,,,,,,,,None,None,None,,None,None,366.7759637760173,None,1,1,0.6717298429866787,366.7759637760173,None,367.44368363012325,None,None,None,None,,08,001,2023_Jan_18_1708,searchDisc5,2021.2.3,59.93985419321621,
images/exp2c_trial_248_colour2_distractors31_l.png,l,1,2,31,0,,,,,0,88,88,88,,,,,,,,,,,,,,,,,,,,,,,,,,,,,,,,,,,,,,,,,,,367.4592228520196,None,2,0.7544255809916649,367.4592228520196,None,,,,,,,,,,,,,,,,None,None,None,,None,None,368.26137720802217,None,1,1,0.7849940300220624,368.26137720802217,None,369.0429048181162,None,None,None,None,,08,001,2023_Jan_18_1708,searchDisc5,2021.2.3,59.93985419321621,
images/exp1a_trial_198_colour2_distractors4_r.png,r,3,2,4,0,,,,,0,89,89,89,,,,,,,,,,,,,,,,,,,,,,,,,,,,,,,,,,,,,,,,,,,369.0589676340169,None,2,0.8035084930015728,369.0589676340169,None,,,,,,,,,,,,,,,,None,None,None,,None,None,369.91107950001606,None,3,1,0.6865787539863959,369.91107950001606,None,370.59276659211025,None,None,None,None,,08,001,2023_Jan_18_1708,searchDisc5,2021.2.3,59.93985419321621,
images/exp2b_trial_315_colour3_distractors9_l.png,l,1,3,9,0,,,,,0,90,90,90,,,,,,,,,,,,,,,,,,,,,,,,,,,,,,,,,,,,,,,,,,,370.60968460101867,None,2,0.3073524299834389,370.60968460101867,None,,,,,,,,,,,,,,,,None,None,None,,None,None,370.9605917300214,None,1,1,2.15103649199591,370.9605917300214,None,373.1096514711156,None,None,None,None,,08,001,2023_Jan_18_1708,searchDisc5,2021.2.3,59.93985419321621,
images/exp2b_trial_174_colour3_distractors31_r.png,r,3,3,31,0,,,,,0,91,91,91,,,,,,,,,,,,,,,,,,,,,,,,,,,,,,,,,,,,,,,,,,,373.1260436110024,None,2,0.47185305098537356,373.1260436110024,None,,,,,,,,,,,,,,,,None,None,None,,None,None,373.64516045100754,None,3,1,0.6008615590108093,373.64516045100754,None,374.2428659661149,None,None,None,None,,08,001,2023_Jan_18_1708,searchDisc5,2021.2.3,59.93985419321621,
images/exp2a_trial_191_colour0_distractors0_l.png,l,1,0,0,0,,,,,0,92,92,92,,,,,,,,,,,,,,,,,,,,,,,,,,,,,,,,,,,,,,,,,,,374.2599635350052,None,2,1.6214104630053043,374.2599635350052,None,,,,,,,,,,,,,,,,None,None,None,,None,None,375.9263319080055,None,1,1,0.5713515999959782,375.9263319080055,None,376.4930797101173,None,None,None,None,,08,001,2023_Jan_18_1708,searchDisc5,2021.2.3,59.93985419321621,
images/exp1a_trial_8_colour2_distractors19_r.png,r,3,2,19,0,,,,,0,93,93,93,,,,,,,,,,,,,,,,,,,,,,,,,,,,,,,,,,,,,,,,,,,376.5094379460206,None,2,0.3544228130194824,376.5094379460206,None,,,,,,,,,,,,,,,,None,None,None,,None,None,376.91283108401694,None,3,1,0.7832147480221465,376.91283108401694,None,377.6931470611074,None,None,None,None,,08,001,2023_Jan_18_1708,searchDisc5,2021.2.3,59.93985419321621,
images/exp2a_trial_82_colour1_distractors19_l.png,l,1,1,19,0,,,,,0,94,94,94,,,,,,,,,,,,,,,,,,,,,,,,,,,,,,,,,,,,,,,,,,,377.7100965830032,None,2,0.654338389984332,377.7100965830032,None,,,,,,,,,,,,,,,,None,None,None,,None,None,378.4108492830128,None,1,1,0.7688541160023306,378.4108492830128,None,379.1764604621043,None,None,None,None,,08,001,2023_Jan_18_1708,searchDisc5,2021.2.3,59.93985419321621,
images/exp2a_trial_211_colour1_distractors31_l.png,l,1,1,31,0,,,,,0,95,95,95,,,,,,,,,,,,,,,,,,,,,,,,,,,,,,,,,,,,,,,,,,,379.193352176022,None,2,0.5038285100017674,379.193352176022,None,,,,,,,,,,,,,,,,None,None,None,,None,None,379.7452509770228,None,1,1,0.9526583389961161,379.7452509770228,None,380.692944679124,None,None,None,None,,08,001,2023_Jan_18_1708,searchDisc5,2021.2.3,59.93985419321621,
images/exp2a_trial_50_colour1_distractors19_l.png,l,1,1,19,0,,,,,0,96,96,96,,,,,,,,,,,,,,,,,,,,,,,,,,,,,,,,,,,,,,,,,,,380.71257943400997,None,2,0.3729543770023156,380.71257943400997,None,,,,,,,,,,,,,,,,None,None,None,,None,None,381.1283866180165,None,1,1,0.9010626309900545,381.1283866180165,None,382.02748503009786,None,None,None,None,,08,001,2023_Jan_18_1708,searchDisc5,2021.2.3,59.93985419321621,
images/exp2a_trial_17_colour1_distractors9_l.png,l,1,1,9,0,,,,,0,97,97,97,,,,,,,,,,,,,,,,,,,,,,,,,,,,,,,,,,,,,,,,,,,382.0435824180022,None,2,0.3702064240060281,382.0435824180022,None,,,,,,,,,,,,,,,,None,None,None,,None,None,382.46293581300415,None,1,1,0.520941610011505,382.46293581300415,None,382.97754895411197,None,None,None,None,,08,001,2023_Jan_18_1708,searchDisc5,2021.2.3,59.93985419321621,
images/exp2b_trial_256_colour1_distractors1_r.png,r,3,1,1,0,,,,,0,98,98,98,,,,,,,,,,,,,,,,,,,,,,,,,,,,,,,,,,,,,,,,,,,382.9935429000179,None,2,0.35340354801155627,382.9935429000179,None,,,,,,,,,,,,,,,,None,None,None,,None,None,383.39532246100134,None,3,1,0.5724154009949416,383.39532246100134,None,383.96107858612083,None,None,None,None,,08,001,2023_Jan_18_1708,searchDisc5,2021.2.3,59.93985419321621,
images/exp2c_trial_47_colour1_distractors1_l.png,l,1,1,1,0,,,,,0,99,99,99,,,,,,,,,,,,,,,,,,,,,,,,,,,,,,,,,,,,,,,,,,,383.9763822700188,None,2,0.37086028698831797,383.9763822700188,None,,,,,,,,,,,,,,,,None,None,None,,None,None,384.39563113701297,None,1,1,0.6535416829865426,384.39563113701297,None,385.0431424951006,None,None,None,None,,08,001,2023_Jan_18_1708,searchDisc5,2021.2.3,59.93985419321621,
images/exp2c_trial_122_colour3_distractors4_l.png,l,1,3,4,0,,,,,0,100,100,100,,,,,,,,,,,,,,,,,,,,,,,,,,,,,,,,,,,,,,,,,,,385.0625698630174,None,2,0.354483210016042,385.0625698630174,None,,,,,,,,,,,,,,,,None,None,None,,None,None,385.4619594490214,None,1,1,0.654249079991132,385.4619594490214,None,386.1099816210975,None,None,None,None,,08,001,2023_Jan_18_1708,searchDisc5,2021.2.3,59.93985419321621,
images/exp1a_trial_274_colour1_distractors19_l.png,l,1,1,19,0,,,,,0,101,101,101,,,,,,,,,,,,,,,,,,,,,,,,,,,,,,,,,,,,,,,,,,,386.1263436000154,None,2,0.28821866898215376,386.1263436000154,None,,,,,,,,,,,,,,,,None,None,None,,None,None,386.4603411090211,None,1,1,0.7001434300036635,386.4603411090211,None,387.15993207210556,None,None,None,None,,08,001,2023_Jan_18_1708,searchDisc5,2021.2.3,59.93985419321621,
images/exp2b_trial_222_colour0_distractors0_r.png,r,3,0,0,0,,,,,0,102,102,102,,,,,,,,,,,,,,,,,,,,,,,,,,,,,,,,,,,,,,,,,,,387.17600546599715,None,2,0.3213458439859096,387.17600546599715,None,,,,,,,,,,,,,,,,None,None,None,,None,None,387.544097703998,None,3,1,0.5876058969879523,387.544097703998,None,388.12669941809725,None,None,None,None,,08,001,2023_Jan_18_1708,searchDisc5,2021.2.3,59.93985419321621,
images/exp2c_trial_231_colour2_distractors9_r.png,r,3,2,9,0,,,,,0,103,103,103,,,,,,,,,,,,,,,,,,,,,,,,,,,,,,,,,,,,,,,,,,,388.14587214999483,None,2,0.35535584599711,388.14587214999483,None,,,,,,,,,,,,,,,,None,None,None,,None,None,388.5444487610075,None,3,1,0.584666106995428,388.5444487610075,None,389.1259258381091,None,None,None,None,,08,001,2023_Jan_18_1708,searchDisc5,2021.2.3,59.93985419321621,
images/exp1a_trial_232_colour2_distractors19_r.png,r,3,2,19,0,,,,,0,104,104,104,,,,,,,,,,,,,,,,,,,,,,,,,,,,,,,,,,,,,,,,,,,389.14396224799566,None,2,0.47484760198858567,389.14396224799566,None,,,,,,,,,,,,,,,,None,None,None,,None,None,389.6598207660136,None,3,1,0.6662590350024402,389.6598207660136,None,390.32679492110617,None,None,None,None,,08,001,2023_Jan_18_1708,searchDisc5,2021.2.3,59.93985419321621,
images/exp2a_trial_203_colour3_distractors4_r.png,r,3,3,4,0,,,,,0,105,105,105,,,,,,,,,,,,,,,,,,,,,,,,,,,,,,,,,,,,,,,,,,,390.3439820340136,None,2,0.6521409940032754,390.3439820340136,None,,,,,,,,,,,,,,,,None,None,None,,None,None,391.0438843590091,None,3,1,0.6716843019821681,391.0438843590091,None,391.71041985211775,None,None,None,None,,08,001,2023_Jan_18_1708,searchDisc5,2021.2.3,59.93985419321621,
images/exp2b_trial_232_colour2_distractors19_r.png,r,3,2,19,0,,,,,0,106,106,106,,,,,,,,,,,,,,,,,,,,,,,,,,,,,,,,,,,,,,,,,,,391.72753546902095,None,2,0.35652412800118327,391.72753546902095,None,,,,,,,,,,,,,,,,None,None,None,,None,None,392.1260678700055,None,3,1,0.6522126400086563,392.1260678700055,None,392.7779040771187,None,None,None,None,,08,001,2023_Jan_18_1708,searchDisc5,2021.2.3,59.93985419321621,
images/exp2c_trial_296_colour2_distractors19_r.png,r,3,2,19,0,,,,,0,107,107,107,,,,,,,,,,,,,,,,,,,,,,,,,,,,,,,,,,,,,,,,,,,392.7932875940169,None,2,0.43543032798334025,392.7932875940169,None,,,,,,,,,,,,,,,,None,None,None,,None,None,393.27753722600755,None,3,1,0.6708124130091164,393.27753722600755,None,393.9434357440972,None,None,None,None,,08,001,2023_Jan_18_1708,searchDisc5,2021.2.3,59.93985419321621,
images/exp2a_trial_100_colour1_distractors31_r.png,r,3,1,31,0,,,,,0,108,108,108,,,,,,,,,,,,,,,,,,,,,,,,,,,,,,,,,,,,,,,,,,,393.96015832500416,None,2,0.3512406079971697,393.96015832500416,None,,,,,,,,,,,,,,,,None,None,None,,None,None,394.3630051939981,None,3,1,0.5846015469869599,394.3630051939981,None,394.9436337951105,None,None,None,None,,08,001,2023_Jan_18_1708,searchDisc5,2021.2.3,59.93985419321621,
images/exp2b_trial_230_colour2_distractors4_r.png,r,3,2,4,0,,,,,0,109,109,109,,,,,,,,,,,,,,,,,,,,,,,,,,,,,,,,,,,,,,,,,,,394.9626141740009,None,2,0.42189805398811586,394.9626141740009,None,,,,,,,,,,,,,,,,None,None,None,,None,None,395.4275137420045,None,3,1,0.45366753300186247,395.4275137420045,None,395.8769105611194,None,None,None,None,,08,001,2023_Jan_18_1708,searchDisc5,2021.2.3,59.93985419321621,
images/exp1a_trial_138_colour3_distractors1_r.png,r,3,3,1,0,,,,,0,110,110,110,,,,,,,,,,,,,,,,,,,,,,,,,,,,,,,,,,,,,,,,,,,395.89465331300744,None,2,0.7719079419912305,395.89465331300744,None,,,,,,,,,,,,,,,,None,None,None,,None,None,396.7111499540042,None,3,1,0.569981300010113,396.7111499540042,None,397.2780154441192,None,None,None,None,,08,001,2023_Jan_18_1708,searchDisc5,2021.2.3,59.93985419321621,
images/exp2a_trial_27_colour3_distractors9_l.png,l,1,3,9,0,,,,,0,111,111,111,,,,,,,,,,,,,,,,,,,,,,,,,,,,,,,,,,,,,,,,,,,397.2933917970222,None,2,0.6211823989870027,397.2933917970222,None,,,,,,,,,,,,,,,,None,None,None,,None,None,397.96092568401946,None,1,1,0.8365317209973,397.96092568401946,None,398.7945638161094,None,None,None,None,,08,001,2023_Jan_18_1708,searchDisc5,2021.2.3,59.93985419321621,
images/exp1a_trial_244_colour2_distractors1_l.png,l,1,2,1,0,,,,,0,112,112,112,,,,,,,,,,,,,,,,,,,,,,,,,,,,,,,,,,,,,,,,,,,398.8106457950198,None,2,0.3376416560204234,398.8106457950198,None,,,,,,,,,,,,,,,,None,None,None,,None,None,399.1935465740098,None,1,1,0.6368802129873075,399.1935465740098,None,399.826933169103,None,None,None,None,,08,001,2023_Jan_18_1708,searchDisc5,2021.2.3,59.93985419321621,
images/exp1a_trial_224_colour1_distractors1_r.png,r,3,1,1,0,,,,,0,113,113,113,,,,,,,,,,,,,,,,,,,,,,,,,,,,,,,,,,,,,,,,,,,399.8439203980088,None,2,0.2707054869970307,399.8439203980088,None,,,,,,,,,,,,,,,,None,None,None,,None,None,400.1626086230099,None,3,1,0.7881025579990819,400.1626086230099,None,400.94361009210695,None,None,None,None,,08,001,2023_Jan_18_1708,searchDisc5,2021.2.3,59.93985419321621,
images/exp1a_trial_44_colour3_distractors9_r.png,r,3,3,9,0,,,,,0,114,114,114,,,,,,,,,,,,,,,,,,,,,,,,,,,,,,,,,,,,,,,,,,,400.96017231899896,None,2,0.3911849629948847,400.96017231899896,None,,,,,,,,,,,,,,,,None,None,None,,None,None,401.39446353001404,None,3,1,0.5326477870112285,401.39446353001404,None,401.9269731141161,None,None,None,None,,08,001,2023_Jan_18_1708,searchDisc5,2021.2.3,59.93985419321621,
images/exp2a_trial_59_colour3_distractors9_l.png,l,1,3,9,0,,,,,0,115,115,115,,,,,,,,,,,,,,,,,,,,,,,,,,,,,,,,,,,,,,,,,,,401.9434889910044,None,2,0.37229484401177615,401.9434889910044,None,,,,,,,,,,,,,,,,None,None,None,,None,None,402.36344973300584,None,1,1,0.6700188039976638,402.36344973300584,None,403.0277380211104,None,None,None,None,,08,001,2023_Jan_18_1708,searchDisc5,2021.2.3,59.93985419321621,
images/exp2c_trial_140_colour3_distractors9_r.png,r,3,3,9,0,,,,,0,116,116,116,,,,,,,,,,,,,,,,,,,,,,,,,,,,,,,,,,,,,,,,,,,403.04429187299684,None,2,0.40349371699267067,403.04429187299684,None,,,,,,,,,,,,,,,,None,None,None,,None,None,403.4968255330168,None,3,1,0.9207383059838321,403.4968255330168,None,404.411456469103,None,None,None,None,,08,001,2023_Jan_18_1708,searchDisc5,2021.2.3,59.93985419321621,
images/exp2b_trial_307_colour1_distractors31_l.png,l,1,1,31,0,,,,,0,117,117,117,,,,,,,,,,,,,,,,,,,,,,,,,,,,,,,,,,,,,,,,,,,404.42708532500546,None,2,0.5705285739968531,404.42708532500546,None,,,,,,,,,,,,,,,,None,None,None,,None,None,405.04609948099824,None,1,1,0.7841908989939839,405.04609948099824,None,405.82719799809854,None,None,None,None,,08,001,2023_Jan_18_1708,searchDisc5,2021.2.3,59.93985419321621,
images/exp2b_trial_281_colour3_distractors1_l.png,l,1,3,1,0,,,,,0,118,118,118,,,,,,,,,,,,,,,,,,,,,,,,,,,,,,,,,,,,,,,,,,,405.84373369801324,None,2,0.2877020430169068,405.84373369801324,None,,,,,,,,,,,,,,,,None,None,None,,None,None,406.1792566800141,None,1,1,0.9234157449973281,406.1792566800141,None,407.0939389071194,None,None,None,None,,08,001,2023_Jan_18_1708,searchDisc5,2021.2.3,59.93985419321621,
images/exp1a_trial_177_colour1_distractors9_l.png,l,1,1,9,0,,,,,0,119,119,119,,,,,,,,,,,,,,,,,,,,,,,,,,,,,,,,,,,,,,,,,,,407.11030059002223,None,2,0.2861270340217743,407.11030059002223,None,,,,,,,,,,,,,,,,None,None,None,,None,None,407.4441211160156,None,1,1,0.7685141389956698,407.4441211160156,None,408.2104908701207,None,None,None,None,,08,001,2023_Jan_18_1708,searchDisc5,2021.2.3,59.93985419321621,
images/exp2c_trial_318_colour0_distractors0_r.png,r,3,0,0,0,,,,,0,120,120,120,,,,,,,,,,,,,,,,,,,,,,,,,,,,,,,,,,,,,,,,,,,408.2270193209988,None,2,0.2042205850011669,408.2270193209988,None,,,,,,,,,,,,,,,,None,None,None,,None,None,408.4783712530043,None,3,1,0.554766354005551,408.4783712530043,None,409.0272356751142,None,None,None,None,,08,001,2023_Jan_18_1708,searchDisc5,2021.2.3,59.93985419321621,
images/exp1a_trial_311_colour2_distractors19_l.png,l,1,2,19,0,,,,,0,121,121,121,,,,,,,,,,,,,,,,,,,,,,,,,,,,,,,,,,,,,,,,,,,409.0446479230013,None,2,0.35659239400411025,409.0446479230013,None,,,,,,,,,,,,,,,,None,None,None,,None,None,409.44619719401817,None,1,1,0.580899673019303,409.44619719401817,None,410.0273022321111,None,None,None,None,,08,001,2023_Jan_18_1708,searchDisc5,2021.2.3,59.93985419321621,
images/exp1a_trial_314_colour3_distractors4_l.png,l,1,3,4,0,,,,,0,122,122,122,,,,,,,,,,,,,,,,,,,,,,,,,,,,,,,,,,,,,,,,,,,410.0444708120194,None,2,0.23816001298837364,410.0444708120194,None,,,,,,,,,,,,,,,,None,None,None,,None,None,410.32942627501325,None,1,1,0.8530187889991794,410.32942627501325,None,411.1771076451172,None,None,None,None,,08,001,2023_Jan_18_1708,searchDisc5,2021.2.3,59.93985419321621,
images/exp2a_trial_121_colour3_distractors1_l.png,l,1,3,1,0,,,,,0,123,123,123,,,,,,,,,,,,,,,,,,,,,,,,,,,,,,,,,,,,,,,,,,,411.19380260500475,None,2,0.3375935920048505,411.19380260500475,None,,,,,,,,,,,,,,,,None,None,None,,None,None,411.5768226979999,None,1,1,0.6406890139915049,411.5768226979999,None,412.2107090271078,None,None,None,None,,08,001,2023_Jan_18_1708,searchDisc5,2021.2.3,59.93985419321621,
images/exp2c_trial_221_colour3_distractors31_l.png,l,1,3,31,0,,,,,0,124,124,124,,,,,,,,,,,,,,,,,,,,,,,,,,,,,,,,,,,,,,,,,,,412.2298320280097,None,2,0.38577459802036174,412.2298320280097,None,,,,,,,,,,,,,,,,None,None,None,,None,None,412.6634114070039,None,1,1,0.6523877839790657,412.6634114070039,None,413.3107898881193,None,None,None,None,,08,001,2023_Jan_18_1708,searchDisc5,2021.2.3,59.93985419321621,
images/exp2a_trial_40_colour2_distractors19_r.png,r,3,2,19,0,,,,,0,125,125,125,,,,,,,,,,,,,,,,,,,,,,,,,,,,,,,,,,,,,,,,,,,413.3283219849982,None,2,0.25502394599607214,413.3283219849982,None,,,,,,,,,,,,,,,,None,None,None,,None,None,413.6275985870161,None,3,1,0.9461454529955518,413.6275985870161,None,414.5774943891214,None,None,None,None,,08,001,2023_Jan_18_1708,searchDisc5,2021.2.3,59.93985419321621,
images/exp2b_trial_24_colour2_distractors31_l.png,l,1,2,31,0,,,,,0,126,126,126,,,,,,,,,,,,,,,,,,,,,,,,,,,,,,,,,,,,,,,,,,,414.5945117539959,None,2,0.5741805199941155,414.5945117539959,None,,,,,,,,,,,,,,,,None,None,None,,None,None,415.21344319701893,None,1,1,0.664873361994978,415.21344319701893,None,415.87735227210794,None,None,None,None,,08,001,2023_Jan_18_1708,searchDisc5,2021.2.3,59.93985419321621,
images/exp2c_trial_178_colour1_distractors19_l.png,l,1,1,19,0,,,,,0,127,127,127,,,,,,,,,,,,,,,,,,,,,,,,,,,,,,,,,,,,,,,,,,,415.8944450910203,None,2,0.27417128198430873,415.8944450910203,None,,,,,,,,,,,,,,,,None,None,None,,None,None,416.21368210800574,None,1,1,0.7517972979985643,416.21368210800574,None,416.96171366010674,None,None,None,None,,08,001,2023_Jan_18_1708,searchDisc5,2021.2.3,59.93985419321621,
images/exp2b_trial_286_colour0_distractors0_r.png,r,3,0,0,0,,,,,0,128,128,128,,,,,,,,,,,,,,,,,,,,,,,,,,,,,,,,,,,,,,,,,,,416.9779621580092,None,2,0.352175806008745,416.9779621580092,None,,,,,,,,,,,,,,,,None,None,None,,None,None,417.3799525730137,None,3,1,0.6705556650122162,417.3799525730137,None,418.0438987331057,None,None,None,None,,08,001,2023_Jan_18_1708,searchDisc5,2021.2.3,59.93985419321621,
images/exp2a_trial_264_colour2_distractors19_r.png,r,3,2,19,0,,,,,0,129,129,129,,,,,,,,,,,,,,,,,,,,,,,,,,,,,,,,,,,,,,,,,,,418.0606019459956,None,2,0.3554544910148252,418.0606019459956,None,,,,,,,,,,,,,,,,None,None,None,,None,None,418.46084229802364,None,3,1,0.8615640689968131,418.46084229802364,None,419.3274700131209,None,None,None,None,,08,001,2023_Jan_18_1708,searchDisc5,2021.2.3,59.93985419321621,
images/exp2c_trial_94_colour0_distractors0_r.png,r,3,0,0,0,,,,,0,130,130,130,,,,,,,,,,,,,,,,,,,,,,,,,,,,,,,,,,,,,,,,,,,419.3440771550231,None,2,0.32314904799568467,419.3440771550231,None,,,,,,,,,,,,,,,,None,None,None,,None,None,419.710957659001,None,3,1,0.7029868589888792,419.710957659001,None,420.41100606910766,None,None,None,None,,08,001,2023_Jan_18_1708,searchDisc5,2021.2.3,59.93985419321621,
images/exp2c_trial_69_colour2_distractors1_r.png,r,3,2,1,0,,,,,0,131,131,131,,,,,,,,,,,,,,,,,,,,,,,,,,,,,,,,,,,,,,,,,,,420.4272811470146,None,2,0.270508115994744,420.4272811470146,None,,,,,,,,,,,,,,,,None,None,None,,None,None,420.7469280080113,None,3,1,0.5711834230169188,420.7469280080113,None,421.310884525103,None,None,None,None,,08,001,2023_Jan_18_1708,searchDisc5,2021.2.3,59.93985419321621,
images/exp2c_trial_175_colour1_distractors1_l.png,l,1,1,1,0,,,,,0,132,132,132,,,,,,,,,,,,,,,,,,,,,,,,,,,,,,,,,,,,,,,,,,,421.3266310180188,None,2,0.25457175899646245,421.3266310180188,None,,,,,,,,,,,,,,,,None,None,None,,None,None,421.62973070400767,None,1,1,0.7391125959984493,421.62973070400767,None,422.36208773209944,None,None,None,None,,08,001,2023_Jan_18_1708,searchDisc5,2021.2.3,59.93985419321621,
images/exp2b_trial_81_colour1_distractors9_l.png,l,1,1,9,0,,,,,0,133,133,133,,,,,,,,,,,,,,,,,,,,,,,,,,,,,,,,,,,,,,,,,,,422.37917021501926,None,2,0.3033217420161236,422.37917021501926,None,,,,,,,,,,,,,,,,None,None,None,,None,None,422.72777716000564,None,1,1,0.5712581709958613,422.72777716000564,None,423.2954142911243,None,None,None,None,,08,001,2023_Jan_18_1708,searchDisc5,2021.2.3,59.93985419321621,
images/exp2a_trial_315_colour3_distractors9_l.png,l,1,3,9,0,,,,,0,134,134,134,,,,,,,,,,,,,,,,,,,,,,,,,,,,,,,,,,,,,,,,,,,423.3119176720211,None,2,0.2220317400060594,423.3119176720211,None,,,,,,,,,,,,,,,,None,None,None,,None,None,423.5776518910134,None,1,1,0.6676939449971542,423.5776518910134,None,424.24411050312335,None,None,None,None,,08,001,2023_Jan_18_1708,searchDisc5,2021.2.3,59.93985419321621,
images/exp1a_trial_150_colour2_distractors9_l.png,l,1,2,9,0,,,,,0,135,135,135,,,,,,,,,,,,,,,,,,,,,,,,,,,,,,,,,,,,,,,,,,,424.2613295210176,None,2,0.2546937010192778,424.2613295210176,None,,,,,,,,,,,,,,,,None,None,None,,None,None,424.56131107301917,None,1,1,0.7026320480217692,424.56131107301917,None,425.2610049341223,None,None,None,None,,08,001,2023_Jan_18_1708,searchDisc5,2021.2.3,59.93985419321621,
images/exp2a_trial_77_colour3_distractors19_r.png,r,3,3,19,0,,,,,0,136,136,136,,,,,,,,,,,,,,,,,,,,,,,,,,,,,,,,,,,,,,,,,,,425.27678695702343,None,2,0.18802288500592113,425.27678695702343,None,,,,,,,,,,,,,,,,None,None,None,,None,None,425.51159112202004,None,3,1,0.5513790129916742,425.51159112202004,None,426.0611349020968,None,None,None,None,,08,001,2023_Jan_18_1708,searchDisc5,2021.2.3,59.93985419321621,
images/exp1a_trial_294_colour2_distractors4_r.png,r,3,2,4,0,,,,,0,137,137,137,,,,,,,,,,,,,,,,,,,,,,,,,,,,,,,,,,,,,,,,,,,426.07949708000524,None,2,0.3042449180211406,426.07949708000524,None,,,,,,,,,,,,,,,,None,None,None,,None,None,426.4286191620049,None,3,1,0.5872997720143758,426.4286191620049,None,427.01111379112115,None,None,None,None,,08,001,2023_Jan_18_1708,searchDisc5,2021.2.3,59.93985419321621,
images/exp2c_trial_155_colour3_distractors9_l.png,l,1,3,9,0,,,,,0,138,138,138,,,,,,,,,,,,,,,,,,,,,,,,,,,,,,,,,,,,,,,,,,,427.027492860012,None,2,0.2877328140020836,427.027492860012,None,,,,,,,,,,,,,,,,None,None,None,,None,None,427.36318065901287,None,1,1,0.7536374049959704,427.36318065901287,None,428.111198867124,None,None,None,None,,08,001,2023_Jan_18_1708,searchDisc5,2021.2.3,59.93985419321621,
images/exp2c_trial_91_colour3_distractors9_l.png,l,1,3,9,0,,,,,0,139,139,139,,,,,,,,,,,,,,,,,,,,,,,,,,,,,,,,,,,,,,,,,,,428.12848402702366,None,2,0.25715708802454174,428.12848402702366,None,,,,,,,,,,,,,,,,None,None,None,,None,None,428.4305021550099,None,1,1,0.8839883110194933,428.4305021550099,None,429.31164566710356,None,None,None,None,,08,001,2023_Jan_18_1708,searchDisc5,2021.2.3,59.93985419321621,
images/exp2c_trial_151_colour2_distractors19_l.png,l,1,2,19,0,,,,,0,140,140,140,,,,,,,,,,,,,,,,,,,,,,,,,,,,,,,,,,,,,,,,,,,429.3283741839987,None,2,0.22093721901183017,429.3283741839987,None,,,,,,,,,,,,,,,,None,None,None,,None,None,429.59480415002326,None,1,1,0.6179945079784375,429.59480415002326,None,430.2112491701031,None,None,None,None,,08,001,2023_Jan_18_1708,searchDisc5,2021.2.3,59.93985419321621,
images/exp2a_trial_277_colour2_distractors4_l.png,l,1,2,4,0,,,,,0,141,141,141,,,,,,,,,,,,,,,,,,,,,,,,,,,,,,,,,,,,,,,,,,,430.22961520100944,None,2,0.24019876899546944,430.22961520100944,None,,,,,,,,,,,,,,,,None,None,None,,None,None,430.5116949380026,None,1,1,0.5832061059772968,430.5116949380026,None,431.09454583211334,None,None,None,None,,08,001,2023_Jan_18_1708,searchDisc5,2021.2.3,59.93985419321621,
images/exp2c_trial_179_colour1_distractors31_l.png,l,1,1,31,0,,,,,0,142,142,142,,,,,,,,,,,,,,,,,,,,,,,,,,,,,,,,,,,,,,,,,,,431.11167166702216,None,2,0.20646846599993296,431.11167166702216,None,,,,,,,,,,,,,,,,None,None,None,,None,None,431.3632855640026,None,1,1,0.5326366809895262,431.3632855640026,None,431.8945765621087,None,None,None,None,,08,001,2023_Jan_18_1708,searchDisc5,2021.2.3,59.93985419321621,
images/exp2b_trial_78_colour3_distractors31_r.png,r,3,3,31,0,,,,,0,143,143,143,,,,,,,,,,,,,,,,,,,,,,,,,,,,,,,,,,,,,,,,,,,431.911032575008,None,2,0.2541825039952528,431.911032575008,None,,,,,,,,,,,,,,,,None,None,None,,None,None,432.21223966401885,None,1,0,0.5204968679754529,432.21223966401885,None,432.72900999812407,None,None,None,None,,08,001,2023_Jan_18_1708,searchDisc5,2021.2.3,59.93985419321621,
images/exp2a_trial_12_colour3_distractors9_r.png,r,3,3,9,0,,,,,0,144,144,144,,,,,,,,,,,,,,,,,,,,,,,,,,,,,,,,,,,,,,,,,,,432.7441141640011,None,2,0.6857118810003158,432.7441141640011,None,,,,,,,,,,,,,,,,None,None,None,,None,None,433.4779699220089,None,3,1,0.9359041739953682,433.4779699220089,None,434.41100394609964,None,None,None,None,,08,001,2023_Jan_18_1708,searchDisc5,2021.2.3,59.93985419321621,
images/exp1a_trial_303_colour1_distractors1_l.png,l,1,1,1,0,,,,,0,145,145,145,,,,,,,,,,,,,,,,,,,,,,,,,,,,,,,,,,,,,,,,,,,434.42770148601267,None,2,0.27212381997378543,434.42770148601267,None,,,,,,,,,,,,,,,,None,None,None,,None,None,434.7439628910215,None,1,1,0.7040863590082154,434.7439628910215,None,435.44472931410417,None,None,None,None,,08,001,2023_Jan_18_1708,searchDisc5,2021.2.3,59.93985419321621,
images/exp2c_trial_270_colour3_distractors31_r.png,r,3,3,31,0,,,,,0,146,146,146,,,,,,,,,,,,,,,,,,,,,,,,,,,,,,,,,,,,,,,,,,,435.4631689520029,None,2,0.2551356340118218,435.4631689520029,None,,,,,,,,,,,,,,,,None,None,None,,None,None,435.7613974560227,None,3,1,0.9175310900027398,435.7613974560227,None,436.678163447103,None,None,None,None,,08,001,2023_Jan_18_1708,searchDisc5,2021.2.3,59.93985419321621,
images/exp2b_trial_16_colour1_distractors4_l.png,l,1,1,4,0,,,,,0,147,147,147,,,,,,,,,,,,,,,,,,,,,,,,,,,,,,,,,,,,,,,,,,,436.6944909230224,None,2,0.3544880919798743,436.6944909230224,None,,,,,,,,,,,,,,,,None,None,None,,None,None,437.0956355810049,None,1,1,0.5880783540196717,437.0956355810049,None,437.67811687110805,None,None,None,None,,08,001,2023_Jan_18_1708,searchDisc5,2021.2.3,59.93985419321621,
images/exp2c_trial_268_colour3_distractors9_r.png,r,3,3,9,0,,,,,0,148,148,148,,,,,,,,,,,,,,,,,,,,,,,,,,,,,,,,,,,,,,,,,,,437.6937706519966,None,2,0.2542960530263372,437.6937706519966,None,,,,,,,,,,,,,,,,None,None,None,,None,None,437.99467946600635,None,3,1,1.1858068809960969,437.99467946600635,None,439.178066565108,None,None,None,None,,08,001,2023_Jan_18_1708,searchDisc5,2021.2.3,59.93985419321621,
images/exp2b_trial_74_colour3_distractors1_r.png,r,3,3,1,0,,,,,0,149,149,149,,,,,,,,,,,,,,,,,,,,,,,,,,,,,,,,,,,,,,,,,,,439.1945197019959,None,2,0.3210652730194852,439.1945197019959,None,,,,,,,,,,,,,,,,None,None,None,,None,None,439.56155987101374,None,1,0,0.6706840969854966,439.56155987101374,None,440.2281735961209,None,None,None,None,,08,001,2023_Jan_18_1708,searchDisc5,2021.2.3,59.93985419321621,
images/exp2a_trial_65_colour1_distractors4_r.png,r,3,1,4,0,,,,,0,150,150,150,,,,,,,,,,,,,,,,,,,,,,,,,,,,,,,,,,,,,,,,,,,440.2445601360232,None,2,1.4218633480195422,440.2445601360232,None,,,,,,,,,,,,,,,,None,None,None,,None,None,441.71420685600606,None,3,1,0.654041336994851,441.71420685600606,None,442.36152992610585,None,None,None,None,,08,001,2023_Jan_18_1708,searchDisc5,2021.2.3,59.93985419321621,
images/exp1a_trial_99_colour1_distractors19_r.png,r,3,1,19,0,,,,,0,151,151,151,,,,,,,,,,,,,,,,,,,,,,,,,,,,,,,,,,,,,,,,,,,442.3788363810163,None,2,0.3208719630201813,442.3788363810163,None,,,,,,,,,,,,,,,,None,None,None,,None,None,442.7452857540047,None,3,1,0.8171844049938954,442.7452857540047,None,443.5614923981251,None,None,None,None,,08,001,2023_Jan_18_1708,searchDisc5,2021.2.3,59.93985419321621,
images/exp1a_trial_142_colour3_distractors31_r.png,r,3,3,31,0,,,,,0,152,152,152,,,,,,,,,,,,,,,,,,,,,,,,,,,,,,,,,,,,,,,,,,,443.5790312809986,None,2,0.3042540809838101,443.5790312809986,None,,,,,,,,,,,,,,,,None,None,None,,None,None,443.9303413720045,None,3,1,0.8676086019841023,443.9303413720045,None,444.7949869041098,None,None,None,None,,08,001,2023_Jan_18_1708,searchDisc5,2021.2.3,59.93985419321621,
images/exp2b_trial_313_colour3_distractors1_l.png,l,1,3,1,0,,,,,0,153,153,153,,,,,,,,,,,,,,,,,,,,,,,,,,,,,,,,,,,,,,,,,,,444.81147201001295,None,2,0.23766112499288283,444.81147201001295,None,,,,,,,,,,,,,,,,None,None,None,,None,None,445.09493778200704,None,1,1,0.6384146990021691,445.09493778200704,None,445.7303342121071,None,None,None,None,,08,001,2023_Jan_18_1708,searchDisc5,2021.2.3,59.93985419321621,
images/exp1a_trial_220_colour3_distractors19_l.png,l,1,3,19,0,,,,,0,154,154,154,,,,,,,,,,,,,,,,,,,,,,,,,,,,,,,,,,,,,,,,,,,445.7454763959977,None,2,0.23581104198819958,445.7454763959977,None,,,,,,,,,,,,,,,,None,None,None,,None,None,446.0303521780006,None,1,1,0.6174224549904466,446.0303521780006,None,446.64500108810023,None,None,None,None,,08,001,2023_Jan_18_1708,searchDisc5,2021.2.3,59.93985419321621,
images/exp2b_trial_310_colour2_distractors9_l.png,l,1,2,9,0,,,,,0,155,155,155,,,,,,,,,,,,,,,,,,,,,,,,,,,,,,,,,,,,,,,,,,,446.66095297801076,None,2,0.18915242300136015,446.66095297801076,None,,,,,,,,,,,,,,,,None,None,None,,None,None,446.89576222602045,None,1,1,0.5843372099916451,446.89576222602045,None,447.47826419311457,None,None,None,None,,08,001,2023_Jan_18_1708,searchDisc5,2021.2.3,59.93985419321621,
images/exp2c_trial_274_colour1_distractors19_l.png,l,1,1,19,0,,,,,0,156,156,156,,,,,,,,,,,,,,,,,,,,,,,,,,,,,,,,,,,,,,,,,,,447.4958731850202,None,2,0.18754728100611828,447.4958731850202,None,,,,,,,,,,,,,,,,None,None,None,,None,None,447.73032943400904,None,1,1,0.6704279839759693,447.73032943400904,None,448.39710610409963,None,None,None,None,,08,001,2023_Jan_18_1708,searchDisc5,2021.2.3,59.93985419321621,
images/exp2c_trial_87_colour2_distractors19_l.png,l,1,2,19,0,,,,,0,157,157,157,,,,,,,,,,,,,,,,,,,,,,,,,,,,,,,,,,,,,,,,,,,448.41172078301315,None,2,0.1878589230182115,448.41172078301315,None,,,,,,,,,,,,,,,,None,None,None,,None,None,448.6450264950108,None,1,1,0.832771868997952,448.6450264950108,None,449.47823664409805,None,None,None,None,,08,001,2023_Jan_18_1708,searchDisc5,2021.2.3,59.93985419321621,
images/exp1a_trial_37_colour2_distractors1_r.png,r,3,2,1,0,,,,,0,158,158,158,,,,,,,,,,,,,,,,,,,,,,,,,,,,,,,,,,,,,,,,,,,449.494927577005,None,2,0.18761681200703606,449.494927577005,None,,,,,,,,,,,,,,,,None,None,None,,None,None,449.731321054016,None,1,0,0.821656685002381,449.731321054016,None,450.54506879411053,None,None,None,None,,08,001,2023_Jan_18_1708,searchDisc5,2021.2.3,59.93985419321621,
images/exp1a_trial_236_colour3_distractors9_r.png,r,3,3,9,0,,,,,0,159,159,159,,,,,,,,,,,,,,,,,,,,,,,,,,,,,,,,,,,,,,,,,,,450.56107045401586,None,2,0.6381665240041912,450.56107045401586,None,,,,,,,,,,,,,,,,None,None,None,,None,None,451.2451061150059,None,3,1,0.8871303990017623,451.2451061150059,None,452.13050666612105,None,None,None,None,,08,001,2023_Jan_18_1708,searchDisc5,2021.2.3,59.93985419321621,
images/exp2a_trial_146_colour1_distractors19_l.png,l,1,1,19,0,,,,,0,160,160,160,,,,,,,,,,,,,,,,,,,,,,,,,,,,,,,,,,,,,,,,,,,452.14553864701884,None,2,0.48684769999817945,452.14553864701884,None,,,,,,,,,,,,,,,,None,None,None,,None,None,452.6815876820183,None,1,1,0.8185842249949928,452.6815876820183,None,453.49604485711313,None,None,None,None,,08,001,2023_Jan_18_1708,searchDisc5,2021.2.3,59.93985419321621,
images/exp2a_trial_94_colour0_distractors0_r.png,r,3,0,0,0,,,,,0,161,161,161,,,,,,,,,,,,,,,,,,,,,,,,,,,,,,,,,,,,,,,,,,,453.51360872600344,None,2,0.23671242999262176,453.51360872600344,None,,,,,,,,,,,,,,,,None,None,None,,None,None,453.7980953610095,None,3,1,0.688254576001782,453.7980953610095,None,454.4784037541016,None,None,None,None,,08,001,2023_Jan_18_1708,searchDisc5,2021.2.3,59.93985419321621,
images/exp2a_trial_117_colour2_distractors4_l.png,l,1,2,4,0,,,,,0,162,162,162,,,,,,,,,,,,,,,,,,,,,,,,,,,,,,,,,,,,,,,,,,,454.4976751060167,None,2,0.45470240301801823,454.4976751060167,None,,,,,,,,,,,,,,,,None,None,None,,None,None,454.9982197660138,None,1,1,0.5355808419990353,454.9982197660138,None,455.5284756011155,None,None,None,None,,08,001,2023_Jan_18_1708,searchDisc5,2021.2.3,59.93985419321621,
images/exp2c_trial_172_colour3_distractors9_r.png,r,3,3,9,0,,,,,0,163,163,163,,,,,,,,,,,,,,,,,,,,,,,,,,,,,,,,,,,,,,,,,,,455.5456828990136,None,2,0.6044737629999872,455.5456828990136,None,,,,,,,,,,,,,,,,None,None,None,,None,None,456.19568606000394,None,3,1,0.5359088759869337,456.19568606000394,None,456.72844480811034,None,None,None,None,,08,001,2023_Jan_18_1708,searchDisc5,2021.2.3,59.93985419321621,
images/exp2c_trial_240_colour1_distractors4_l.png,l,1,1,4,0,,,,,0,164,164,164,,,,,,,,,,,,,,,,,,,,,,,,,,,,,,,,,,,,,,,,,,,456.74510910501704,None,2,0.45449507297598757,456.74510910501704,None,,,,,,,,,,,,,,,,None,None,None,,None,None,457.24523706300533,None,1,1,1.2541997270018328,457.24523706300533,None,458.49523792410616,None,None,None,None,,08,001,2023_Jan_18_1708,searchDisc5,2021.2.3,59.93985419321621,
images/exp2c_trial_79_colour1_distractors1_l.png,l,1,1,1,0,,,,,0,165,165,165,,,,,,,,,,,,,,,,,,,,,,,,,,,,,,,,,,,,,,,,,,,458.5127899229992,None,2,0.4064113019849174,458.5127899229992,None,,,,,,,,,,,,,,,,None,None,None,,None,None,458.9640429530118,None,1,1,0.5045458459935617,458.9640429530118,None,459.46196252911466,None,None,None,None,,08,001,2023_Jan_18_1708,searchDisc5,2021.2.3,59.93985419321621,
images/exp1a_trial_202_colour3_distractors1_r.png,r,3,3,1,0,,,,,0,166,166,166,,,,,,,,,,,,,,,,,,,,,,,,,,,,,,,,,,,,,,,,,,,459.4779275440087,None,2,0.33767884800909087,459.4779275440087,None,,,,,,,,,,,,,,,,None,None,None,,None,None,459.86160213901894,None,3,1,0.6040000329958275,459.86160213901894,None,460.4621334581228,None,None,None,None,,08,001,2023_Jan_18_1708,searchDisc5,2021.2.3,59.93985419321621,
images/exp2b_trial_314_colour3_distractors4_l.png,l,1,3,4,0,,,,,0,167,167,167,,,,,,,,,,,,,,,,,,,,,,,,,,,,,,,,,,,,,,,,,,,460.4776192200079,None,2,0.43854874398675747,460.4776192200079,None,,,,,,,,,,,,,,,,None,None,None,,None,None,460.96502254900406,None,1,1,0.6034172789950389,460.96502254900406,None,461.56211563310933,None,None,None,None,,08,001,2023_Jan_18_1708,searchDisc5,2021.2.3,59.93985419321621,
images/exp1a_trial_121_colour3_distractors1_l.png,l,1,3,1,0,,,,,0,168,168,168,,,,,,,,,,,,,,,,,,,,,,,,,,,,,,,,,,,,,,,,,,,461.5807177700044,None,2,0.31926401599776,461.5807177700044,None,,,,,,,,,,,,,,,,None,None,None,,None,None,461.94747666001786,None,1,1,0.5896542159898672,461.94747666001786,None,462.52975270111926,None,None,None,None,,08,001,2023_Jan_18_1708,searchDisc5,2021.2.3,59.93985419321621,
images/exp1a_trial_284_colour3_distractors19_l.png,l,1,3,19,0,,,,,0,169,169,169,,,,,,,,,,,,,,,,,,,,,,,,,,,,,,,,,,,,,,,,,,,462.5459833770001,None,2,0.3893763289961498,462.5459833770001,None,,,,,,,,,,,,,,,,None,None,None,,None,None,462.9809843550029,None,1,1,0.5475795170059428,462.9809843550029,None,463.5287412761012,None,None,None,None,,08,001,2023_Jan_18_1708,searchDisc5,2021.2.3,59.93985419321621,
images/exp2c_trial_27_colour3_distractors9_l.png,l,1,3,9,0,,,,,0,170,170,170,,,,,,,,,,,,,,,,,,,,,,,,,,,,,,,,,,,,,,,,,,,463.54588961802074,None,2,0.40702825400512666,463.54588961802074,None,,,,,,,,,,,,,,,,None,None,None,,None,None,463.9962237260188,None,1,1,0.5834534259920474,463.9962237260188,None,464.578789412108,None,None,None,None,,08,001,2023_Jan_18_1708,searchDisc5,2021.2.3,59.93985419321621,
images/exp1a_trial_269_colour3_distractors19_r.png,r,3,3,19,0,,,,,0,171,171,171,,,,,,,,,,,,,,,,,,,,,,,,,,,,,,,,,,,,,,,,,,,464.59530743100913,None,2,0.30563514700043015,464.59530743100913,None,,,,,,,,,,,,,,,,None,None,None,,None,None,464.94627054201555,None,3,1,0.6847534400003497,464.94627054201555,None,465.6289457810984,None,None,None,None,,08,001,2023_Jan_18_1708,searchDisc5,2021.2.3,59.93985419321621,
images/exp1a_trial_231_colour2_distractors9_r.png,r,3,2,9,0,,,,,0,172,172,172,,,,,,,,,,,,,,,,,,,,,,,,,,,,,,,,,,,,,,,,,,,465.6481588000024,None,2,0.37173996699857526,465.6481588000024,None,,,,,,,,,,,,,,,,None,None,None,,None,None,466.0627117800177,None,3,1,0.765853746997891,466.0627117800177,None,466.82998236609853,None,None,None,None,,08,001,2023_Jan_18_1708,searchDisc5,2021.2.3,59.93985419321621,
images/exp2c_trial_67_colour1_distractors19_r.png,r,3,1,19,0,,,,,0,173,173,173,,,,,,,,,,,,,,,,,,,,,,,,,,,,,,,,,,,,,,,,,,,466.8460917430057,None,2,0.3041519490070641,466.8460917430057,None,,,,,,,,,,,,,,,,None,None,None,,None,None,467.1956996480003,None,3,1,0.6019845550181344,467.1956996480003,None,467.7955483851023,None,None,None,None,,08,001,2023_Jan_18_1708,searchDisc5,2021.2.3,59.93985419321621,
images/exp2b_trial_200_colour2_distractors19_r.png,r,3,2,19,0,,,,,0,174,174,174,,,,,,,,,,,,,,,,,,,,,,,,,,,,,,,,,,,,,,,,,,,467.81253390200436,None,2,0.4048162660037633,467.81253390200436,None,,,,,,,,,,,,,,,,None,None,None,,None,None,468.2638632550079,None,3,1,0.48483149701496586,468.2638632550079,None,468.74557790809774,None,None,None,None,,08,001,2023_Jan_18_1708,searchDisc5,2021.2.3,59.93985419321621,
images/exp2a_trial_258_colour1_distractors9_r.png,r,3,1,9,0,,,,,0,175,175,175,,,,,,,,,,,,,,,,,,,,,,,,,,,,,,,,,,,,,,,,,,,468.762609864003,None,2,0.40481075400020927,468.762609864003,None,,,,,,,,,,,,,,,,None,None,None,,None,None,469.21543300300254,None,3,1,0.6196861790085677,469.21543300300254,None,469.829153504112,None,None,None,None,,08,001,2023_Jan_18_1708,searchDisc5,2021.2.3,59.93985419321621,
images/exp2c_trial_118_colour2_distractors9_l.png,l,1,2,9,0,,,,,0,176,176,176,,,,,,,,,,,,,,,,,,,,,,,,,,,,,,,,,,,,,,,,,,,469.8454346420185,None,2,0.3895686340110842,469.8454346420185,None,,,,,,,,,,,,,,,,None,None,None,,None,None,470.2792259459966,None,1,1,0.6686028790136334,470.2792259459966,None,470.94566939611684,None,None,None,None,,08,001,2023_Jan_18_1708,searchDisc5,2021.2.3,59.93985419321621,
images/exp2b_trial_277_colour2_distractors4_l.png,l,1,2,4,0,,,,,0,177,177,177,,,,,,,,,,,,,,,,,,,,,,,,,,,,,,,,,,,,,,,,,,,470.96300984799745,None,2,0.3042939080041833,470.96300984799745,None,,,,,,,,,,,,,,,,None,None,None,,None,None,471.3131368100003,None,1,1,0.8041866249986924,471.3131368100003,None,472.11232354911624,None,None,None,None,,08,001,2023_Jan_18_1708,searchDisc5,2021.2.3,59.93985419321621,
images/exp2b_trial_161_colour1_distractors4_r.png,r,3,1,4,0,,,,,0,178,178,178,,,,,,,,,,,,,,,,,,,,,,,,,,,,,,,,,,,,,,,,,,,472.1287740370026,None,2,0.42427301200223155,472.1287740370026,None,,,,,,,,,,,,,,,,None,None,None,,None,None,472.59766361600487,None,3,1,0.6174814209807664,472.59766361600487,None,473.2122978371102,None,None,None,None,,08,001,2023_Jan_18_1708,searchDisc5,2021.2.3,59.93985419321621,
images/exp1a_trial_151_colour2_distractors19_l.png,l,1,2,19,0,,,,,0,179,179,179,,,,,,,,,,,,,,,,,,,,,,,,,,,,,,,,,,,,,,,,,,,473.22959483100567,None,2,0.35734127601608634,473.22959483100567,None,,,,,,,,,,,,,,,,None,None,None,,None,None,473.63120060702204,None,1,1,0.7809419919794891,473.63120060702204,None,474.4124726661015,None,None,None,None,,08,001,2023_Jan_18_1708,searchDisc5,2021.2.3,59.93985419321621,
images/exp2a_trial_314_colour3_distractors4_l.png,l,1,3,4,0,,,,,0,180,180,180,,,,,,,,,,,,,,,,,,,,,,,,,,,,,,,,,,,,,,,,,,,474.43154488899745,None,2,0.273208391998196,474.43154488899745,None,,,,,,,,,,,,,,,,None,None,None,,None,None,474.7459846420097,None,1,1,0.7191957100003492,474.7459846420097,None,475.4633549260965,None,None,None,None,,08,001,2023_Jan_18_1708,searchDisc5,2021.2.3,59.93985419321621,
images/exp2c_trial_298_colour3_distractors1_r.png,r,3,3,1,0,,,,,0,181,181,181,,,,,,,,,,,,,,,,,,,,,,,,,,,,,,,,,,,,,,,,,,,475.47950776299695,None,2,0.23779471300076693,475.47950776299695,None,,,,,,,,,,,,,,,,None,None,None,,None,None,475.76452642300865,None,3,1,0.6205197189992759,475.76452642300865,None,476.37917645610867,None,None,None,None,,08,001,2023_Jan_18_1708,searchDisc5,2021.2.3,59.93985419321621,
images/exp2c_trial_252_colour3_distractors19_l.png,l,1,3,19,0,,,,,0,182,182,182,,,,,,,,,,,,,,,,,,,,,,,,,,,,,,,,,,,,,,,,,,,476.3950910200074,None,2,0.3218573720077984,476.3950910200074,None,,,,,,,,,,,,,,,,None,None,None,,None,None,476.76451128101326,None,1,1,0.7691038879856933,476.76451128101326,None,477.5301853631157,None,None,None,None,,08,001,2023_Jan_18_1708,searchDisc5,2021.2.3,59.93985419321621,
images/exp2a_trial_239_colour1_distractors1_l.png,l,1,1,1,0,,,,,0,183,183,183,,,,,,,,,,,,,,,,,,,,,,,,,,,,,,,,,,,,,,,,,,,477.54564495402155,None,2,0.28949556199950166,477.54564495402155,None,,,,,,,,,,,,,,,,None,None,None,,None,None,477.87972670199815,None,1,1,0.6533540970121976,477.87972670199815,None,478.5302320761024,None,None,None,None,,08,001,2023_Jan_18_1708,searchDisc5,2021.2.3,59.93985419321621,
images/exp1a_trial_190_colour0_distractors0_r.png,r,3,0,0,0,,,,,0,184,184,184,,,,,,,,,,,,,,,,,,,,,,,,,,,,,,,,,,,,,,,,,,,478.5475942470075,None,2,0.2534834829857573,478.5475942470075,None,,,,,,,,,,,,,,,,None,None,None,,None,None,478.8460701199947,None,3,1,0.7557147119950969,478.8460701199947,None,479.5968509950966,None,None,None,None,,08,001,2023_Jan_18_1708,searchDisc5,2021.2.3,59.93985419321621,
images/exp2a_trial_143_colour1_distractors1_l.png,l,1,1,1,0,,,,,0,185,185,185,,,,,,,,,,,,,,,,,,,,,,,,,,,,,,,,,,,,,,,,,,,479.6131255920045,None,2,0.30335083801764995,479.6131255920045,None,,,,,,,,,,,,,,,,None,None,None,,None,None,479.9632178050233,None,1,1,0.654474505019607,479.9632178050233,None,480.61255490611654,None,None,None,None,,08,001,2023_Jan_18_1708,searchDisc5,2021.2.3,59.93985419321621,
images/exp2a_trial_304_colour1_distractors4_l.png,l,1,1,4,0,,,,,0,186,186,186,,,,,,,,,,,,,,,,,,,,,,,,,,,,,,,,,,,,,,,,,,,480.6290183600213,None,2,0.2548455250216648,480.6290183600213,None,,,,,,,,,,,,,,,,None,None,None,,None,None,480.932365132001,None,1,1,0.5715008830011357,480.932365132001,None,481.4968282661051,None,None,None,None,,08,001,2023_Jan_18_1708,searchDisc5,2021.2.3,59.93985419321621,
images/exp2a_trial_116_colour2_distractors1_l.png,l,1,2,1,0,,,,,0,187,187,187,,,,,,,,,,,,,,,,,,,,,,,,,,,,,,,,,,,,,,,,,,,481.5128388320154,None,2,0.23671629899763502,481.5128388320154,None,,,,,,,,,,,,,,,,None,None,None,,None,None,481.7968224840006,None,1,1,0.5539113640261348,481.7968224840006,None,482.34603140410616,None,None,None,None,,08,001,2023_Jan_18_1708,searchDisc5,2021.2.3,59.93985419321621,
images/exp2b_trial_215_colour2_distractors19_l.png,l,1,2,19,0,,,,,0,188,188,188,,,,,,,,,,,,,,,,,,,,,,,,,,,,,,,,,,,,,,,,,,,482.3625606340065,None,2,0.23983592001604848,482.3625606340065,None,,,,,,,,,,,,,,,,None,None,None,,None,None,482.6470054240199,None,1,1,0.9019314729957841,482.6470054240199,None,483.5469541811093,None,None,None,None,,08,001,2023_Jan_18_1708,searchDisc5,2021.2.3,59.93985419321621,
images/exp2a_trial_149_colour2_distractors4_l.png,l,1,2,4,0,,,,,0,189,189,189,,,,,,,,,,,,,,,,,,,,,,,,,,,,,,,,,,,,,,,,,,,483.5623031060095,None,2,0.2707747569947969,483.5623031060095,None,,,,,,,,,,,,,,,,None,None,None,,None,None,483.8793680660019,None,1,1,0.7842077550012618,483.8793680660019,None,484.66270421411025,None,None,None,None,,08,001,2023_Jan_18_1708,searchDisc5,2021.2.3,59.93985419321621,
images/exp2a_trial_45_colour3_distractors19_r.png,r,3,3,19,0,,,,,0,190,190,190,,,,,,,,,,,,,,,,,,,,,,,,,,,,,,,,,,,,,,,,,,,484.6817235740018,None,2,0.22274294201633893,484.6817235740018,None,,,,,,,,,,,,,,,,None,None,None,,None,None,484.94606560701504,None,3,1,0.6835554390272591,484.94606560701504,None,485.62933530210864,None,None,None,None,,08,001,2023_Jan_18_1708,searchDisc5,2021.2.3,59.93985419321621,
images/exp2a_trial_84_colour2_distractors1_l.png,l,1,2,1,0,,,,,0,191,191,191,,,,,,,,,,,,,,,,,,,,,,,,,,,,,,,,,,,,,,,,,,,485.64763364900136,None,2,0.4881649230082985,485.64763364900136,None,,,,,,,,,,,,,,,,None,None,None,,None,None,486.1795062860183,None,1,1,0.653848571004346,486.1795062860183,None,486.8293059761112,None,None,None,None,,08,001,2023_Jan_18_1708,searchDisc5,2021.2.3,59.93985419321621,
images/exp2b_trial_162_colour1_distractors9_r.png,r,3,1,9,0,,,,,0,192,192,192,,,,,,,,,,,,,,,,,,,,,,,,,,,,,,,,,,,,,,,,,,,486.84790530701866,None,2,0.33889114001067355,486.84790530701866,None,,,,,,,,,,,,,,,,None,None,None,,None,None,487.2315097360115,None,3,1,0.8852071399742272,487.2315097360115,None,488.11285135211654,None,None,None,None,,08,001,2023_Jan_18_1708,searchDisc5,2021.2.3,59.93985419321621,
images/exp2a_trial_111_colour1_distractors1_l.png,l,1,1,1,0,,,,,0,193,193,193,,,,,,,,,,,,,,,,,,,,,,,,,,,,,,,,,,,,,,,,,,,488.1300606550067,None,2,0.42292178500792943,488.1300606550067,None,,,,,,,,,,,,,,,,None,None,None,,None,None,488.5984862400219,None,1,1,0.6542810889950488,488.5984862400219,None,489.24742050111524,None,None,None,None,,08,001,2023_Jan_18_1708,searchDisc5,2021.2.3,59.93985419321621,
images/exp2b_trial_185_colour3_distractors1_l.png,l,1,3,1,0,,,,,0,194,194,194,,,,,,,,,,,,,,,,,,,,,,,,,,,,,,,,,,,,,,,,,,,489.2618361780187,None,2,0.3886254459794145,489.2618361780187,None,,,,,,,,,,,,,,,,None,None,None,,None,None,489.6984337210015,None,1,1,0.9360360199934803,489.6984337210015,None,490.62945792111566,None,None,None,None,,08,001,2023_Jan_18_1708,searchDisc5,2021.2.3,59.93985419321621,
images/exp2a_trial_51_colour1_distractors31_l.png,l,1,1,31,0,,,,,0,195,195,195,,,,,,,,,,,,,,,,,,,,,,,,,,,,,,,,,,,,,,,,,,,490.6466461470118,None,2,0.25461463700048625,490.6466461470118,None,,,,,,,,,,,,,,,,None,None,None,,None,None,490.9465619389957,None,1,1,0.7017680240096524,490.9465619389957,None,491.64617493309777,None,None,None,None,,08,001,2023_Jan_18_1708,searchDisc5,2021.2.3,59.93985419321621,
images/exp2b_trial_154_colour3_distractors4_l.png,l,1,3,4,0,,,,,0,196,196,196,,,,,,,,,,,,,,,,,,,,,,,,,,,,,,,,,,,,,,,,,,,491.6632159970177,None,2,0.7905408180085942,491.6632159970177,None,,,,,,,,,,,,,,,,None,None,None,,None,None,492.4988980909984,None,1,1,0.8682046599860769,492.4988980909984,None,493.36299377910325,None,None,None,None,,08,001,2023_Jan_18_1708,searchDisc5,2021.2.3,59.93985419321621,
images/exp2c_trial_44_colour3_distractors9_r.png,r,3,3,9,0,,,,,0,197,197,197,,,,,,,,,,,,,,,,,,,,,,,,,,,,,,,,,,,,,,,,,,,493.37941960801254,None,2,0.304374455998186,493.37941960801254,None,,,,,,,,,,,,,,,,None,None,None,,None,None,493.73228722502245,None,3,1,1.1199789679958485,493.73228722502245,None,494.8462555531063,None,None,None,None,,08,001,2023_Jan_18_1708,searchDisc5,2021.2.3,59.93985419321621,
images/exp2c_trial_245_colour2_distractors4_l.png,l,1,2,4,0,,,,,0,198,198,198,,,,,,,,,,,,,,,,,,,,,,,,,,,,,,,,,,,,,,,,,,,494.86341894001816,None,2,0.407143880991498,494.86341894001816,None,,,,,,,,,,,,,,,,None,None,None,,None,None,495.31602886499604,None,1,1,0.9843833179911599,495.31602886499604,None,496.29618620611143,None,None,None,None,,08,001,2023_Jan_18_1708,searchDisc5,2021.2.3,59.93985419321621,
images/exp2a_trial_182_colour2_distractors9_l.png,l,1,2,9,0,,,,,0,199,199,199,,,,,,,,,,,,,,,,,,,,,,,,,,,,,,,,,,,,,,,,,,,496.312815828016,None,2,0.30661199198220856,496.312815828016,None,,,,,,,,,,,,,,,,None,None,None,,None,None,496.66304397801287,None,1,1,0.7312370490108151,496.66304397801287,None,497.396343910112,None,None,None,None,,08,001,2023_Jan_18_1708,searchDisc5,2021.2.3,59.93985419321621,
images/exp2a_trial_303_colour1_distractors1_l.png,l,1,1,1,0,,,,,0,200,200,200,,,,,,,,,,,,,,,,,,,,,,,,,,,,,,,,,,,,,,,,,,,497.4159228829958,None,2,0.3056878999923356,497.4159228829958,None,,,,,,,,,,,,,,,,None,None,None,,None,None,497.76416669701575,None,1,1,0.6383297579886857,497.76416669701575,None,498.39835901512413,None,None,None,None,,08,001,2023_Jan_18_1708,searchDisc5,2021.2.3,59.93985419321621,
images/exp2b_trial_208_colour1_distractors4_l.png,l,1,1,4,0,,,,,0,201,201,201,,,,,,,,,,,,,,,,,,,,,,,,,,,,,,,,,,,,,,,,,,,498.41561763201025,None,2,0.2717644590011332,498.41561763201025,None,,,,,,,,,,,,,,,,None,None,None,,None,None,498.72959441001876,None,1,1,0.601487667998299,498.72959441001876,None,499.3297756751184,None,None,None,None,,08,001,2023_Jan_18_1708,searchDisc5,2021.2.3,59.93985419321621,
images/exp2c_trial_42_colour3_distractors1_r.png,r,3,3,1,0,,,,,0,202,202,202,,,,,,,,,,,,,,,,,,,,,,,,,,,,,,,,,,,,,,,,,,,499.346914046997,None,2,0.6720448980049696,499.346914046997,None,,,,,,,,,,,,,,,,None,None,None,,None,None,500.0632342870231,None,3,1,0.7861836039810441,500.0632342870231,None,500.84631374211165,None,None,None,None,,08,001,2023_Jan_18_1708,searchDisc5,2021.2.3,59.93985419321621,
images/exp2c_trial_37_colour2_distractors1_r.png,r,3,2,1,0,,,,,0,203,203,203,,,,,,,,,,,,,,,,,,,,,,,,,,,,,,,,,,,,,,,,,,,500.8635587330209,None,2,0.35530613298760727,500.8635587330209,None,,,,,,,,,,,,,,,,None,None,None,,None,None,501.2651734140236,None,3,1,0.7215936150169,501.2651734140236,None,501.98079543409983,None,None,None,None,,08,001,2023_Jan_18_1708,searchDisc5,2021.2.3,59.93985419321621,
images/exp2c_trial_16_colour1_distractors4_l.png,l,1,1,4,0,,,,,0,204,204,204,,,,,,,,,,,,,,,,,,,,,,,,,,,,,,,,,,,,,,,,,,,501.9969677500194,None,2,0.2699426439939998,501.9969677500194,None,,,,,,,,,,,,,,,,None,None,None,,None,None,502.31416159000946,None,1,1,0.7376953610219061,502.31416159000946,None,503.04655712811507,None,None,None,None,,08,001,2023_Jan_18_1708,searchDisc5,2021.2.3,59.93985419321621,
images/exp2c_trial_290_colour1_distractors9_r.png,r,3,1,9,0,,,,,0,205,205,205,,,,,,,,,,,,,,,,,,,,,,,,,,,,,,,,,,,,,,,,,,,503.06302216401673,None,2,0.28756321902619675,503.06302216401673,None,,,,,,,,,,,,,,,,None,None,None,,None,None,503.39666230001603,None,3,1,0.670527754991781,503.39666230001603,None,504.0632344141253,None,None,None,None,,08,001,2023_Jan_18_1708,searchDisc5,2021.2.3,59.93985419321621,
images/exp2a_trial_259_colour1_distractors19_r.png,r,3,1,19,0,,,,,0,206,206,206,,,,,,,,,,,,,,,,,,,,,,,,,,,,,,,,,,,,,,,,,,,504.0803092250135,None,2,0.25456289801513776,504.0803092250135,None,,,,,,,,,,,,,,,,None,None,None,,None,None,504.3807569210185,None,3,1,0.6686879199987743,504.3807569210185,None,505.046609777119,None,None,None,None,,08,001,2023_Jan_18_1708,searchDisc5,2021.2.3,59.93985419321621,
images/exp2c_trial_150_colour2_distractors9_l.png,l,1,2,9,0,,,,,0,207,207,207,,,,,,,,,,,,,,,,,,,,,,,,,,,,,,,,,,,,,,,,,,,505.0662617680209,None,2,0.23874652301310562,505.0662617680209,None,,,,,,,,,,,,,,,,None,None,None,,None,None,505.3470742010104,None,1,1,0.6868008399906103,505.3470742010104,None,506.0309619741223,None,None,None,None,,08,001,2023_Jan_18_1708,searchDisc5,2021.2.3,59.93985419321621,
images/exp2b_trial_15_colour1_distractors1_l.png,l,1,1,1,0,,,,,0,208,208,208,,,,,,,,,,,,,,,,,,,,,,,,,,,,,,,,,,,,,,,,,,,506.04684259401984,None,2,0.25540093501331285,506.04684259401984,None,,,,,,,,,,,,,,,,None,None,None,,None,None,506.34688085800735,None,1,1,0.7387319590197876,506.34688085800735,None,507.08113529510445,None,None,None,None,,08,001,2023_Jan_18_1708,searchDisc5,2021.2.3,59.93985419321621,
images/exp1a_trial_227_colour1_distractors19_r.png,r,3,1,19,0,,,,,0,209,209,209,,,,,,,,,,,,,,,,,,,,,,,,,,,,,,,,,,,,,,,,,,,507.09653753601015,None,2,0.5357414169993717,507.09653753601015,None,,,,,,,,,,,,,,,,None,None,None,,None,None,507.68073524101055,None,3,1,0.7997823730111122,507.68073524101055,None,508.48043453111893,None,None,None,None,,08,001,2023_Jan_18_1708,searchDisc5,2021.2.3,59.93985419321621,
images/exp2a_trial_273_colour1_distractors9_l.png,l,1,1,9,0,,,,,0,210,210,210,,,,,,,,,,,,,,,,,,,,,,,,,,,,,,,,,,,,,,,,,,,508.49652230000356,None,2,0.2207683929882478,508.49652230000356,None,,,,,,,,,,,,,,,,None,None,None,,None,None,508.7660468039976,None,1,1,0.6532242780085653,508.7660468039976,None,509.41319950912145,None,None,None,None,,08,001,2023_Jan_18_1708,searchDisc5,2021.2.3,59.93985419321621,
images/exp2b_trial_284_colour3_distractors19_l.png,l,1,3,19,0,,,,,0,211,211,211,,,,,,,,,,,,,,,,,,,,,,,,,,,,,,,,,,,,,,,,,,,509.4297997360118,None,2,0.23757890000706539,509.4297997360118,None,,,,,,,,,,,,,,,,None,None,None,,None,None,509.7142126740073,None,3,0,0.5031542850192636,509.7142126740073,None,510.21340423610525,None,None,None,None,,08,001,2023_Jan_18_1708,searchDisc5,2021.2.3,59.93985419321621,
images/exp2c_trial_115_colour1_distractors31_l.png,l,1,1,31,0,,,,,0,212,212,212,,,,,,,,,,,,,,,,,,,,,,,,,,,,,,,,,,,,,,,,,,,510.2305844229995,None,2,0.6046021709917113,510.2305844229995,None,,,,,,,,,,,,,,,,None,None,None,,None,None,510.88214260400855,None,1,1,0.9021391900023445,510.88214260400855,None,511.78015643312244,None,None,None,None,,08,001,2023_Jan_18_1708,searchDisc5,2021.2.3,59.93985419321621,
images/exp2b_trial_43_colour3_distractors4_r.png,r,3,3,4,0,,,,,0,213,213,213,,,,,,,,,,,,,,,,,,,,,,,,,,,,,,,,,,,,,,,,,,,511.7967737489962,None,2,0.3038354479940608,511.7967737489962,None,,,,,,,,,,,,,,,,None,None,None,,None,None,512.1471725949959,None,3,1,0.7534260330139659,512.1471725949959,None,512.8968681461178,None,None,None,None,,08,001,2023_Jan_18_1708,searchDisc5,2021.2.3,59.93985419321621,
images/exp2a_trial_180_colour2_distractors1_l.png,l,1,2,1,0,,,,,0,214,214,214,,,,,,,,,,,,,,,,,,,,,,,,,,,,,,,,,,,,,,,,,,,512.915332796023,None,2,0.27196970299701206,512.915332796023,None,,,,,,,,,,,,,,,,None,None,None,,None,None,513.2301738100068,None,1,1,0.6865946460166015,513.2301738100068,None,513.9132691901235,None,None,None,None,,08,001,2023_Jan_18_1708,searchDisc5,2021.2.3,59.93985419321621,
images/exp2a_trial_247_colour2_distractors19_l.png,l,1,2,19,0,,,,,0,215,215,215,,,,,,,,,,,,,,,,,,,,,,,,,,,,,,,,,,,,,,,,,,,513.9300315710134,None,2,0.25479991000611335,513.9300315710134,None,,,,,,,,,,,,,,,,None,None,None,,None,None,514.2303118520067,None,1,1,0.7969257040240336,514.2303118520067,None,515.0301940551202,None,None,None,None,,08,001,2023_Jan_18_1708,searchDisc5,2021.2.3,59.93985419321621,
images/exp2c_trial_267_colour3_distractors4_r.png,r,3,3,4,0,,,,,0,216,216,216,,,,,,,,,,,,,,,,,,,,,,,,,,,,,,,,,,,,,,,,,,,515.0475985149969,None,2,0.305164669000078,515.0475985149969,None,,,,,,,,,,,,,,,,None,None,None,,None,None,515.3962278270046,None,3,1,0.6864321299945004,515.3962278270046,None,516.0802459130995,None,None,None,None,,08,001,2023_Jan_18_1708,searchDisc5,2021.2.3,59.93985419321621,
images/exp1a_trial_281_colour3_distractors1_l.png,l,1,3,1,0,,,,,0,217,217,217,,,,,,,,,,,,,,,,,,,,,,,,,,,,,,,,,,,,,,,,,,,516.0975135250192,None,2,0.2553151549946051,516.0975135250192,None,,,,,,,,,,,,,,,,None,None,None,,None,None,516.3976726100082,None,1,1,0.6706330559973139,516.3976726100082,None,517.0636115081201,None,None,None,None,,08,001,2023_Jan_18_1708,searchDisc5,2021.2.3,59.93985419321621,
images/exp1a_trial_309_colour2_distractors4_l.png,l,1,2,4,0,,,,,0,218,218,218,,,,,,,,,,,,,,,,,,,,,,,,,,,,,,,,,,,,,,,,,,,517.0801081760146,None,2,0.2731224590097554,517.0801081760146,None,,,,,,,,,,,,,,,,None,None,None,,None,None,517.3989766660088,None,1,1,0.7043697240005713,517.3989766660088,None,518.098025726102,None,None,None,None,,08,001,2023_Jan_18_1708,searchDisc5,2021.2.3,59.93985419321621,
images/exp2b_trial_23_colour2_distractors19_l.png,l,1,2,19,0,,,,,0,219,219,219,,,,,,,,,,,,,,,,,,,,,,,,,,,,,,,,,,,,,,,,,,,518.1141458160128,None,2,0.25219489200389944,518.1141458160128,None,,,,,,,,,,,,,,,,None,None,None,,None,None,518.4146802909963,None,1,1,1.1174136719782837,518.4146802909963,None,519.5302656821208,None,None,None,None,,08,001,2023_Jan_18_1708,searchDisc5,2021.2.3,59.93985419321621,
images/exp2a_trial_76_colour3_distractors9_r.png,r,3,3,9,0,,,,,0,220,220,220,,,,,,,,,,,,,,,,,,,,,,,,,,,,,,,,,,,,,,,,,,,519.5493467580236,None,2,0.2555672379967291,519.5493467580236,None,,,,,,,,,,,,,,,,None,None,None,,None,None,519.8479838720232,None,3,1,0.7856839399901219,519.8479838720232,None,520.630278576113,None,None,None,None,,08,001,2023_Jan_18_1708,searchDisc5,2021.2.3,59.93985419321621,
images/exp2c_trial_288_colour1_distractors1_r.png,r,3,1,1,0,,,,,0,221,221,221,,,,,,,,,,,,,,,,,,,,,,,,,,,,,,,,,,,,,,,,,,,520.6474450929963,None,2,0.28807624999899417,520.6474450929963,None,,,,,,,,,,,,,,,,None,None,None,,None,None,520.9809279440087,None,3,1,0.6369242629734799,520.9809279440087,None,521.6137131171184,None,None,None,None,,08,001,2023_Jan_18_1708,searchDisc5,2021.2.3,59.93985419321621,
images/exp2a_trial_4_colour1_distractors31_r.png,r,3,1,31,0,,,,,0,222,222,222,,,,,,,,,,,,,,,,,,,,,,,,,,,,,,,,,,,,,,,,,,,521.6308219160128,None,2,0.22399193301680498,521.6308219160128,None,,,,,,,,,,,,,,,,None,None,None,,None,None,521.8994246399961,None,3,1,0.6307910580071621,521.8994246399961,None,522.5303706800972,None,None,None,None,,08,001,2023_Jan_18_1708,searchDisc5,2021.2.3,59.93985419321621,
images/exp2c_trial_20_colour2_distractors1_l.png,l,1,2,1,0,,,,,0,223,223,223,,,,,,,,,,,,,,,,,,,,,,,,,,,,,,,,,,,,,,,,,,,522.5479041830113,None,2,0.3041790720017161,522.5479041830113,None,,,,,,,,,,,,,,,,None,None,None,,None,None,522.8981315669953,None,1,1,0.7381790509971324,522.8981315669953,None,523.6304364541196,None,None,None,None,,08,001,2023_Jan_18_1708,searchDisc5,2021.2.3,59.93985419321621,
images/exp2b_trial_29_colour3_distractors31_l.png,l,1,3,31,0,,,,,0,224,224,224,,,,,,,,,,,,,,,,,,,,,,,,,,,,,,,,,,,,,,,,,,,523.6468826850178,None,2,1.1553779490059242,523.6468826850178,None,,,,,,,,,,,,,,,,None,None,None,,None,None,524.8501911700005,None,1,1,0.7346772449964192,524.8501911700005,None,525.5806426231051,None,None,None,None,,08,001,2023_Jan_18_1708,searchDisc5,2021.2.3,59.93985419321621,
