ImageFile,targ_side,correctAnswer,colour,distNo,targetType,trials_2.thisRepN,trials_2.thisTrialN,trials_2.thisN,trials_2.thisIndex,trials.thisRepN,trials.thisTrialN,trials.thisN,trials.thisIndex,text_6.started,text_6.stopped,buttonBox.keys,buttonBox.rt,buttonBox.started,buttonBox.stopped,text_7.started,text_7.stopped,buttonBox_3.keys,buttonBox_3.rt,buttonBox_3.started,buttonBox_3.stopped,text_8.started,text_8.stopped,buttonBox_4.keys,buttonBox_4.rt,buttonBox_4.started,buttonBox_4.stopped,text_9.started,text_9.stopped,buttonBox_5.keys,buttonBox_5.rt,buttonBox_5.started,buttonBox_5.stopped,text_2.started,text_2.stopped,buttonBox_6.keys,buttonBox_6.rt,buttonBox_6.started,buttonBox_6.stopped,text_5.started,text_5.stopped,buttonBox_7.keys,buttonBox_7.rt,image_2.started,image_2.stopped,image_3.started,image_3.stopped,buttonBox_8.keys,buttonBox_8.rt,buttonBox_8.started,buttonBox_8.stopped,polygon.started,polygon.stopped,buttonBox_9.keys,buttonBox_9.rt,buttonBox_9.started,buttonBox_9.stopped,image.started,image.stopped,buttonBox_10.keys,buttonBox_10.corr,buttonBox_10.rt,buttonBox_10.started,buttonBox_10.stopped,text_4.started,text_4.stopped,text.started,text.stopped,buttonBox_11.keys,buttonBox_11.rt,buttonBox_11.started,buttonBox_11.stopped,targetTypeInstruction.started,targetTypeInstruction.stopped,buttonBox_2.keys,buttonBox_2.rt,buttonBox_2.started,buttonBox_2.stopped,dispStimuli.started,dispStimuli.stopped,buttonBox_12.keys,buttonBox_12.corr,buttonBox_12.rt,buttonBox_12.started,buttonBox_12.stopped,breakMessage.started,breakMessage.stopped,buttonBox_13.keys,buttonBox_13.started,buttonBox_13.stopped,buttonBox_13.rt,participant,session,date,expName,psychopyVersion,frameRate,
,,,,,,,,,,,,,,138.0365679670067,None,2,31.065711799019482,138.0365679670067,None,,,,,,,,,,,,,,,,,,,,,,,,,,,,,,,,,,,,,,,,,,,,,,,,,,,,,,,,,,,,,,,,,,,,,,,,,,,,,10,001,2023_Jan_19_1151,searchDisc5,2021.2.3,59.98605492026564,
,,,,,,,,,,,,,,,,,,,,169.10230819598655,None,2,9.481258923013229,169.10230819598655,None,,,,,,,,,,,,,,,,,,,,,,,,,,,,,,,,,,,,,,,,,,,,,,,,,,,,,,,,,,,,,,,,,,,,,,,10,001,2023_Jan_19_1151,searchDisc5,2021.2.3,59.98605492026564,
,,,,,,,,,,,,,,,,,,,,,,,,,,178.58580088499002,None,2,11.351755573006812,178.58580088499002,None,,,,,,,,,,,,,,,,,,,,,,,,,,,,,,,,,,,,,,,,,,,,,,,,,,,,,,,,,,,,,,,,,10,001,2023_Jan_19_1151,searchDisc5,2021.2.3,59.98605492026564,
,,,,,,,,,,,,,,,,,,,,,,,,,,,,,,,,189.93558842199855,None,2,8.110954537027283,189.93558842199855,None,,,,,,,,,,,,,,,,,,,,,,,,,,,,,,,,,,,,,,,,,,,,,,,,,,,,,,,,,,,10,001,2023_Jan_19_1151,searchDisc5,2021.2.3,59.98605492026564,
,,,,,,,,,,,,,,,,,,,,,,,,,,,,,,,,,,,,,,198.0530439360009,None,2,5.098216896993108,199.03822564097936,None,,,,,,,,,,,,,,,,,,,,,,,,,,,,,,,,,,,,,,,,,,,,,,,,,,,,,10,001,2023_Jan_19_1151,searchDisc5,2021.2.3,59.98605492026564,
,,,,,,,,,,,,,,,,,,,,,,,,,,,,,,,,,,,,,,,,,,,,204.13630710498546,None,2,6.7170064139936585,,,,,,,,,,,,,,,,,,,,,,,,,,,,,,,,,,,,,,,,,,,,,,,,,10,001,2023_Jan_19_1151,searchDisc5,2021.2.3,59.98605492026564,
,,,,,,,,,,,,,,,,,,,,,,,,,,,,,,,,,,,,,,,,,,,,,,,,213.85604576798505,None,213.85604576798505,None,2,5.579949303006288,213.85604576798505,None,,,,,,,,,,,,,,,,,,,,,,,,,,,,,,,,,,,,,,,,,10,001,2023_Jan_19_1151,searchDisc5,2021.2.3,59.98605492026564,
Practice arrays/exp1a_trial_8_colour2_distractors19_r.png,r,3,,,,0,0,0,3,,,,,,,,,,,,,,,,,,,,,,,,,,,,,,,,,,,,,,,,,,,,,,,219.47031797099044,None,2,6.035299709998071,219.47031797099044,None,225.5537704929884,None,3,1,1.270468714996241,225.5537704929884,None,226.82000757197966,None,,,,,,,,,,,,,,,,,,,,,,,,,,10,001,2023_Jan_19_1151,searchDisc5,2021.2.3,59.98605492026564,
Practice arrays/exp1a_trial_23_colour2_distractors19_l.png,l,1,,,,0,1,1,10,,,,,,,,,,,,,,,,,,,,,,,,,,,,,,,,,,,,,,,,,,,,,,,228.82267898699502,None,2,1.8641164879954886,228.82267898699502,None,230.73762596500455,None,1,1,0.718320126994513,230.73762596500455,None,231.4539811629802,None,,,,,,,,,,,,,,,,,,,,,,,,,,10,001,2023_Jan_19_1151,searchDisc5,2021.2.3,59.98605492026564,
Practice arrays/exp1a_trial_21_colour2_distractors4_l.png,l,1,,,,0,2,2,9,,,,,,,,,,,,,,,,,,,,,,,,,,,,,,,,,,,,,,,,,,,,,,,233.4561377579812,None,2,1.1804915230022743,233.4561377579812,None,234.68956619498204,None,1,1,0.7052627809753176,234.68956619498204,None,235.38740486098686,None,,,,,,,,,,,,,,,,,,,,,,,,,,10,001,2023_Jan_19_1151,searchDisc5,2021.2.3,59.98605492026564,
Practice arrays/exp1a_trial_16_colour1_distractors4_l.png,l,1,,,,0,3,3,13,,,,,,,,,,,,,,,,,,,,,,,,,,,,,,,,,,,,,,,,,,,,,,,237.38942126597976,None,2,0.9337059929966927,237.38942126597976,None,238.3724961479893,None,1,1,1.6160682170011569,238.3724961479893,None,239.98761715498404,None,,,,,,,,,,,,,,,,,,,,,,,,,,10,001,2023_Jan_19_1151,searchDisc5,2021.2.3,59.98605492026564,
Practice arrays/exp1a_trial_0_colour1_distractors1_r.png,r,3,,,,0,4,4,0,,,,,,,,,,,,,,,,,,,,,,,,,,,,,,,,,,,,,,,,,,,,,,,241.9893409340002,None,2,2.5657573679927737,241.9893409340002,None,244.60670118799317,None,3,1,1.5540513879968785,244.60670118799317,None,246.15439976399648,None,,,,,,,,,,,,,,,,,,,,,,,,,,10,001,2023_Jan_19_1151,searchDisc5,2021.2.3,59.98605492026564,
Practice arrays/exp1a_trial_1_colour1_distractors4_r.png,r,3,,,,0,5,5,1,,,,,,,,,,,,,,,,,,,,,,,,,,,,,,,,,,,,,,,,,,,,,,,248.1566457680019,None,2,1.5471131310041528,248.1566457680019,None,249.75660748398514,None,3,1,1.0190381720021833,249.75660748398514,None,250.77120968297822,None,,,,,,,,,,,,,,,,,,,,,,,,,,10,001,2023_Jan_19_1151,searchDisc5,2021.2.3,59.98605492026564,
Practice arrays/exp1a_trial_14_colour3_distractors31_r.png,r,3,,,,0,6,6,6,,,,,,,,,,,,,,,,,,,,,,,,,,,,,,,,,,,,,,,,,,,,,,,252.77294554098626,None,2,1.0137372490135022,252.77294554098626,None,253.8382245579851,None,3,1,0.7011627730098553,253.8382245579851,None,254.53805540999747,None,,,,,,,,,,,,,,,,,,,,,,,,,,10,001,2023_Jan_19_1151,searchDisc5,2021.2.3,59.98605492026564,
Practice arrays/exp1a_trial_27_colour3_distractors9_l.png,l,1,,,,0,7,7,12,,,,,,,,,,,,,,,,,,,,,,,,,,,,,,,,,,,,,,,,,,,,,,,256.5399013609858,None,2,0.6800119349791203,256.5399013609858,None,257.2731182189891,None,1,1,0.6379101400088985,257.2731182189891,None,257.90455617097905,None,,,,,,,,,,,,,,,,,,,,,,,,,,10,001,2023_Jan_19_1151,searchDisc5,2021.2.3,59.98605492026564,
Practice arrays/exp1a_trial_12_colour3_distractors9_r.png,r,3,,,,0,8,8,5,,,,,,,,,,,,,,,,,,,,,,,,,,,,,,,,,,,,,,,,,,,,,,,259.906855779991,None,2,0.6638198219879996,259.906855779991,None,260.62284415299655,None,3,1,0.5717002619931009,260.62284415299655,None,261.1880914020003,None,,,,,,,,,,,,,,,,,,,,,,,,,,10,001,2023_Jan_19_1151,searchDisc5,2021.2.3,59.98605492026564,
Practice arrays/exp1a_trial_10_colour3_distractors1_r.png,r,3,,,,0,9,9,4,,,,,,,,,,,,,,,,,,,,,,,,,,,,,,,,,,,,,,,,,,,,,,,263.1901868809946,None,2,0.949331360985525,263.1901868809946,None,264.1902533019893,None,3,1,0.7869324380008038,264.1902533019893,None,264.9715678030043,None,,,,,,,,,,,,,,,,,,,,,,,,,,10,001,2023_Jan_19_1151,searchDisc5,2021.2.3,59.98605492026564,
Practice arrays/exp1a_trial_30_colour0_distractors0_r.png,r,3,,,,0,10,10,14,,,,,,,,,,,,,,,,,,,,,,,,,,,,,,,,,,,,,,,,,,,,,,,266.97331659297924,None,2,0.8469699339766521,266.97331659297924,None,267.8734043069999,None,3,1,0.47315347401308827,267.8734043069999,None,268.33833091298584,None,,,,,,,,,,,,,,,,,,,,,,,,,,10,001,2023_Jan_19_1151,searchDisc5,2021.2.3,59.98605492026564,
Practice arrays/exp1a_trial_17_colour1_distractors9_l.png,l,1,,,,0,11,11,7,,,,,,,,,,,,,,,,,,,,,,,,,,,,,,,,,,,,,,,,,,,,,,,270.3400217659946,None,2,1.0470106519933324,270.3400217659946,None,271.44075771799544,None,1,1,0.47234841602039523,271.44075771799544,None,271.9049715559813,None,,,,,,,,,,,,,,,,,,,,,,,,,,10,001,2023_Jan_19_1151,searchDisc5,2021.2.3,59.98605492026564,
Practice arrays/exp1a_trial_7_colour2_distractors9_r.png,r,3,,,,0,12,12,2,,,,,,,,,,,,,,,,,,,,,,,,,,,,,,,,,,,,,,,,,,,,,,,273.90720647299895,None,2,0.5327602330071386,273.90720647299895,None,274.48883254200337,None,3,1,0.5370933349768165,274.48883254200337,None,275.0219918199873,None,,,,,,,,,,,,,,,,,,,,,,,,,,10,001,2023_Jan_19_1151,searchDisc5,2021.2.3,59.98605492026564,
Practice arrays/exp1a_trial_31_colour0_distractors0_l.png,l,1,,,,0,13,13,15,,,,,,,,,,,,,,,,,,,,,,,,,,,,,,,,,,,,,,,,,,,,,,,277.0239652019809,None,2,1.063862353010336,277.0239652019809,None,278.1401104639808,None,1,1,0.35602789602125995,278.1401104639808,None,278.4885245009791,None,,,,,,,,,,,,,,,,,,,,,,,,,,10,001,2023_Jan_19_1151,searchDisc5,2021.2.3,59.98605492026564,
Practice arrays/exp1a_trial_18_colour1_distractors19_l.png,l,1,,,,0,14,14,8,,,,,,,,,,,,,,,,,,,,,,,,,,,,,,,,,,,,,,,,,,,,,,,280.4906747129862,None,2,0.8137947359937243,280.4906747129862,None,281.3575584409991,None,1,1,0.7688088419963606,281.3575584409991,None,282.1219290579902,None,,,,,,,,,,,,,,,,,,,,,,,,,,10,001,2023_Jan_19_1151,searchDisc5,2021.2.3,59.98605492026564,
Practice arrays/exp1a_trial_25_colour3_distractors1_l.png,l,1,,,,0,15,15,11,,,,,,,,,,,,,,,,,,,,,,,,,,,,,,,,,,,,,,,,,,,,,,,284.1241214610054,None,2,1.0826296239974909,284.1241214610054,None,285.2574711339839,None,1,1,0.7707164059975185,285.2574711339839,None,286.0220152559923,None,,,,,,,,,,,,,,,,,,,,,,,,,,10,001,2023_Jan_19_1151,searchDisc5,2021.2.3,59.98605492026564,
,,,,,,,,,,,,,,,,,,,,,,,,,,,,,,,,,,,,,,,,,,,,,,,,,,,,,,,,,,,,,,,,,,,,,,,288.1069571340049,None,2,4.916977415996371,289.0901585239917,None,,,,,,,,,,,,,,,,,,,,10,001,2023_Jan_19_1151,searchDisc5,2021.2.3,59.98605492026564,
images/exp1a_trial_129_colour1_distractors4_r.png,r,3,1,4,0,,,,,0,0,0,0,,,,,,,,,,,,,,,,,,,,,,,,,,,,,,,,,,,,,,,,,,,298.90589735200047,None,2,1.4953645320201758,298.90589735200047,None,,,,,,,,,,,,,,,,294.60758756898576,None,2,2.3146491709921975,296.5908887629921,None,300.4631063340057,None,3,1,0.5488747069903184,300.4631063340057,None,301.0223913488037,None,None,None,None,,10,001,2023_Jan_19_1151,searchDisc5,2021.2.3,59.98605492026564,
images/exp2b_trial_60_colour3_distractors19_l.png,l,1,3,19,0,,,,,0,1,1,1,,,,,,,,,,,,,,,,,,,,,,,,,,,,,,,,,,,,,,,,,,,301.0388815809856,None,2,1.3873281520209275,301.0388815809856,None,,,,,,,,,,,,,,,,None,None,None,,None,None,302.4722352529934,None,1,1,0.9717331129941158,302.4722352529934,None,303.43903802240095,None,None,None,None,,10,001,2023_Jan_19_1151,searchDisc5,2021.2.3,59.98605492026564,
images/exp2a_trial_173_colour3_distractors19_r.png,r,3,3,19,0,,,,,0,2,2,2,,,,,,,,,,,,,,,,,,,,,,,,,,,,,,,,,,,,,,,,,,,303.4552768699941,None,2,1.4181745350069832,303.4552768699941,None,,,,,,,,,,,,,,,,None,None,None,,None,None,304.9224267739919,None,3,1,0.7836573800013866,304.9224267739919,None,305.7058912784065,None,None,None,None,,10,001,2023_Jan_19_1151,searchDisc5,2021.2.3,59.98605492026564,
images/exp2c_trial_84_colour2_distractors1_l.png,l,1,2,1,0,,,,,0,3,3,3,,,,,,,,,,,,,,,,,,,,,,,,,,,,,,,,,,,,,,,,,,,305.72253753698897,None,2,1.2059040470048785,305.72253753698897,None,,,,,,,,,,,,,,,,None,None,None,,None,None,306.97480267699575,None,1,1,0.6869840729923453,306.97480267699575,None,307.6559617083782,None,None,None,None,,10,001,2023_Jan_19_1151,searchDisc5,2021.2.3,59.98605492026564,
images/exp2c_trial_92_colour3_distractors19_l.png,l,1,3,19,0,,,,,0,4,4,4,,,,,,,,,,,,,,,,,,,,,,,,,,,,,,,,,,,,,,,,,,,307.6747827609943,None,2,1.1702049820160028,307.6747827609943,None,,,,,,,,,,,,,,,,None,None,None,,None,None,308.8893854619819,None,1,1,0.801713339984417,308.8893854619819,None,309.6892683013954,None,None,None,None,,10,001,2023_Jan_19_1151,searchDisc5,2021.2.3,59.98605492026564,
images/exp2b_trial_242_colour1_distractors19_l.png,l,1,1,19,0,,,,,0,5,5,5,,,,,,,,,,,,,,,,,,,,,,,,,,,,,,,,,,,,,,,,,,,309.70534415799193,None,2,1.0546113690070342,309.70534415799193,None,,,,,,,,,,,,,,,,None,None,None,,None,None,310.80643768800655,None,1,1,0.7185452899720985,310.80643768800655,None,311.52259390639085,None,None,None,None,,10,001,2023_Jan_19_1151,searchDisc5,2021.2.3,59.98605492026564,
images/exp1a_trial_194_colour1_distractors9_r.png,r,3,1,9,0,,,,,0,6,6,6,,,,,,,,,,,,,,,,,,,,,,,,,,,,,,,,,,,,,,,,,,,311.5413000389817,None,2,1.5235136229894124,311.5413000389817,None,,,,,,,,,,,,,,,,None,None,None,,None,None,313.1058221109852,None,3,1,0.885227558988845,313.1058221109852,None,313.9896459083917,None,None,None,None,,10,001,2023_Jan_19_1151,searchDisc5,2021.2.3,59.98605492026564,
images/exp2c_trial_78_colour3_distractors31_r.png,r,3,3,31,0,,,,,0,7,7,7,,,,,,,,,,,,,,,,,,,,,,,,,,,,,,,,,,,,,,,,,,,314.00608096600627,None,2,1.2543255840137135,314.00608096600627,None,,,,,,,,,,,,,,,,None,None,None,,None,None,315.3055295929953,None,3,1,0.8027138079924043,315.3055295929953,None,316.1061724693951,None,None,None,None,,10,001,2023_Jan_19_1151,searchDisc5,2021.2.3,59.98605492026564,
images/exp2a_trial_266_colour3_distractors1_r.png,r,3,3,1,0,,,,,0,8,8,8,,,,,,,,,,,,,,,,,,,,,,,,,,,,,,,,,,,,,,,,,,,316.122617282992,None,2,0.9534050970105454,316.122617282992,None,,,,,,,,,,,,,,,,None,None,None,,None,None,317.1246686069935,None,3,1,0.7198560459946748,317.1246686069935,None,317.8387640633824,None,None,None,None,,10,001,2023_Jan_19_1151,searchDisc5,2021.2.3,59.98605492026564,
images/exp2b_trial_240_colour1_distractors4_l.png,l,1,1,4,0,,,,,0,9,9,9,,,,,,,,,,,,,,,,,,,,,,,,,,,,,,,,,,,,,,,,,,,317.85585141400225,None,2,0.8708887510001659,317.85585141400225,None,,,,,,,,,,,,,,,,None,None,None,,None,None,318.77335492899874,None,1,1,0.6902910030039493,318.77335492899874,None,319.45614407640244,None,None,None,None,,10,001,2023_Jan_19_1151,searchDisc5,2021.2.3,59.98605492026564,
images/exp2a_trial_275_colour1_distractors31_l.png,l,1,1,31,0,,,,,0,10,10,10,,,,,,,,,,,,,,,,,,,,,,,,,,,,,,,,,,,,,,,,,,,319.4728658219974,None,2,0.9695784529903904,319.4728658219974,None,,,,,,,,,,,,,,,,None,None,None,,None,None,320.48942248299136,None,1,1,0.7213683960144408,320.48942248299136,None,321.2062320913916,None,None,None,None,,10,001,2023_Jan_19_1151,searchDisc5,2021.2.3,59.98605492026564,
images/exp1a_trial_125_colour3_distractors31_l.png,l,1,3,31,0,,,,,0,11,11,11,,,,,,,,,,,,,,,,,,,,,,,,,,,,,,,,,,,,,,,,,,,321.22271979399375,None,2,0.8523632859869394,321.22271979399375,None,,,,,,,,,,,,,,,,None,None,None,,None,None,322.1231555919803,None,1,1,0.7023562559916172,322.1231555919803,None,322.82299802639466,None,None,None,None,,10,001,2023_Jan_19_1151,searchDisc5,2021.2.3,59.98605492026564,
images/exp2c_trial_244_colour2_distractors1_l.png,l,1,2,1,0,,,,,0,12,12,12,,,,,,,,,,,,,,,,,,,,,,,,,,,,,,,,,,,,,,,,,,,322.83943220297806,None,2,0.7692320619826205,322.83943220297806,None,,,,,,,,,,,,,,,,None,None,None,,None,None,323.65816278898274,None,1,1,0.7559712030051742,323.65816278898274,None,324.4064193683822,None,None,None,None,,10,001,2023_Jan_19_1151,searchDisc5,2021.2.3,59.98605492026564,
images/exp2b_trial_85_colour2_distractors4_l.png,l,1,2,4,0,,,,,0,13,13,13,,,,,,,,,,,,,,,,,,,,,,,,,,,,,,,,,,,,,,,,,,,324.4225788299809,None,2,0.8377534900209866,324.4225788299809,None,,,,,,,,,,,,,,,,None,None,None,,None,None,325.306537122,None,1,1,0.6887720079976134,325.306537122,None,325.9896241453913,None,None,None,None,,10,001,2023_Jan_19_1151,searchDisc5,2021.2.3,59.98605492026564,
images/exp2c_trial_79_colour1_distractors1_l.png,l,1,1,1,0,,,,,0,14,14,14,,,,,,,,,,,,,,,,,,,,,,,,,,,,,,,,,,,,,,,,,,,326.00632654799847,None,2,0.7713555340014864,326.00632654799847,None,,,,,,,,,,,,,,,,None,None,None,,None,None,326.8256948670023,None,1,1,0.6902174529968761,326.8256948670023,None,327.5064312034025,None,None,None,None,,10,001,2023_Jan_19_1151,searchDisc5,2021.2.3,59.98605492026564,
images/exp1a_trial_169_colour2_distractors31_r.png,r,3,2,31,0,,,,,0,15,15,15,,,,,,,,,,,,,,,,,,,,,,,,,,,,,,,,,,,,,,,,,,,327.5234126379946,None,2,1.0212156850029714,327.5234126379946,None,,,,,,,,,,,,,,,,None,None,None,,None,None,328.5900396379875,None,3,1,0.916580321994843,328.5900396379875,None,329.50639142440343,None,None,None,None,,10,001,2023_Jan_19_1151,searchDisc5,2021.2.3,59.98605492026564,
images/exp2c_trial_35_colour1_distractors19_r.png,r,3,1,19,0,,,,,0,16,16,16,,,,,,,,,,,,,,,,,,,,,,,,,,,,,,,,,,,,,,,,,,,329.5230452439864,None,2,1.221222318999935,329.5230452439864,None,,,,,,,,,,,,,,,,None,None,None,,None,None,330.7898911649827,None,3,1,0.7366789319785312,330.7898911649827,None,331.5231399884011,None,None,None,None,,10,001,2023_Jan_19_1151,searchDisc5,2021.2.3,59.98605492026564,
images/exp2b_trial_272_colour1_distractors4_l.png,l,1,1,4,0,,,,,0,17,17,17,,,,,,,,,,,,,,,,,,,,,,,,,,,,,,,,,,,,,,,,,,,331.5393757690035,None,2,0.9734761560102925,331.5393757690035,None,,,,,,,,,,,,,,,,None,None,None,,None,None,332.558647111,None,1,1,0.7698868319857866,332.558647111,None,333.3232457804057,None,None,None,None,,10,001,2023_Jan_19_1151,searchDisc5,2021.2.3,59.98605492026564,
images/exp2c_trial_34_colour1_distractors9_r.png,r,3,1,9,0,,,,,0,18,18,18,,,,,,,,,,,,,,,,,,,,,,,,,,,,,,,,,,,,,,,,,,,333.3421581699804,None,2,0.9062053799862042,333.3421581699804,None,,,,,,,,,,,,,,,,None,None,None,,None,None,334.2921664789901,None,3,1,0.7187188509851694,334.2921664789901,None,335.0066087393876,None,None,None,None,,10,001,2023_Jan_19_1151,searchDisc5,2021.2.3,59.98605492026564,
images/exp2a_trial_186_colour3_distractors4_l.png,l,1,3,4,0,,,,,0,19,19,19,,,,,,,,,,,,,,,,,,,,,,,,,,,,,,,,,,,,,,,,,,,335.02274496798054,None,2,0.7732640189933591,335.02274496798054,None,,,,,,,,,,,,,,,,None,None,None,,None,None,335.84166004200233,None,1,1,0.6192838599963579,335.84166004200233,None,336.45608060138477,None,None,None,None,,10,001,2023_Jan_19_1151,searchDisc5,2021.2.3,59.98605492026564,
images/exp2b_trial_248_colour2_distractors31_l.png,l,1,2,31,0,,,,,0,20,20,20,,,,,,,,,,,,,,,,,,,,,,,,,,,,,,,,,,,,,,,,,,,336.4732725879876,None,2,0.6885255880188197,336.4732725879876,None,,,,,,,,,,,,,,,,None,None,None,,None,None,337.20684561500093,None,1,1,0.6027434700226877,337.20684561500093,None,337.80671846439657,None,None,None,None,,10,001,2023_Jan_19_1151,searchDisc5,2021.2.3,59.98605492026564,
images/exp2b_trial_188_colour3_distractors19_l.png,l,1,3,19,0,,,,,0,21,21,21,,,,,,,,,,,,,,,,,,,,,,,,,,,,,,,,,,,,,,,,,,,337.82538805599324,None,2,0.7376024709956255,337.82538805599324,None,,,,,,,,,,,,,,,,None,None,None,,None,None,338.60895632600295,None,1,1,0.5703624209854752,338.60895632600295,None,339.17333649838986,None,None,None,None,,10,001,2023_Jan_19_1151,searchDisc5,2021.2.3,59.98605492026564,
images/exp1a_trial_32_colour1_distractors1_r.png,r,3,1,1,0,,,,,0,22,22,22,,,,,,,,,,,,,,,,,,,,,,,,,,,,,,,,,,,,,,,,,,,339.189970929001,None,2,0.6879035739984829,339.189970929001,None,,,,,,,,,,,,,,,,None,None,None,,None,None,339.92329098598566,None,3,1,0.7545219259918667,339.92329098598566,None,340.6732950584061,None,None,None,None,,10,001,2023_Jan_19_1151,searchDisc5,2021.2.3,59.98605492026564,
images/exp2b_trial_292_colour1_distractors31_r.png,r,3,1,31,0,,,,,0,23,23,23,,,,,,,,,,,,,,,,,,,,,,,,,,,,,,,,,,,,,,,,,,,340.69002657200326,None,2,0.6881061499880161,340.69002657200326,None,,,,,,,,,,,,,,,,None,None,None,,None,None,341.42371959099546,None,3,1,0.7031633139995392,341.42371959099546,None,342.1237775384012,None,None,None,None,,10,001,2023_Jan_19_1151,searchDisc5,2021.2.3,59.98605492026564,
images/exp1a_trial_137_colour2_distractors31_r.png,r,3,2,31,0,,,,,0,24,24,24,,,,,,,,,,,,,,,,,,,,,,,,,,,,,,,,,,,,,,,,,,,342.13932195300004,None,2,0.7202408360026311,342.13932195300004,None,,,,,,,,,,,,,,,,None,None,None,,None,None,342.9069185059925,None,3,1,0.916855587012833,342.9069185059925,None,343.8236048503983,None,None,None,None,,10,001,2023_Jan_19_1151,searchDisc5,2021.2.3,59.98605492026564,
images/exp1a_trial_201_colour2_distractors31_r.png,r,3,2,31,0,,,,,0,25,25,25,,,,,,,,,,,,,,,,,,,,,,,,,,,,,,,,,,,,,,,,,,,343.8415157579875,None,2,0.7900577250111382,343.8415157579875,None,,,,,,,,,,,,,,,,None,None,None,,None,None,344.67374870798085,None,3,1,0.6809667809866369,344.67374870798085,None,345.35699560040086,None,None,None,None,,10,001,2023_Jan_19_1151,searchDisc5,2021.2.3,59.98605492026564,
images/exp2b_trial_234_colour3_distractors1_r.png,r,3,3,1,0,,,,,0,26,26,26,,,,,,,,,,,,,,,,,,,,,,,,,,,,,,,,,,,,,,,,,,,345.37351821298944,None,2,0.7211507899919525,345.37351821298944,None,,,,,,,,,,,,,,,,None,None,None,,None,None,346.14235217199894,None,3,1,0.6886129289923701,346.14235217199894,None,346.8228326203913,None,None,None,None,,10,001,2023_Jan_19_1151,searchDisc5,2021.2.3,59.98605492026564,
images/exp2b_trial_229_colour2_distractors1_r.png,r,3,2,1,0,,,,,0,27,27,27,,,,,,,,,,,,,,,,,,,,,,,,,,,,,,,,,,,,,,,,,,,346.83993358397856,None,2,1.2738016189832706,346.83993358397856,None,,,,,,,,,,,,,,,,None,None,None,,None,None,348.15934979199665,None,3,1,0.6866566830140073,348.15934979199665,None,348.840233947392,None,None,None,None,,10,001,2023_Jan_19_1151,searchDisc5,2021.2.3,59.98605492026564,
images/exp2b_trial_310_colour2_distractors9_l.png,l,1,2,9,0,,,,,0,28,28,28,,,,,,,,,,,,,,,,,,,,,,,,,,,,,,,,,,,,,,,,,,,348.85900366998976,None,2,0.7567360610119067,348.85900366998976,None,,,,,,,,,,,,,,,,None,None,None,,None,None,349.6592155979888,None,1,1,0.6686487139959354,349.6592155979888,None,350.32334625439546,None,None,None,None,,10,001,2023_Jan_19_1151,searchDisc5,2021.2.3,59.98605492026564,
images/exp1a_trial_147_colour1_distractors31_l.png,l,1,1,31,0,,,,,0,29,29,29,,,,,,,,,,,,,,,,,,,,,,,,,,,,,,,,,,,,,,,,,,,350.3397941319854,None,2,0.7894668389926665,350.3397941319854,None,,,,,,,,,,,,,,,,None,None,None,,None,None,351.1754434329923,None,1,1,0.9659592419920955,351.1754434329923,None,352.14048764538313,None,None,None,None,,10,001,2023_Jan_19_1151,searchDisc5,2021.2.3,59.98605492026564,
images/exp2a_trial_196_colour1_distractors31_r.png,r,3,1,31,0,,,,,0,30,30,30,,,,,,,,,,,,,,,,,,,,,,,,,,,,,,,,,,,,,,,,,,,352.15676725198864,None,2,0.7876199719903525,352.15676725198864,None,,,,,,,,,,,,,,,,None,None,None,,None,None,352.9921752589871,None,3,1,0.602505372982705,352.9921752589871,None,353.59041566539383,None,None,None,None,,10,001,2023_Jan_19_1151,searchDisc5,2021.2.3,59.98605492026564,
images/exp2b_trial_44_colour3_distractors9_r.png,r,3,3,9,0,,,,,0,31,31,31,,,,,,,,,,,,,,,,,,,,,,,,,,,,,,,,,,,,,,,,,,,353.60916765397997,None,2,0.8074822280032095,353.60916765397997,None,,,,,,,,,,,,,,,,None,None,None,,None,None,354.4573186780035,None,3,1,0.8180354700016323,354.4573186780035,None,355.2738437863969,None,None,None,None,,10,001,2023_Jan_19_1151,searchDisc5,2021.2.3,59.98605492026564,
images/exp2b_trial_27_colour3_distractors9_l.png,l,1,3,9,0,,,,,0,32,32,32,,,,,,,,,,,,,,,,,,,,,,,,,,,,,,,,,,,,,,,,,,,355.2905489469995,None,2,0.6876097850035876,355.2905489469995,None,,,,,,,,,,,,,,,,None,None,None,,None,None,356.02381823200267,None,1,1,0.7711505529878195,356.02381823200267,None,356.7905953014066,None,None,None,None,,10,001,2023_Jan_19_1151,searchDisc5,2021.2.3,59.98605492026564,
images/exp1a_trial_280_colour2_distractors31_l.png,l,1,2,31,0,,,,,0,33,33,33,,,,,,,,,,,,,,,,,,,,,,,,,,,,,,,,,,,,,,,,,,,356.8067009669903,None,2,0.6713337479741313,356.8067009669903,None,,,,,,,,,,,,,,,,None,None,None,,None,None,357.5241183839971,None,1,1,0.7496580820006784,357.5241183839971,None,358.2739151973889,None,None,None,None,,10,001,2023_Jan_19_1151,searchDisc5,2021.2.3,59.98605492026564,
images/exp2c_trial_33_colour1_distractors4_r.png,r,3,1,4,0,,,,,0,34,34,34,,,,,,,,,,,,,,,,,,,,,,,,,,,,,,,,,,,,,,,,,,,358.29202352199354,None,2,0.6879274600069039,358.29202352199354,None,,,,,,,,,,,,,,,,None,None,None,,None,None,359.02413991698995,None,3,1,0.6405704969947692,359.02413991698995,None,359.65744173038695,None,None,None,None,,10,001,2023_Jan_19_1151,searchDisc5,2021.2.3,59.98605492026564,
images/exp2a_trial_293_colour2_distractors1_r.png,r,3,2,1,0,,,,,0,35,35,35,,,,,,,,,,,,,,,,,,,,,,,,,,,,,,,,,,,,,,,,,,,359.67389709400595,None,2,0.6376427880022675,359.67389709400595,None,,,,,,,,,,,,,,,,None,None,None,,None,None,360.3575427829928,None,3,1,0.6041881070123054,360.3575427829928,None,360.95743856539195,None,None,None,None,,10,001,2023_Jan_19_1151,searchDisc5,2021.2.3,59.98605492026564,
images/exp2c_trial_36_colour1_distractors31_r.png,r,3,1,31,0,,,,,0,36,36,36,,,,,,,,,,,,,,,,,,,,,,,,,,,,,,,,,,,,,,,,,,,360.9734455799917,None,2,0.6399637870199513,360.9734455799917,None,,,,,,,,,,,,,,,,None,None,None,,None,None,361.65717208298156,None,3,1,0.6841201639908832,361.65717208298156,None,362.3407926304004,None,None,None,None,,10,001,2023_Jan_19_1151,searchDisc5,2021.2.3,59.98605492026564,
images/exp2a_trial_32_colour1_distractors1_r.png,r,3,1,1,0,,,,,0,37,37,37,,,,,,,,,,,,,,,,,,,,,,,,,,,,,,,,,,,,,,,,,,,362.3571670379897,None,2,0.589891528012231,362.3571670379897,None,,,,,,,,,,,,,,,,None,None,None,,None,None,362.9905550539843,None,3,1,0.6036136079928838,362.9905550539843,None,363.59077403538106,None,None,None,None,,10,001,2023_Jan_19_1151,searchDisc5,2021.2.3,59.98605492026564,
images/exp1a_trial_203_colour3_distractors4_r.png,r,3,3,4,0,,,,,0,38,38,38,,,,,,,,,,,,,,,,,,,,,,,,,,,,,,,,,,,,,,,,,,,363.6071223829931,None,2,0.6063141909835394,363.6071223829931,None,,,,,,,,,,,,,,,,None,None,None,,None,None,364.2575866119878,None,3,1,1.0697886569832917,364.2575866119878,None,365.3240380623989,None,None,None,None,,10,001,2023_Jan_19_1151,searchDisc5,2021.2.3,59.98605492026564,
images/exp1a_trial_230_colour2_distractors4_r.png,r,3,2,4,0,,,,,0,39,39,39,,,,,,,,,,,,,,,,,,,,,,,,,,,,,,,,,,,,,,,,,,,365.34051047899993,None,2,0.8879745980084408,365.34051047899993,None,,,,,,,,,,,,,,,,None,None,None,,None,None,366.27599734600517,None,3,1,0.7214458350208588,366.27599734600517,None,366.9909567853989,None,None,None,None,,10,001,2023_Jan_19_1151,searchDisc5,2021.2.3,59.98605492026564,
images/exp2c_trial_202_colour3_distractors1_r.png,r,3,3,1,0,,,,,0,40,40,40,,,,,,,,,,,,,,,,,,,,,,,,,,,,,,,,,,,,,,,,,,,367.00717838900164,None,2,0.7230927539931145,367.00717838900164,None,,,,,,,,,,,,,,,,None,None,None,,None,None,367.7737463020021,None,3,1,0.8870358869899064,367.7737463020021,None,368.65745501838103,None,None,None,None,,10,001,2023_Jan_19_1151,searchDisc5,2021.2.3,59.98605492026564,
images/exp2a_trial_46_colour3_distractors31_r.png,r,3,3,31,0,,,,,0,41,41,41,,,,,,,,,,,,,,,,,,,,,,,,,,,,,,,,,,,,,,,,,,,368.675814274,None,2,0.7211761999933515,368.675814274,None,,,,,,,,,,,,,,,,None,None,None,,None,None,369.44323116500163,None,3,1,0.9528845679888036,369.44323116500163,None,370.39092954240334,None,None,None,None,,10,001,2023_Jan_19_1151,searchDisc5,2021.2.3,59.98605492026564,
images/exp2a_trial_99_colour1_distractors19_r.png,r,3,1,19,0,,,,,0,42,42,42,,,,,,,,,,,,,,,,,,,,,,,,,,,,,,,,,,,,,,,,,,,370.40764819900505,None,2,0.6712584990018513,370.40764819900505,None,,,,,,,,,,,,,,,,None,None,None,,None,None,371.1238128129917,None,3,1,0.7694371750112623,371.1238128129917,None,371.89091914538005,None,None,None,None,,10,001,2023_Jan_19_1151,searchDisc5,2021.2.3,59.98605492026564,
images/exp1a_trial_2_colour1_distractors9_r.png,r,3,1,9,0,,,,,0,43,43,43,,,,,,,,,,,,,,,,,,,,,,,,,,,,,,,,,,,,,,,,,,,371.9070788959798,None,2,0.8236250769987237,371.9070788959798,None,,,,,,,,,,,,,,,,None,None,None,,None,None,372.7763433609798,None,3,1,0.7534711949992925,372.7763433609798,None,373.52451860637814,None,None,None,None,,10,001,2023_Jan_19_1151,searchDisc5,2021.2.3,59.98605492026564,
images/exp2b_trial_171_colour3_distractors4_r.png,r,3,3,4,0,,,,,0,44,44,44,,,,,,,,,,,,,,,,,,,,,,,,,,,,,,,,,,,,,,,,,,,373.54100855399156,None,2,0.7706675679946784,373.54100855399156,None,,,,,,,,,,,,,,,,None,None,None,,None,None,374.36016803397797,None,3,1,0.7207169230096042,374.36016803397797,None,375.07447691038544,None,None,None,None,,10,001,2023_Jan_19_1151,searchDisc5,2021.2.3,59.98605492026564,
images/exp2c_trial_209_colour1_distractors9_l.png,l,1,1,9,0,,,,,0,45,45,45,,,,,,,,,,,,,,,,,,,,,,,,,,,,,,,,,,,,,,,,,,,375.0911017280014,None,2,0.687793425982818,375.0911017280014,None,,,,,,,,,,,,,,,,None,None,None,,None,None,375.8245456709992,None,1,1,0.757341204007389,375.8245456709992,None,376.5745282953809,None,None,None,None,,10,001,2023_Jan_19_1151,searchDisc5,2021.2.3,59.98605492026564,
images/exp1a_trial_81_colour1_distractors9_l.png,l,1,1,9,0,,,,,0,46,46,46,,,,,,,,,,,,,,,,,,,,,,,,,,,,,,,,,,,,,,,,,,,376.59141762100626,None,2,0.7370389180141501,376.59141762100626,None,,,,,,,,,,,,,,,,None,None,None,,None,None,377.37458661099663,None,1,1,0.9189240929845255,377.37458661099663,None,378.2912384953903,None,None,None,None,,10,001,2023_Jan_19_1151,searchDisc5,2021.2.3,59.98605492026564,
images/exp2b_trial_115_colour1_distractors31_l.png,l,1,1,31,0,,,,,0,47,47,47,,,,,,,,,,,,,,,,,,,,,,,,,,,,,,,,,,,,,,,,,,,378.3098364149919,None,2,0.6876459129853174,378.3098364149919,None,,,,,,,,,,,,,,,,None,None,None,,None,None,379.0412784249929,None,1,1,0.7859142500092275,379.0412784249929,None,379.8245082693844,None,None,None,None,,10,001,2023_Jan_19_1151,searchDisc5,2021.2.3,59.98605492026564,
images/exp2a_trial_243_colour1_distractors31_l.png,l,1,1,31,0,,,,,0,48,48,48,,,,,,,,,,,,,,,,,,,,,,,,,,,,,,,,,,,,,,,,,,,379.84092285999213,None,2,0.808332991990028,379.84092285999213,None,,,,,,,,,,,,,,,,None,None,None,,None,None,380.6928213259962,None,1,1,0.5824110410176218,380.6928213259962,None,381.2747263683792,None,None,None,None,,10,001,2023_Jan_19_1151,searchDisc5,2021.2.3,59.98605492026564,
images/exp2c_trial_147_colour1_distractors31_l.png,l,1,1,31,0,,,,,0,49,49,49,,,,,,,,,,,,,,,,,,,,,,,,,,,,,,,,,,,,,,,,,,,381.29073504000553,None,2,0.5901090300176293,381.29073504000553,None,,,,,,,,,,,,,,,,None,None,None,,None,None,381.92476845998317,None,1,1,0.6330686089931987,381.92476845998317,None,382.5578974624019,None,None,None,None,,10,001,2023_Jan_19_1151,searchDisc5,2021.2.3,59.98605492026564,
images/exp1a_trial_42_colour3_distractors1_r.png,r,3,3,1,0,,,,,0,50,50,50,,,,,,,,,,,,,,,,,,,,,,,,,,,,,,,,,,,,,,,,,,,382.5744620949845,None,2,0.6043492919998243,382.5744620949845,None,,,,,,,,,,,,,,,,None,None,None,,None,None,383.2267712430039,None,3,1,0.7063385030196514,383.2267712430039,None,383.9246753293934,None,None,None,None,,10,001,2023_Jan_19_1151,searchDisc5,2021.2.3,59.98605492026564,
images/exp1a_trial_141_colour3_distractors19_r.png,r,3,3,19,0,,,,,0,51,51,51,,,,,,,,,,,,,,,,,,,,,,,,,,,,,,,,,,,,,,,,,,,383.9407256099803,None,2,0.6393886739970185,383.9407256099803,None,,,,,,,,,,,,,,,,None,None,None,,None,None,384.6249610839877,None,3,1,0.8335655699775089,384.6249610839877,None,385.4581679673953,None,None,None,None,,10,001,2023_Jan_19_1151,searchDisc5,2021.2.3,59.98605492026564,
images/exp2b_trial_183_colour2_distractors19_l.png,l,1,2,19,0,,,,,0,52,52,52,,,,,,,,,,,,,,,,,,,,,,,,,,,,,,,,,,,,,,,,,,,385.4744360699842,None,2,0.7379756870213896,385.4744360699842,None,,,,,,,,,,,,,,,,None,None,None,,None,None,386.26059545300086,None,1,1,0.7029836850124411,386.26059545300086,None,386.9580002823874,None,None,None,None,,10,001,2023_Jan_19_1151,searchDisc5,2021.2.3,59.98605492026564,
images/exp1a_trial_73_colour2_distractors31_r.png,r,3,2,31,0,,,,,0,53,53,53,,,,,,,,,,,,,,,,,,,,,,,,,,,,,,,,,,,,,,,,,,,386.9746617579949,None,2,0.6230420169886202,386.9746617579949,None,,,,,,,,,,,,,,,,None,None,None,,None,None,387.64422957398347,None,3,1,0.6805134669994004,387.64422957398347,None,388.3246269073949,None,None,None,None,,10,001,2023_Jan_19_1151,searchDisc5,2021.2.3,59.98605492026564,
images/exp1a_trial_46_colour3_distractors31_r.png,r,3,3,31,0,,,,,0,54,54,54,,,,,,,,,,,,,,,,,,,,,,,,,,,,,,,,,,,,,,,,,,,388.3429162479879,None,2,0.6066038369899616,388.3429162479879,None,,,,,,,,,,,,,,,,None,None,None,,None,None,388.99141129798954,None,3,1,0.6151169460208621,388.99141129798954,None,389.608296771397,None,None,None,None,,10,001,2023_Jan_19_1151,searchDisc5,2021.2.3,59.98605492026564,
images/exp2c_trial_122_colour3_distractors4_l.png,l,1,3,4,0,,,,,0,55,55,55,,,,,,,,,,,,,,,,,,,,,,,,,,,,,,,,,,,,,,,,,,,389.6247981849883,None,2,0.6212460419919807,389.6247981849883,None,,,,,,,,,,,,,,,,None,None,None,,None,None,390.29150524098077,None,1,1,0.5720651060109958,390.29150524098077,None,390.8583168384008,None,None,None,None,,10,001,2023_Jan_19_1151,searchDisc5,2021.2.3,59.98605492026564,
images/exp2c_trial_52_colour2_distractors1_l.png,l,1,2,1,0,,,,,0,56,56,56,,,,,,,,,,,,,,,,,,,,,,,,,,,,,,,,,,,,,,,,,,,390.87501183798304,None,2,0.522894997993717,390.87501183798304,None,,,,,,,,,,,,,,,,None,None,None,,None,None,391.44371954599046,None,1,1,0.537064758973429,391.44371954599046,None,391.97478115739943,None,None,None,None,,10,001,2023_Jan_19_1151,searchDisc5,2021.2.3,59.98605492026564,
images/exp2c_trial_290_colour1_distractors9_r.png,r,3,1,9,0,,,,,0,57,57,57,,,,,,,,,,,,,,,,,,,,,,,,,,,,,,,,,,,,,,,,,,,391.99152745099855,None,2,0.5379002310219221,391.99152745099855,None,,,,,,,,,,,,,,,,None,None,None,,None,None,392.5751421939931,None,3,1,0.6549357780022547,392.5751421939931,None,393.2247913793923,None,None,None,None,,10,001,2023_Jan_19_1151,searchDisc5,2021.2.3,59.98605492026564,
images/exp2a_trial_300_colour3_distractors9_r.png,r,3,3,9,0,,,,,0,58,58,58,,,,,,,,,,,,,,,,,,,,,,,,,,,,,,,,,,,,,,,,,,,393.24350735600456,None,2,0.5568207239848562,393.24350735600456,None,,,,,,,,,,,,,,,,None,None,None,,None,None,393.8433928099985,None,3,1,0.6034328560053837,393.8433928099985,None,394.44151345638386,None,None,None,None,,10,001,2023_Jan_19_1151,searchDisc5,2021.2.3,59.98605492026564,
images/exp2a_trial_43_colour3_distractors4_r.png,r,3,3,4,0,,,,,0,59,59,59,,,,,,,,,,,,,,,,,,,,,,,,,,,,,,,,,,,,,,,,,,,394.4598299339996,None,2,0.5558517969911918,394.4598299339996,None,,,,,,,,,,,,,,,,None,None,None,,None,None,395.0602663109894,None,3,1,0.5198259619937744,395.0602663109894,None,395.57435611138646,None,None,None,None,,10,001,2023_Jan_19_1151,searchDisc5,2021.2.3,59.98605492026564,
images/exp1a_trial_304_colour1_distractors4_l.png,l,1,1,4,0,,,,,0,60,60,60,,,,,,,,,,,,,,,,,,,,,,,,,,,,,,,,,,,,,,,,,,,395.59355522098485,None,2,0.5753434080106672,395.59355522098485,None,,,,,,,,,,,,,,,,None,None,None,,None,None,396.2083201489877,None,1,1,0.7514688390074298,396.2083201489877,None,396.9583834163874,None,None,None,None,,10,001,2023_Jan_19_1151,searchDisc5,2021.2.3,59.98605492026564,
images/exp2a_trial_234_colour3_distractors1_r.png,r,3,3,1,0,,,,,0,61,61,61,,,,,,,,,,,,,,,,,,,,,,,,,,,,,,,,,,,,,,,,,,,396.9750030619907,None,2,0.5545703029783908,396.9750030619907,None,,,,,,,,,,,,,,,,None,None,None,,None,None,397.57687450098456,None,3,1,0.5225829279806931,397.57687450098456,None,398.09152640737886,None,None,None,None,,10,001,2023_Jan_19_1151,searchDisc5,2021.2.3,59.98605492026564,
images/exp1a_trial_310_colour2_distractors9_l.png,l,1,2,9,0,,,,,0,62,62,62,,,,,,,,,,,,,,,,,,,,,,,,,,,,,,,,,,,,,,,,,,,398.1103809629858,None,2,0.540170238004066,398.1103809629858,None,,,,,,,,,,,,,,,,None,None,None,,None,None,398.69390942397877,None,1,1,0.5184649690054357,398.69390942397877,None,399.20860364440307,None,None,None,None,,10,001,2023_Jan_19_1151,searchDisc5,2021.2.3,59.98605492026564,
images/exp1a_trial_260_colour1_distractors31_r.png,r,3,1,31,0,,,,,0,63,63,63,,,,,,,,,,,,,,,,,,,,,,,,,,,,,,,,,,,,,,,,,,,399.22705995998695,None,2,0.5208096980059054,399.22705995998695,None,,,,,,,,,,,,,,,,None,None,None,,None,None,399.7939817580045,None,3,1,1.0166332680091728,399.7939817580045,None,400.8083398424002,None,None,None,None,,10,001,2023_Jan_19_1151,searchDisc5,2021.2.3,59.98605492026564,
images/exp2a_trial_192_colour1_distractors1_r.png,r,3,1,1,0,,,,,0,64,64,64,,,,,,,,,,,,,,,,,,,,,,,,,,,,,,,,,,,,,,,,,,,400.8271783189848,None,2,0.5735241250076797,400.8271783189848,None,,,,,,,,,,,,,,,,None,None,None,,None,None,401.44219758099644,None,3,1,0.5706950260209851,401.44219758099644,None,402.00858271440086,None,None,None,None,,10,001,2023_Jan_19_1151,searchDisc5,2021.2.3,59.98605492026564,
images/exp1a_trial_83_colour1_distractors31_l.png,l,1,1,31,0,,,,,0,65,65,65,,,,,,,,,,,,,,,,,,,,,,,,,,,,,,,,,,,,,,,,,,,402.02505917000235,None,2,0.55444006898324,402.02505917000235,None,,,,,,,,,,,,,,,,None,None,None,,None,None,402.627272430982,None,1,1,0.6832996040175203,402.627272430982,None,403.3085031963798,None,None,None,None,,10,001,2023_Jan_19_1151,searchDisc5,2021.2.3,59.98605492026564,
images/exp1a_trial_108_colour3_distractors9_r.png,r,3,3,9,0,,,,,0,66,66,66,,,,,,,,,,,,,,,,,,,,,,,,,,,,,,,,,,,,,,,,,,,403.3247435099911,None,2,0.5395253309980035,403.3247435099911,None,,,,,,,,,,,,,,,,None,None,None,,None,None,403.90873446597834,None,3,1,0.5843143259990029,403.90873446597834,None,404.49122219839194,None,None,None,None,,10,001,2023_Jan_19_1151,searchDisc5,2021.2.3,59.98605492026564,
images/exp2b_trial_153_colour3_distractors1_l.png,l,1,3,1,0,,,,,0,67,67,67,,,,,,,,,,,,,,,,,,,,,,,,,,,,,,,,,,,,,,,,,,,404.5102380150056,None,2,0.5404136669822037,404.5102380150056,None,,,,,,,,,,,,,,,,None,None,None,,None,None,405.09434732599766,None,1,1,0.7728128659946378,405.09434732599766,None,405.85855112839783,None,None,None,None,,10,001,2023_Jan_19_1151,searchDisc5,2021.2.3,59.98605492026564,
images/exp1a_trial_71_colour2_distractors9_r.png,r,3,2,9,0,,,,,0,68,68,68,,,,,,,,,,,,,,,,,,,,,,,,,,,,,,,,,,,,,,,,,,,405.8774152569822,None,2,0.5191715700202622,405.8774152569822,None,,,,,,,,,,,,,,,,None,None,None,,None,None,406.4436090129893,None,3,1,0.6390519579872489,406.4436090129893,None,407.07525634938213,None,None,None,None,,10,001,2023_Jan_19_1151,searchDisc5,2021.2.3,59.98605492026564,
images/exp2c_trial_319_colour0_distractors0_l.png,l,1,0,0,0,,,,,0,69,69,69,,,,,,,,,,,,,,,,,,,,,,,,,,,,,,,,,,,,,,,,,,,407.0913340499974,None,2,0.5358213929866906,407.0913340499974,None,,,,,,,,,,,,,,,,None,None,None,,None,None,407.6773882669804,None,1,1,0.5406438019999769,407.6773882669804,None,408.20854718940393,None,None,None,None,,10,001,2023_Jan_19_1151,searchDisc5,2021.2.3,59.98605492026564,
images/exp2a_trial_258_colour1_distractors9_r.png,r,3,1,9,0,,,,,0,70,70,70,,,,,,,,,,,,,,,,,,,,,,,,,,,,,,,,,,,,,,,,,,,408.2272715430008,None,2,0.5195878119848203,408.2272715430008,None,,,,,,,,,,,,,,,,None,None,None,,None,None,408.7942677139945,None,3,1,0.5040730090113357,408.7942677139945,None,409.2914760993823,None,None,None,None,,10,001,2023_Jan_19_1151,searchDisc5,2021.2.3,59.98605492026564,
images/exp2a_trial_101_colour2_distractors1_r.png,r,3,2,1,0,,,,,0,71,71,71,,,,,,,,,,,,,,,,,,,,,,,,,,,,,,,,,,,,,,,,,,,409.3085577849997,None,2,0.4878305380116217,409.3085577849997,None,,,,,,,,,,,,,,,,None,None,None,,None,None,409.8420367600047,None,3,1,0.6063686039997265,409.8420367600047,None,410.44217906738925,None,None,None,None,,10,001,2023_Jan_19_1151,searchDisc5,2021.2.3,59.98605492026564,
images/exp2a_trial_171_colour3_distractors4_r.png,r,3,3,4,0,,,,,0,72,72,72,,,,,,,,,,,,,,,,,,,,,,,,,,,,,,,,,,,,,,,,,,,410.4582340149791,None,2,0.4746440180169884,410.4582340149791,None,,,,,,,,,,,,,,,,None,None,None,,None,None,410.97504575099447,None,3,1,0.58524940800271,410.97504575099447,None,411.5588152533834,None,None,None,None,,10,001,2023_Jan_19_1151,searchDisc5,2021.2.3,59.98605492026564,
images/exp2c_trial_80_colour1_distractors4_l.png,l,1,1,4,0,,,,,0,73,73,73,,,,,,,,,,,,,,,,,,,,,,,,,,,,,,,,,,,,,,,,,,,411.5753458440013,None,2,0.47096638899529353,411.5753458440013,None,,,,,,,,,,,,,,,,None,None,None,,None,None,412.09155105499667,None,1,1,0.572377336997306,412.09155105499667,None,412.65888720140504,None,None,None,None,,10,001,2023_Jan_19_1151,searchDisc5,2021.2.3,59.98605492026564,
images/exp2a_trial_71_colour2_distractors9_r.png,r,3,2,9,0,,,,,0,74,74,74,,,,,,,,,,,,,,,,,,,,,,,,,,,,,,,,,,,,,,,,,,,412.6752363779815,None,2,0.4874600679904688,412.6752363779815,None,,,,,,,,,,,,,,,,None,None,None,,None,None,413.20913854800165,None,3,1,0.7345492689928506,413.20913854800165,None,413.94201123040114,None,None,None,None,,10,001,2023_Jan_19_1151,searchDisc5,2021.2.3,59.98605492026564,
images/exp2c_trial_139_colour3_distractors4_r.png,r,3,3,4,0,,,,,0,75,75,75,,,,,,,,,,,,,,,,,,,,,,,,,,,,,,,,,,,,,,,,,,,413.9583455819811,None,2,0.5559756940056104,413.9583455819811,None,,,,,,,,,,,,,,,,None,None,None,,None,None,414.5610509089893,None,3,1,0.536539470020216,414.5610509089893,None,415.0918784733891,None,None,None,None,,10,001,2023_Jan_19_1151,searchDisc5,2021.2.3,59.98605492026564,
images/exp2a_trial_230_colour2_distractors4_r.png,r,3,2,4,0,,,,,0,76,76,76,,,,,,,,,,,,,,,,,,,,,,,,,,,,,,,,,,,,,,,,,,,415.10867072999827,None,2,0.6238300529948901,415.10867072999827,None,,,,,,,,,,,,,,,,None,None,None,,None,None,415.7771099829988,None,3,1,0.9341275040060282,415.7771099829988,None,416.70884040039675,None,None,None,None,,10,001,2023_Jan_19_1151,searchDisc5,2021.2.3,59.98605492026564,
images/exp1a_trial_252_colour3_distractors19_l.png,l,1,3,19,0,,,,,0,77,77,77,,,,,,,,,,,,,,,,,,,,,,,,,,,,,,,,,,,,,,,,,,,416.72745140999905,None,2,0.5730649309989531,416.72745140999905,None,,,,,,,,,,,,,,,,None,None,None,,None,None,417.34234730998287,None,1,1,0.5660068979777861,417.34234730998287,None,417.9086904394004,None,None,None,None,,10,001,2023_Jan_19_1151,searchDisc5,2021.2.3,59.98605492026564,
images/exp2c_trial_269_colour3_distractors19_r.png,r,3,3,19,0,,,,,0,78,78,78,,,,,,,,,,,,,,,,,,,,,,,,,,,,,,,,,,,,,,,,,,,417.92503293498885,None,2,0.556520323996665,417.92503293498885,None,,,,,,,,,,,,,,,,None,None,None,,None,None,418.5278456870001,None,3,1,0.5337906219938304,418.5278456870001,None,419.0583289583825,None,None,None,None,,10,001,2023_Jan_19_1151,searchDisc5,2021.2.3,59.98605492026564,
images/exp2b_trial_22_colour2_distractors9_l.png,l,1,2,9,0,,,,,0,79,79,79,,,,,,,,,,,,,,,,,,,,,,,,,,,,,,,,,,,,,,,,,,,419.07535145099973,None,2,0.538425679987995,419.07535145099973,None,,,,,,,,,,,,,,,,None,None,None,,None,None,419.65887785798986,None,1,1,0.6043706159980502,419.65887785798986,None,420.25914304739274,None,None,None,None,,10,001,2023_Jan_19_1151,searchDisc5,2021.2.3,59.98605492026564,
images/exp2b_trial_210_colour1_distractors19_l.png,l,1,1,19,0,,,,,0,80,80,80,,,,,,,,,,,,,,,,,,,,,,,,,,,,,,,,,,,,,,,,,,,420.2754577320011,None,2,0.48754455300513655,420.2754577320011,None,,,,,,,,,,,,,,,,None,None,None,,None,None,420.80859247699846,None,1,1,0.8203150499903131,420.80859247699846,None,421.6255778033898,None,None,None,None,,10,001,2023_Jan_19_1151,searchDisc5,2021.2.3,59.98605492026564,
images/exp2a_trial_2_colour1_distractors9_r.png,r,3,1,9,0,,,,,0,81,81,81,,,,,,,,,,,,,,,,,,,,,,,,,,,,,,,,,,,,,,,,,,,421.64221014498617,None,2,0.5388860069797374,421.64221014498617,None,,,,,,,,,,,,,,,,None,None,None,,None,None,422.22804560197983,None,3,1,0.6046662659791764,422.22804560197983,None,422.82565648639286,None,None,None,None,,10,001,2023_Jan_19_1151,searchDisc5,2021.2.3,59.98605492026564,
images/exp2b_trial_255_colour0_distractors0_l.png,l,1,0,0,0,,,,,0,82,82,82,,,,,,,,,,,,,,,,,,,,,,,,,,,,,,,,,,,,,,,,,,,422.843810492981,None,2,0.5400477209768724,422.843810492981,None,,,,,,,,,,,,,,,,None,None,None,,None,None,423.4279331949947,None,1,1,0.6048131099960301,423.4279331949947,None,424.02563539939877,None,None,None,None,,10,001,2023_Jan_19_1151,searchDisc5,2021.2.3,59.98605492026564,
images/exp2a_trial_201_colour2_distractors31_r.png,r,3,2,31,0,,,,,0,83,83,83,,,,,,,,,,,,,,,,,,,,,,,,,,,,,,,,,,,,,,,,,,,424.0421738050063,None,2,0.48960464901756495,424.0421738050063,None,,,,,,,,,,,,,,,,None,None,None,,None,None,424.5822841610061,None,3,1,0.7103118139784783,424.5822841610061,None,425.29235639939145,None,None,None,None,,10,001,2023_Jan_19_1151,searchDisc5,2021.2.3,59.98605492026564,
images/exp2a_trial_93_colour3_distractors31_l.png,l,1,3,31,0,,,,,0,84,84,84,,,,,,,,,,,,,,,,,,,,,,,,,,,,,,,,,,,,,,,,,,,425.3091108019871,None,2,0.9401212969969492,425.3091108019871,None,,,,,,,,,,,,,,,,None,None,None,,None,None,426.2942375089915,None,1,1,0.701778185000876,426.2942375089915,None,426.99256412840043,None,None,None,None,,10,001,2023_Jan_19_1151,searchDisc5,2021.2.3,59.98605492026564,
images/exp2b_trial_316_colour3_distractors19_l.png,l,1,3,19,0,,,,,0,85,85,85,,,,,,,,,,,,,,,,,,,,,,,,,,,,,,,,,,,,,,,,,,,427.00904157498735,None,2,0.6398934969911352,427.00904157498735,None,,,,,,,,,,,,,,,,None,None,None,,None,None,427.69271394298994,None,1,1,0.6678351350128651,427.69271394298994,None,428.3591460623808,None,None,None,None,,10,001,2023_Jan_19_1151,searchDisc5,2021.2.3,59.98605492026564,
images/exp2a_trial_17_colour1_distractors9_l.png,l,1,1,9,0,,,,,0,86,86,86,,,,,,,,,,,,,,,,,,,,,,,,,,,,,,,,,,,,,,,,,,,428.3755254529824,None,2,0.6066794549988117,428.3755254529824,None,,,,,,,,,,,,,,,,None,None,None,,None,None,429.0258990509901,None,1,1,0.6685371730127372,429.0258990509901,None,429.69208940037936,None,None,None,None,,10,001,2023_Jan_19_1151,searchDisc5,2021.2.3,59.98605492026564,
images/exp1a_trial_5_colour2_distractors1_r.png,r,3,2,1,0,,,,,0,87,87,87,,,,,,,,,,,,,,,,,,,,,,,,,,,,,,,,,,,,,,,,,,,429.709303710988,None,2,0.688272061990574,429.709303710988,None,,,,,,,,,,,,,,,,None,None,None,,None,None,430.4423305770033,None,3,1,0.6555061080143787,430.4423305770033,None,431.0926667894033,None,None,None,None,,10,001,2023_Jan_19_1151,searchDisc5,2021.2.3,59.98605492026564,
images/exp2a_trial_3_colour1_distractors19_r.png,r,3,1,19,0,,,,,0,88,88,88,,,,,,,,,,,,,,,,,,,,,,,,,,,,,,,,,,,,,,,,,,,431.11128837399883,None,2,0.6712795089988504,431.11128837399883,None,,,,,,,,,,,,,,,,None,None,None,,None,None,431.8258740399906,None,3,1,0.7720475800160784,431.8258740399906,None,432.5926754333865,None,None,None,None,,10,001,2023_Jan_19_1151,searchDisc5,2021.2.3,59.98605492026564,
images/exp2c_trial_313_colour3_distractors1_l.png,l,1,3,1,0,,,,,0,89,89,89,,,,,,,,,,,,,,,,,,,,,,,,,,,,,,,,,,,,,,,,,,,432.6097434370022,None,2,0.5880307649786118,432.6097434370022,None,,,,,,,,,,,,,,,,None,None,None,,None,None,433.24499691298115,None,1,1,0.5874757749843411,433.24499691298115,None,433.8259576283832,None,None,None,None,,10,001,2023_Jan_19_1151,searchDisc5,2021.2.3,59.98605492026564,
images/exp1a_trial_16_colour1_distractors4_l.png,l,1,1,4,0,,,,,0,90,90,90,,,,,,,,,,,,,,,,,,,,,,,,,,,,,,,,,,,,,,,,,,,433.8425518029835,None,2,0.5064784440037329,433.8425518029835,None,,,,,,,,,,,,,,,,None,None,None,,None,None,434.39500650798436,None,1,1,0.7041723199945409,434.39500650798436,None,435.0926633623982,None,None,None,None,,10,001,2023_Jan_19_1151,searchDisc5,2021.2.3,59.98605492026564,
images/exp1a_trial_87_colour2_distractors19_l.png,l,1,2,19,0,,,,,0,91,91,91,,,,,,,,,,,,,,,,,,,,,,,,,,,,,,,,,,,,,,,,,,,435.10929265999584,None,2,0.5378101489914116,435.10929265999584,None,,,,,,,,,,,,,,,,None,None,None,,None,None,435.6949137059855,None,1,1,0.6991312330064829,435.6949137059855,None,436.39216853638356,None,None,None,None,,10,001,2023_Jan_19_1151,searchDisc5,2021.2.3,59.98605492026564,
images/exp1a_trial_242_colour1_distractors19_l.png,l,1,1,19,0,,,,,0,92,92,92,,,,,,,,,,,,,,,,,,,,,,,,,,,,,,,,,,,,,,,,,,,436.41150277198176,None,2,0.5885065170004964,436.41150277198176,None,,,,,,,,,,,,,,,,None,None,None,,None,None,437.04282747299294,None,1,1,0.6014857740083244,437.04282747299294,None,437.642780291391,None,None,None,None,,10,001,2023_Jan_19_1151,searchDisc5,2021.2.3,59.98605492026564,
images/exp2a_trial_79_colour1_distractors1_l.png,l,1,1,1,0,,,,,0,93,93,93,,,,,,,,,,,,,,,,,,,,,,,,,,,,,,,,,,,,,,,,,,,437.66103715699865,None,2,0.6065779930213466,437.66103715699865,None,,,,,,,,,,,,,,,,None,None,None,,None,None,438.3091806489974,None,1,1,0.6542461909994017,438.3091806489974,None,438.959663310388,None,None,None,None,,10,001,2023_Jan_19_1151,searchDisc5,2021.2.3,59.98605492026564,
images/exp2a_trial_104_colour2_distractors19_r.png,r,3,2,19,0,,,,,0,94,94,94,,,,,,,,,,,,,,,,,,,,,,,,,,,,,,,,,,,,,,,,,,,438.9760971009964,None,2,0.5375340789905749,438.9760971009964,None,,,,,,,,,,,,,,,,None,None,None,,None,None,439.5611066209967,None,3,1,0.7480506860010792,439.5611066209967,None,440.3095076104015,None,None,None,None,,10,001,2023_Jan_19_1151,searchDisc5,2021.2.3,59.98605492026564,
images/exp2c_trial_47_colour1_distractors1_l.png,l,1,1,1,0,,,,,0,95,95,95,,,,,,,,,,,,,,,,,,,,,,,,,,,,,,,,,,,,,,,,,,,440.3261391829874,None,2,0.6211747839988675,440.3261391829874,None,,,,,,,,,,,,,,,,None,None,None,,None,None,440.9931558359822,None,1,1,0.6064062429941259,440.9931558359822,None,441.5931528473826,None,None,None,None,,10,001,2023_Jan_19_1151,searchDisc5,2021.2.3,59.98605492026564,
images/exp1a_trial_288_colour1_distractors1_r.png,r,3,1,1,0,,,,,0,96,96,96,,,,,,,,,,,,,,,,,,,,,,,,,,,,,,,,,,,,,,,,,,,441.611278174998,None,2,0.5572611679963302,441.611278174998,None,,,,,,,,,,,,,,,,None,None,None,,None,None,442.2118275979883,None,3,1,0.6031807320250664,442.2118275979883,None,442.80970323738586,None,None,None,None,,10,001,2023_Jan_19_1151,searchDisc5,2021.2.3,59.98605492026564,
images/exp2c_trial_150_colour2_distractors9_l.png,l,1,2,9,0,,,,,0,97,97,97,,,,,,,,,,,,,,,,,,,,,,,,,,,,,,,,,,,,,,,,,,,442.82811012200546,None,2,0.604095390997827,442.82811012200546,None,,,,,,,,,,,,,,,,None,None,None,,None,None,443.47659986498184,None,1,1,0.5719720900233369,443.47659986498184,None,444.0430467773782,None,None,None,None,,10,001,2023_Jan_19_1151,searchDisc5,2021.2.3,59.98605492026564,
images/exp1a_trial_270_colour3_distractors31_r.png,r,3,3,31,0,,,,,0,98,98,98,,,,,,,,,,,,,,,,,,,,,,,,,,,,,,,,,,,,,,,,,,,444.05909955099924,None,2,0.48792387699359097,444.05909955099924,None,,,,,,,,,,,,,,,,None,None,None,,None,None,444.59538577098283,None,3,1,0.6835540420142934,444.59538577098283,None,445.2765387084015,None,None,None,None,,10,001,2023_Jan_19_1151,searchDisc5,2021.2.3,59.98605492026564,
images/exp1a_trial_176_colour1_distractors4_l.png,l,1,1,4,0,,,,,0,99,99,99,,,,,,,,,,,,,,,,,,,,,,,,,,,,,,,,,,,,,,,,,,,445.2926667769789,None,2,0.5377146840037312,445.2926667769789,None,,,,,,,,,,,,,,,,None,None,None,,None,None,445.8782601179846,None,1,1,0.8388880560232792,445.8782601179846,None,446.70971967740627,None,None,None,None,,10,001,2023_Jan_19_1151,searchDisc5,2021.2.3,59.98605492026564,
images/exp2c_trial_310_colour2_distractors9_l.png,l,1,2,9,0,,,,,0,100,100,100,,,,,,,,,,,,,,,,,,,,,,,,,,,,,,,,,,,,,,,,,,,446.72605557899806,None,2,0.5392981370096095,446.72605557899806,None,,,,,,,,,,,,,,,,None,None,None,,None,None,447.31188371399185,None,1,1,0.6526368939958047,447.31188371399185,None,447.959725903385,None,None,None,None,,10,001,2023_Jan_19_1151,searchDisc5,2021.2.3,59.98605492026564,
images/exp2a_trial_73_colour2_distractors31_r.png,r,3,2,31,0,,,,,0,101,101,101,,,,,,,,,,,,,,,,,,,,,,,,,,,,,,,,,,,,,,,,,,,447.9762446929817,None,2,0.48934927699156106,447.9762446929817,None,,,,,,,,,,,,,,,,None,None,None,,None,None,448.51013198599685,None,3,1,0.6956138480163645,448.51013198599685,None,449.2097551754065,None,None,None,None,,10,001,2023_Jan_19_1151,searchDisc5,2021.2.3,59.98605492026564,
images/exp1a_trial_128_colour1_distractors1_r.png,r,3,1,1,0,,,,,0,102,102,102,,,,,,,,,,,,,,,,,,,,,,,,,,,,,,,,,,,,,,,,,,,449.22623855699203,None,2,0.5364447930187453,449.22623855699203,None,,,,,,,,,,,,,,,,None,None,None,,None,None,449.811981937004,None,3,1,0.5880865330109373,449.811981937004,None,450.3922014733922,None,None,None,None,,10,001,2023_Jan_19_1151,searchDisc5,2021.2.3,59.98605492026564,
images/exp2c_trial_249_colour3_distractors1_l.png,l,1,3,1,0,,,,,0,103,103,103,,,,,,,,,,,,,,,,,,,,,,,,,,,,,,,,,,,,,,,,,,,450.4097723040031,None,2,0.488604142999975,450.4097723040031,None,,,,,,,,,,,,,,,,None,None,None,,None,None,450.94253113598097,None,1,1,0.7391527570143808,450.94253113598097,None,451.6766386313917,None,None,None,None,,10,001,2023_Jan_19_1151,searchDisc5,2021.2.3,59.98605492026564,
images/exp1a_trial_52_colour2_distractors1_l.png,l,1,2,1,0,,,,,0,104,104,104,,,,,,,,,,,,,,,,,,,,,,,,,,,,,,,,,,,,,,,,,,,451.6929050759936,None,2,0.5898520890041254,451.6929050759936,None,,,,,,,,,,,,,,,,None,None,None,,None,None,452.32631546398625,None,1,1,0.6697119080054108,452.32631546398625,None,452.9926991863846,None,None,None,None,,10,001,2023_Jan_19_1151,searchDisc5,2021.2.3,59.98605492026564,
images/exp1a_trial_76_colour3_distractors9_r.png,r,3,3,9,0,,,,,0,105,105,105,,,,,,,,,,,,,,,,,,,,,,,,,,,,,,,,,,,,,,,,,,,453.0114024379873,None,2,0.6717130219913088,453.0114024379873,None,,,,,,,,,,,,,,,,None,None,None,,None,None,453.7267452740052,None,3,1,0.6870653299847618,453.7267452740052,None,454.4098122953816,None,None,None,None,,10,001,2023_Jan_19_1151,searchDisc5,2021.2.3,59.98605492026564,
images/exp2a_trial_87_colour2_distractors19_l.png,l,1,2,19,0,,,,,0,106,106,106,,,,,,,,,,,,,,,,,,,,,,,,,,,,,,,,,,,,,,,,,,,454.42820162000135,None,2,0.5398006679897662,454.42820162000135,None,,,,,,,,,,,,,,,,None,None,None,,None,None,455.0145102920069,None,1,1,0.6455749879823998,455.0145102920069,None,455.6599183573941,None,None,None,None,,10,001,2023_Jan_19_1151,searchDisc5,2021.2.3,59.98605492026564,
images/exp2b_trial_268_colour3_distractors9_r.png,r,3,3,9,0,,,,,0,107,107,107,,,,,,,,,,,,,,,,,,,,,,,,,,,,,,,,,,,,,,,,,,,455.6763354059949,None,2,0.5043275009957142,455.6763354059949,None,,,,,,,,,,,,,,,,None,None,None,,None,None,456.2265537689964,None,3,1,0.7045524100249168,456.2265537689964,None,456.92672529439153,None,None,None,None,,10,001,2023_Jan_19_1151,searchDisc5,2021.2.3,59.98605492026564,
images/exp2a_trial_280_colour2_distractors31_l.png,l,1,2,31,0,,,,,0,108,108,108,,,,,,,,,,,,,,,,,,,,,,,,,,,,,,,,,,,,,,,,,,,456.9428382210026,None,2,0.5378679349960294,456.9428382210026,None,,,,,,,,,,,,,,,,None,None,None,,None,None,457.53139211199596,None,1,1,0.762088090996258,457.53139211199596,None,458.2933074913832,None,None,None,None,,10,001,2023_Jan_19_1151,searchDisc5,2021.2.3,59.98605492026564,
images/exp2a_trial_49_colour1_distractors9_l.png,l,1,1,9,0,,,,,0,109,109,109,,,,,,,,,,,,,,,,,,,,,,,,,,,,,,,,,,,,,,,,,,,458.31143072398845,None,2,0.7046973220130894,458.31143072398845,None,,,,,,,,,,,,,,,,None,None,None,,None,None,459.062022211001,None,1,1,0.6711315019929316,459.062022211001,None,459.72663068740223,None,None,None,None,,10,001,2023_Jan_19_1151,searchDisc5,2021.2.3,59.98605492026564,
images/exp1a_trial_271_colour1_distractors1_l.png,l,1,1,1,0,,,,,0,110,110,110,,,,,,,,,,,,,,,,,,,,,,,,,,,,,,,,,,,,,,,,,,,459.7430866030045,None,2,0.5376670719997492,459.7430866030045,None,,,,,,,,,,,,,,,,None,None,None,,None,None,460.32843836100074,None,1,1,0.8076208560087252,460.32843836100074,None,461.126757243395,None,None,None,None,,10,001,2023_Jan_19_1151,searchDisc5,2021.2.3,59.98605492026564,
images/exp2c_trial_156_colour3_distractors19_l.png,l,1,3,19,0,,,,,0,111,111,111,,,,,,,,,,,,,,,,,,,,,,,,,,,,,,,,,,,,,,,,,,,461.14279338298365,None,2,0.6213311259925831,461.14279338298365,None,,,,,,,,,,,,,,,,None,None,None,,None,None,461.8100260029896,None,1,1,0.6509150960191619,461.8100260029896,None,462.45951436239704,None,None,None,None,,10,001,2023_Jan_19_1151,searchDisc5,2021.2.3,59.98605492026564,
images/exp1a_trial_286_colour0_distractors0_r.png,r,3,0,0,0,,,,,0,112,112,112,,,,,,,,,,,,,,,,,,,,,,,,,,,,,,,,,,,,,,,,,,,462.4767563699861,None,2,0.6386971399770118,462.4767563699861,None,,,,,,,,,,,,,,,,None,None,None,,None,None,463.16041906000464,None,3,1,0.6240506449830718,463.16041906000464,None,463.7768797213881,None,None,None,None,,10,001,2023_Jan_19_1151,searchDisc5,2021.2.3,59.98605492026564,
images/exp2c_trial_297_colour2_distractors31_r.png,r,3,2,31,0,,,,,0,113,113,113,,,,,,,,,,,,,,,,,,,,,,,,,,,,,,,,,,,,,,,,,,,463.7936391219846,None,2,0.5195327889814507,463.7936391219846,None,,,,,,,,,,,,,,,,None,None,None,,None,None,464.36016635099077,None,3,1,0.6360385979933199,464.36016635099077,None,464.9935888613778,None,None,None,None,,10,001,2023_Jan_19_1151,searchDisc5,2021.2.3,59.98605492026564,
images/exp2a_trial_299_colour3_distractors4_r.png,r,3,3,4,0,,,,,0,114,114,114,,,,,,,,,,,,,,,,,,,,,,,,,,,,,,,,,,,,,,,,,,,465.0098516519938,None,2,0.5212019080063328,465.0098516519938,None,,,,,,,,,,,,,,,,None,None,None,,None,None,465.579031723988,None,3,1,0.588869995001005,465.579031723988,None,466.1602815064049,None,None,None,None,,10,001,2023_Jan_19_1151,searchDisc5,2021.2.3,59.98605492026564,
images/exp2b_trial_195_colour1_distractors19_r.png,r,3,1,19,0,,,,,0,115,115,115,,,,,,,,,,,,,,,,,,,,,,,,,,,,,,,,,,,,,,,,,,,466.17683451098856,None,2,0.9898785100085661,466.17683451098856,None,,,,,,,,,,,,,,,,None,None,None,,None,None,467.2102334719966,None,3,1,0.7181019490235485,467.2102334719966,None,467.9269148583786,None,None,None,None,,10,001,2023_Jan_19_1151,searchDisc5,2021.2.3,59.98605492026564,
images/exp1a_trial_291_colour1_distractors19_r.png,r,3,1,19,0,,,,,0,116,116,116,,,,,,,,,,,,,,,,,,,,,,,,,,,,,,,,,,,,,,,,,,,467.94337881100364,None,2,0.6229486129886936,467.94337881100364,None,,,,,,,,,,,,,,,,None,None,None,,None,None,468.61029196798336,None,3,1,0.7326669979956932,468.61029196798336,None,469.343720607381,None,None,None,None,,10,001,2023_Jan_19_1151,searchDisc5,2021.2.3,59.98605492026564,
images/exp1a_trial_64_colour1_distractors1_r.png,r,3,1,1,0,,,,,0,117,117,117,,,,,,,,,,,,,,,,,,,,,,,,,,,,,,,,,,,,,,,,,,,469.36005502499756,None,2,0.5911213840008713,469.36005502499756,None,,,,,,,,,,,,,,,,None,None,None,,None,None,469.9958426670055,None,3,1,0.6858729090017732,469.9958426670055,None,470.67689193940316,None,None,None,None,,10,001,2023_Jan_19_1151,searchDisc5,2021.2.3,59.98605492026564,
images/exp2b_trial_145_colour1_distractors9_l.png,l,1,1,9,0,,,,,0,118,118,118,,,,,,,,,,,,,,,,,,,,,,,,,,,,,,,,,,,,,,,,,,,470.69506368998555,None,2,0.5567171050061006,470.69506368998555,None,,,,,,,,,,,,,,,,None,None,None,,None,None,471.2959123500041,None,1,1,0.5859953080071136,471.2959123500041,None,471.87691318139844,None,None,None,None,,10,001,2023_Jan_19_1151,searchDisc5,2021.2.3,59.98605492026564,
images/exp2a_trial_229_colour2_distractors1_r.png,r,3,2,1,0,,,,,0,119,119,119,,,,,,,,,,,,,,,,,,,,,,,,,,,,,,,,,,,,,,,,,,,471.89366376399994,None,2,0.48780588601948693,471.89366376399994,None,,,,,,,,,,,,,,,,None,None,None,,None,None,472.42714067100314,None,3,1,0.5883041509950999,472.42714067100314,None,473.01035361039396,None,None,None,None,,10,001,2023_Jan_19_1151,searchDisc5,2021.2.3,59.98605492026564,
images/exp2b_trial_13_colour3_distractors19_r.png,r,3,3,19,0,,,,,0,120,120,120,,,,,,,,,,,,,,,,,,,,,,,,,,,,,,,,,,,,,,,,,,,473.0272583019978,None,2,0.5378465350077022,473.0272583019978,None,,,,,,,,,,,,,,,,None,None,None,,None,None,473.6127064259781,None,3,1,0.5702460989996325,473.6127064259781,None,474.1771228803933,None,None,None,None,,10,001,2023_Jan_19_1151,searchDisc5,2021.2.3,59.98605492026564,
images/exp2a_trial_170_colour3_distractors1_r.png,r,3,3,1,0,,,,,0,121,121,121,,,,,,,,,,,,,,,,,,,,,,,,,,,,,,,,,,,,,,,,,,,474.19310299598146,None,2,0.5047030839778017,474.19310299598146,None,,,,,,,,,,,,,,,,None,None,None,,None,None,474.7459750660055,None,3,1,0.5223794239864219,474.7459750660055,None,475.2604577003891,None,None,None,None,,10,001,2023_Jan_19_1151,searchDisc5,2021.2.3,59.98605492026564,
images/exp2c_trial_286_colour0_distractors0_r.png,r,3,0,0,0,,,,,0,122,122,122,,,,,,,,,,,,,,,,,,,,,,,,,,,,,,,,,,,,,,,,,,,475.2766929179779,None,2,0.5045953069929965,475.2766929179779,None,,,,,,,,,,,,,,,,None,None,None,,None,None,475.829166031006,None,3,1,0.45595836100983433,475.829166031006,None,476.27714791839537,None,None,None,None,,10,001,2023_Jan_19_1151,searchDisc5,2021.2.3,59.98605492026564,
images/exp2b_trial_18_colour1_distractors19_l.png,l,1,1,19,0,,,,,0,123,123,123,,,,,,,,,,,,,,,,,,,,,,,,,,,,,,,,,,,,,,,,,,,476.29570768299163,None,2,0.4876621650182642,476.29570768299163,None,,,,,,,,,,,,,,,,None,None,None,,None,None,476.82899410199025,None,1,1,0.6542942649975885,476.82899410199025,None,477.4772220063984,None,None,None,None,,10,001,2023_Jan_19_1151,searchDisc5,2021.2.3,59.98605492026564,
images/exp1a_trial_289_colour1_distractors4_r.png,r,3,1,4,0,,,,,0,124,124,124,,,,,,,,,,,,,,,,,,,,,,,,,,,,,,,,,,,,,,,,,,,477.4933889899985,None,2,0.43981573201017454,477.4933889899985,None,,,,,,,,,,,,,,,,None,None,None,,None,None,477.9790929390001,None,3,1,0.652219844982028,477.9790929390001,None,478.6269264253875,None,None,None,None,,10,001,2023_Jan_19_1151,searchDisc5,2021.2.3,59.98605492026564,
images/exp1a_trial_13_colour3_distractors19_r.png,r,3,3,19,0,,,,,0,125,125,125,,,,,,,,,,,,,,,,,,,,,,,,,,,,,,,,,,,,,,,,,,,478.6440276649955,None,2,0.4048836959991604,478.6440276649955,None,,,,,,,,,,,,,,,,None,None,None,,None,None,479.0960775529966,None,3,1,0.5846936439920682,479.0960775529966,None,479.67721463938653,None,None,None,None,,10,001,2023_Jan_19_1151,searchDisc5,2021.2.3,59.98605492026564,
images/exp1a_trial_70_colour2_distractors4_r.png,r,3,2,4,0,,,,,0,126,126,126,,,,,,,,,,,,,,,,,,,,,,,,,,,,,,,,,,,,,,,,,,,479.69329308799934,None,2,0.47119873599149287,479.69329308799934,None,,,,,,,,,,,,,,,,None,None,None,,None,None,480.21079293699586,None,3,1,0.6381227919773664,480.21079293699586,None,480.8439004763874,None,None,None,None,,10,001,2023_Jan_19_1151,searchDisc5,2021.2.3,59.98605492026564,
images/exp2c_trial_40_colour2_distractors19_r.png,r,3,2,19,0,,,,,0,127,127,127,,,,,,,,,,,,,,,,,,,,,,,,,,,,,,,,,,,,,,,,,,,480.86054969299585,None,2,0.4582870829908643,480.86054969299585,None,,,,,,,,,,,,,,,,None,None,None,,None,None,481.360797825997,None,3,1,0.5832721379993018,481.360797825997,None,481.9439589264017,None,None,None,None,,10,001,2023_Jan_19_1151,searchDisc5,2021.2.3,59.98605492026564,
images/exp2a_trial_61_colour3_distractors31_l.png,l,1,3,31,0,,,,,0,128,128,128,,,,,,,,,,,,,,,,,,,,,,,,,,,,,,,,,,,,,,,,,,,481.9607011799817,None,2,0.5039439850079361,481.9607011799817,None,,,,,,,,,,,,,,,,None,None,None,,None,None,482.5122844860016,None,1,1,0.586070043995278,482.5122844860016,None,483.0940628443874,None,None,None,None,,10,001,2023_Jan_19_1151,searchDisc5,2021.2.3,59.98605492026564,
images/exp2b_trial_50_colour1_distractors19_l.png,l,1,1,19,0,,,,,0,129,129,129,,,,,,,,,,,,,,,,,,,,,,,,,,,,,,,,,,,,,,,,,,,483.1107799419842,None,2,0.48789656098233536,483.1107799419842,None,,,,,,,,,,,,,,,,None,None,None,,None,None,483.6440577489848,None,1,1,0.6199331049865577,483.6440577489848,None,484.2606911193958,None,None,None,None,,10,001,2023_Jan_19_1151,searchDisc5,2021.2.3,59.98605492026564,
images/exp2c_trial_161_colour1_distractors4_r.png,r,3,1,4,0,,,,,0,130,130,130,,,,,,,,,,,,,,,,,,,,,,,,,,,,,,,,,,,,,,,,,,,484.2768611309875,None,2,0.4410702860041056,484.2768611309875,None,,,,,,,,,,,,,,,,None,None,None,,None,None,484.7609370179998,None,3,1,0.5861055649875198,484.7609370179998,None,485.34390042740563,None,None,None,None,,10,001,2023_Jan_19_1151,searchDisc5,2021.2.3,59.98605492026564,
images/exp2b_trial_130_colour1_distractors9_r.png,r,3,1,9,0,,,,,0,131,131,131,,,,,,,,,,,,,,,,,,,,,,,,,,,,,,,,,,,,,,,,,,,485.36078184098005,None,2,0.43974490999244153,485.36078184098005,None,,,,,,,,,,,,,,,,None,None,None,,None,None,485.84554167598253,None,3,1,0.5360666770138778,485.84554167598253,None,486.3775576433778,None,None,None,None,,10,001,2023_Jan_19_1151,searchDisc5,2021.2.3,59.98605492026564,
images/exp2b_trial_222_colour0_distractors0_r.png,r,3,0,0,0,,,,,0,132,132,132,,,,,,,,,,,,,,,,,,,,,,,,,,,,,,,,,,,,,,,,,,,486.3941233189835,None,2,0.47378906898666173,486.3941233189835,None,,,,,,,,,,,,,,,,None,None,None,,None,None,486.91303810698446,None,3,1,0.8700658989837393,486.91303810698446,None,487.77742727340376,None,None,None,None,,10,001,2023_Jan_19_1151,searchDisc5,2021.2.3,59.98605492026564,
images/exp2b_trial_243_colour1_distractors31_l.png,l,1,1,31,0,,,,,0,133,133,133,,,,,,,,,,,,,,,,,,,,,,,,,,,,,,,,,,,,,,,,,,,487.79359713499434,None,2,0.473678024020046,487.79359713499434,None,,,,,,,,,,,,,,,,None,None,None,,None,None,488.31282566298614,None,1,1,0.6338862549746409,488.31282566298614,None,488.9441787823831,None,None,None,None,,10,001,2023_Jan_19_1151,searchDisc5,2021.2.3,59.98605492026564,
images/exp2c_trial_255_colour0_distractors0_l.png,l,1,0,0,0,,,,,0,134,134,134,,,,,,,,,,,,,,,,,,,,,,,,,,,,,,,,,,,,,,,,,,,488.9608188190032,None,2,0.5711849440122023,488.9608188190032,None,,,,,,,,,,,,,,,,None,None,None,,None,None,489.57962294699973,None,1,1,0.5397873749898281,489.57962294699973,None,490.1108340413863,None,None,None,None,,10,001,2023_Jan_19_1151,searchDisc5,2021.2.3,59.98605492026564,
images/exp2b_trial_309_colour2_distractors4_l.png,l,1,2,4,0,,,,,0,135,135,135,,,,,,,,,,,,,,,,,,,,,,,,,,,,,,,,,,,,,,,,,,,490.12955791899003,None,2,0.5207625209877733,490.12955791899003,None,,,,,,,,,,,,,,,,None,None,None,,None,None,490.6962079980003,None,1,1,0.7550671889912337,490.6962079980003,None,491.44389115039087,None,None,None,None,,10,001,2023_Jan_19_1151,searchDisc5,2021.2.3,59.98605492026564,
images/exp2c_trial_21_colour2_distractors4_l.png,l,1,2,4,0,,,,,0,136,136,136,,,,,,,,,,,,,,,,,,,,,,,,,,,,,,,,,,,,,,,,,,,491.4610842980037,None,2,0.47103631097706966,491.4610842980037,None,,,,,,,,,,,,,,,,None,None,None,,None,None,491.9774180839886,None,1,1,0.5725269959948491,491.9774180839886,None,492.5442144654022,None,None,None,None,,10,001,2023_Jan_19_1151,searchDisc5,2021.2.3,59.98605492026564,
images/exp1a_trial_40_colour2_distractors19_r.png,r,3,2,19,0,,,,,0,137,137,137,,,,,,,,,,,,,,,,,,,,,,,,,,,,,,,,,,,,,,,,,,,492.56086530699395,None,2,0.4713045929966029,492.56086530699395,None,,,,,,,,,,,,,,,,None,None,None,,None,None,493.0776413269923,None,3,1,0.6172313170100097,493.0776413269923,None,493.69450247439966,None,None,None,None,,10,001,2023_Jan_19_1151,searchDisc5,2021.2.3,59.98605492026564,
images/exp2a_trial_19_colour1_distractors31_l.png,l,1,1,31,0,,,,,0,138,138,138,,,,,,,,,,,,,,,,,,,,,,,,,,,,,,,,,,,,,,,,,,,493.7107037990063,None,2,0.43983358499826863,493.7107037990063,None,,,,,,,,,,,,,,,,None,None,None,,None,None,494.1963932949875,None,1,1,0.7678063100029249,494.1963932949875,None,494.9612245794066,None,None,None,None,,10,001,2023_Jan_19_1151,searchDisc5,2021.2.3,59.98605492026564,
images/exp2b_trial_215_colour2_distractors19_l.png,l,1,2,19,0,,,,,0,139,139,139,,,,,,,,,,,,,,,,,,,,,,,,,,,,,,,,,,,,,,,,,,,494.97976531798486,None,2,0.4066111829888541,494.97976531798486,None,,,,,,,,,,,,,,,,None,None,None,,None,None,495.4277834829991,None,1,1,0.6344422580150422,495.4277834829991,None,496.06105300540514,None,None,None,None,,10,001,2023_Jan_19_1151,searchDisc5,2021.2.3,59.98605492026564,
images/exp2c_trial_247_colour2_distractors19_l.png,l,1,2,19,0,,,,,0,140,140,140,,,,,,,,,,,,,,,,,,,,,,,,,,,,,,,,,,,,,,,,,,,496.07778552599484,None,2,0.38977643797989003,496.07778552599484,None,,,,,,,,,,,,,,,,None,None,None,,None,None,496.51449506598874,None,1,1,0.8039048990176525,496.51449506598874,None,497.3132777593943,None,None,None,None,,10,001,2023_Jan_19_1151,searchDisc5,2021.2.3,59.98605492026564,
images/exp2a_trial_208_colour1_distractors4_l.png,l,1,1,4,0,,,,,0,141,141,141,,,,,,,,,,,,,,,,,,,,,,,,,,,,,,,,,,,,,,,,,,,497.3270658759866,None,2,0.38580905500566587,497.3270658759866,None,,,,,,,,,,,,,,,,None,None,None,,None,None,497.7618244710029,None,1,1,0.6390651830006391,497.7618244710029,None,498.39451017540125,None,None,None,None,,10,001,2023_Jan_19_1151,searchDisc5,2021.2.3,59.98605492026564,
images/exp1a_trial_112_colour1_distractors4_l.png,l,1,1,4,0,,,,,0,142,142,142,,,,,,,,,,,,,,,,,,,,,,,,,,,,,,,,,,,,,,,,,,,498.41116811998654,None,2,0.4074394709896296,498.41116811998654,None,,,,,,,,,,,,,,,,None,None,None,,None,None,498.8620495539799,None,1,1,1.102234079997288,498.8620495539799,None,499.9611715423904,None,None,None,None,,10,001,2023_Jan_19_1151,searchDisc5,2021.2.3,59.98605492026564,
images/exp2b_trial_187_colour3_distractors9_l.png,l,1,3,9,0,,,,,0,143,143,143,,,,,,,,,,,,,,,,,,,,,,,,,,,,,,,,,,,,,,,,,,,499.98080613597995,None,2,0.3571193910029251,499.98080613597995,None,,,,,,,,,,,,,,,,None,None,None,,None,None,500.38054312800523,None,1,1,0.6685434620012529,500.38054312800523,None,501.04463643537895,None,None,None,None,,10,001,2023_Jan_19_1151,searchDisc5,2021.2.3,59.98605492026564,
images/exp2b_trial_194_colour1_distractors9_r.png,r,3,1,9,0,,,,,0,144,144,144,,,,,,,,,,,,,,,,,,,,,,,,,,,,,,,,,,,,,,,,,,,501.0618291689898,None,2,0.33786895900266245,501.0618291689898,None,,,,,,,,,,,,,,,,None,None,None,,None,None,501.4472474719805,None,3,1,0.7543046599894296,501.4472474719805,None,502.1946594143898,None,None,None,None,,10,001,2023_Jan_19_1151,searchDisc5,2021.2.3,59.98605492026564,
images/exp2b_trial_288_colour1_distractors1_r.png,r,3,1,1,0,,,,,0,145,145,145,,,,,,,,,,,,,,,,,,,,,,,,,,,,,,,,,,,,,,,,,,,502.2112746280036,None,2,0.3567070360004436,502.2112746280036,None,,,,,,,,,,,,,,,,None,None,None,,None,None,502.61453686098685,None,3,1,0.7040573130070698,502.61453686098685,None,503.3114025043993,None,None,None,None,,10,001,2023_Jan_19_1151,searchDisc5,2021.2.3,59.98605492026564,
images/exp2c_trial_229_colour2_distractors1_r.png,r,3,2,1,0,,,,,0,146,146,146,,,,,,,,,,,,,,,,,,,,,,,,,,,,,,,,,,,,,,,,,,,503.3279369850061,None,2,0.40392913602408953,503.3279369850061,None,,,,,,,,,,,,,,,,None,None,None,,None,None,503.7782502420014,None,3,1,0.7730452560062986,503.7782502420014,None,504.54466863937853,None,None,None,None,,10,001,2023_Jan_19_1151,searchDisc5,2021.2.3,59.98605492026564,
images/exp2a_trial_53_colour2_distractors4_l.png,l,1,2,4,0,,,,,0,147,147,147,,,,,,,,,,,,,,,,,,,,,,,,,,,,,,,,,,,,,,,,,,,504.562122547999,None,2,0.37285939999856055,504.562122547999,None,,,,,,,,,,,,,,,,None,None,None,,None,None,504.9784951490001,None,1,1,0.586401451000711,504.9784951490001,None,505.561404734393,None,None,None,None,,10,001,2023_Jan_19_1151,searchDisc5,2021.2.3,59.98605492026564,
images/exp2c_trial_53_colour2_distractors4_l.png,l,1,2,4,0,,,,,0,148,148,148,,,,,,,,,,,,,,,,,,,,,,,,,,,,,,,,,,,,,,,,,,,505.57910279597854,None,2,0.4239573619852308,505.57910279597854,None,,,,,,,,,,,,,,,,None,None,None,,None,None,506.0452793400036,None,1,1,0.7371154810243752,506.0452793400036,None,506.7792634173908,None,None,None,None,,10,001,2023_Jan_19_1151,searchDisc5,2021.2.3,59.98605492026564,
images/exp1a_trial_102_colour2_distractors4_r.png,r,3,2,4,0,,,,,0,149,149,149,,,,,,,,,,,,,,,,,,,,,,,,,,,,,,,,,,,,,,,,,,,506.7954073489818,None,2,0.3699782920011785,506.7954073489818,None,,,,,,,,,,,,,,,,None,None,None,,None,None,507.21374407497933,None,3,1,0.7549077369912993,507.21374407497933,None,507.96161113138953,None,None,None,None,,10,001,2023_Jan_19_1151,searchDisc5,2021.2.3,59.98605492026564,
images/exp2a_trial_83_colour1_distractors31_l.png,l,1,1,31,0,,,,,0,150,150,150,,,,,,,,,,,,,,,,,,,,,,,,,,,,,,,,,,,,,,,,,,,507.9790590929915,None,2,0.38745721298619173,507.9790590929915,None,,,,,,,,,,,,,,,,None,None,None,,None,None,508.4144307539973,None,1,1,0.6707655760110356,508.4144307539973,None,509.07911713838405,None,None,None,None,,10,001,2023_Jan_19_1151,searchDisc5,2021.2.3,59.98605492026564,
images/exp1a_trial_114_colour1_distractors19_l.png,l,1,1,19,0,,,,,0,151,151,151,,,,,,,,,,,,,,,,,,,,,,,,,,,,,,,,,,,,,,,,,,,509.0947869409865,None,2,0.3373942770122085,509.0947869409865,None,,,,,,,,,,,,,,,,None,None,None,,None,None,509.4809551909857,None,1,1,1.0831338500138372,509.4809551909857,None,510.56080275239367,None,None,None,None,,10,001,2023_Jan_19_1151,searchDisc5,2021.2.3,59.98605492026564,
images/exp2c_trial_158_colour0_distractors0_r.png,r,3,0,0,0,,,,,0,152,152,152,,,,,,,,,,,,,,,,,,,,,,,,,,,,,,,,,,,,,,,,,,,510.57902256498346,None,2,0.35565250398940407,510.57902256498346,None,,,,,,,,,,,,,,,,None,None,None,,None,None,510.97841501099174,None,3,1,0.6399342320219148,510.97841501099174,None,511.612370338387,None,None,None,None,,10,001,2023_Jan_19_1151,searchDisc5,2021.2.3,59.98605492026564,
images/exp2a_trial_166_colour2_distractors4_r.png,r,3,2,4,0,,,,,0,153,153,153,,,,,,,,,,,,,,,,,,,,,,,,,,,,,,,,,,,,,,,,,,,511.62849866598845,None,2,0.3712039070087485,511.62849866598845,None,,,,,,,,,,,,,,,,None,None,None,,None,None,512.0470788920065,None,3,1,0.6359808510169387,512.0470788920065,None,512.6782769203797,None,None,None,None,,10,001,2023_Jan_19_1151,searchDisc5,2021.2.3,59.98605492026564,
images/exp1a_trial_170_colour3_distractors1_r.png,r,3,3,1,0,,,,,0,154,154,154,,,,,,,,,,,,,,,,,,,,,,,,,,,,,,,,,,,,,,,,,,,512.6948685649841,None,2,0.38883584400173277,512.6948685649841,None,,,,,,,,,,,,,,,,None,None,None,,None,None,513.1315896879823,None,3,1,0.5548446619941387,513.1315896879823,None,513.6782076594042,None,None,None,None,,10,001,2023_Jan_19_1151,searchDisc5,2021.2.3,59.98605492026564,
images/exp2c_trial_38_colour2_distractors4_r.png,r,3,2,4,0,,,,,0,155,155,155,,,,,,,,,,,,,,,,,,,,,,,,,,,,,,,,,,,,,,,,,,,513.6954049569904,None,2,0.3711758769932203,513.6954049569904,None,,,,,,,,,,,,,,,,None,None,None,,None,None,514.1145820579841,None,3,1,0.45528792799450457,514.1145820579841,None,514.5616498633841,None,None,None,None,,10,001,2023_Jan_19_1151,searchDisc5,2021.2.3,59.98605492026564,
images/exp2a_trial_218_colour3_distractors4_l.png,l,1,3,4,0,,,,,0,156,156,156,,,,,,,,,,,,,,,,,,,,,,,,,,,,,,,,,,,,,,,,,,,514.579313047987,None,2,0.33851822500582784,514.579313047987,None,,,,,,,,,,,,,,,,None,None,None,,None,None,514.9620690610027,None,1,1,0.6380741870088968,514.9620690610027,None,515.5950161304005,None,None,None,None,,10,001,2023_Jan_19_1151,searchDisc5,2021.2.3,59.98605492026564,
images/exp1a_trial_209_colour1_distractors9_l.png,l,1,1,9,0,,,,,0,157,157,157,,,,,,,,,,,,,,,,,,,,,,,,,,,,,,,,,,,,,,,,,,,515.6120544199948,None,2,0.3713439150014892,515.6120544199948,None,,,,,,,,,,,,,,,,None,None,None,,None,None,516.031016930996,None,1,1,0.7537388830096461,516.031016930996,None,516.7784829743993,None,None,None,None,,10,001,2023_Jan_19_1151,searchDisc5,2021.2.3,59.98605492026564,
images/exp2c_trial_5_colour2_distractors1_r.png,r,3,2,1,0,,,,,0,158,158,158,,,,,,,,,,,,,,,,,,,,,,,,,,,,,,,,,,,,,,,,,,,516.7956369959866,None,2,0.3552017849870026,516.7956369959866,None,,,,,,,,,,,,,,,,None,None,None,,None,None,517.1972683240019,None,3,1,0.6052043300005607,517.1972683240019,None,517.7950595253875,None,None,None,None,,10,001,2023_Jan_19_1151,searchDisc5,2021.2.3,59.98605492026564,
images/exp1a_trial_277_colour2_distractors4_l.png,l,1,2,4,0,,,,,0,159,159,159,,,,,,,,,,,,,,,,,,,,,,,,,,,,,,,,,,,,,,,,,,,517.8116742479906,None,2,0.38746584800537676,517.8116742479906,None,,,,,,,,,,,,,,,,None,None,None,,None,None,518.2459629079967,None,1,1,0.6222483600140549,518.2459629079967,None,518.8628973523824,None,None,None,None,,10,001,2023_Jan_19_1151,searchDisc5,2021.2.3,59.98605492026564,
images/exp2c_trial_191_colour0_distractors0_l.png,l,1,0,0,0,,,,,0,160,160,160,,,,,,,,,,,,,,,,,,,,,,,,,,,,,,,,,,,,,,,,,,,518.8793646989798,None,2,0.3531286779907532,518.8793646989798,None,,,,,,,,,,,,,,,,None,None,None,,None,None,519.2815926439944,None,1,1,0.6227355250157416,519.2815926439944,None,519.8951909603871,None,None,None,None,,10,001,2023_Jan_19_1151,searchDisc5,2021.2.3,59.98605492026564,
images/exp2c_trial_15_colour1_distractors1_l.png,l,1,1,1,0,,,,,0,161,161,161,,,,,,,,,,,,,,,,,,,,,,,,,,,,,,,,,,,,,,,,,,,519.9116115329962,None,2,0.3710731390165165,519.9116115329962,None,,,,,,,,,,,,,,,,None,None,None,,None,None,520.329477975989,None,1,1,0.6394953999842983,520.329477975989,None,520.9617868893926,None,None,None,None,,10,001,2023_Jan_19_1151,searchDisc5,2021.2.3,59.98605492026564,
images/exp2c_trial_283_colour3_distractors9_l.png,l,1,3,9,0,,,,,0,162,162,162,,,,,,,,,,,,,,,,,,,,,,,,,,,,,,,,,,,,,,,,,,,520.9790574689978,None,2,0.3725982180039864,520.9790574689978,None,,,,,,,,,,,,,,,,None,None,None,,None,None,521.3980357219989,None,1,1,0.6546078209939878,521.3980357219989,None,522.0463500933926,None,None,None,None,,10,001,2023_Jan_19_1151,searchDisc5,2021.2.3,59.98605492026564,
images/exp2c_trial_155_colour3_distractors9_l.png,l,1,3,9,0,,,,,0,163,163,163,,,,,,,,,,,,,,,,,,,,,,,,,,,,,,,,,,,,,,,,,,,522.0641853959823,None,2,0.3727226380142383,522.0641853959823,None,,,,,,,,,,,,,,,,None,None,None,,None,None,522.4807709629822,None,1,1,0.7701708640088327,522.4807709629822,None,523.2452094233973,None,None,None,None,,10,001,2023_Jan_19_1151,searchDisc5,2021.2.3,59.98605492026564,
images/exp2c_trial_118_colour2_distractors9_l.png,l,1,2,9,0,,,,,0,164,164,164,,,,,,,,,,,,,,,,,,,,,,,,,,,,,,,,,,,,,,,,,,,523.261881672981,None,2,0.3684703540056944,523.261881672981,None,,,,,,,,,,,,,,,,None,None,None,,None,None,523.6813655319856,None,1,1,0.6056327219994273,523.6813655319856,None,524.2796019553876,None,None,None,None,,10,001,2023_Jan_19_1151,searchDisc5,2021.2.3,59.98605492026564,
images/exp2b_trial_33_colour1_distractors4_r.png,r,3,1,4,0,,,,,0,165,165,165,,,,,,,,,,,,,,,,,,,,,,,,,,,,,,,,,,,,,,,,,,,524.2971619089949,None,2,0.454001808015164,524.2971619089949,None,,,,,,,,,,,,,,,,None,None,None,,None,None,524.7962207069795,None,3,1,0.9045611900219228,524.7962207069795,None,525.6952839073871,None,None,None,None,,10,001,2023_Jan_19_1151,searchDisc5,2021.2.3,59.98605492026564,
images/exp2c_trial_56_colour2_distractors31_l.png,l,1,2,31,0,,,,,0,166,166,166,,,,,,,,,,,,,,,,,,,,,,,,,,,,,,,,,,,,,,,,,,,525.7124937069893,None,2,0.40812790900235996,525.7124937069893,None,,,,,,,,,,,,,,,,None,None,None,,None,None,526.1650849540019,None,1,1,0.717023113014875,526.1650849540019,None,526.8786260773865,None,None,None,None,,10,001,2023_Jan_19_1151,searchDisc5,2021.2.3,59.98605492026564,
images/exp2c_trial_302_colour3_distractors31_r.png,r,3,3,31,0,,,,,0,167,167,167,,,,,,,,,,,,,,,,,,,,,,,,,,,,,,,,,,,,,,,,,,,526.8960145879828,None,2,0.34050292198662646,526.8960145879828,None,,,,,,,,,,,,,,,,None,None,None,,None,None,527.2809267929988,None,3,1,0.6152181049983483,527.2809267929988,None,527.8944440214051,None,None,None,None,,10,001,2023_Jan_19_1151,searchDisc5,2021.2.3,59.98605492026564,
images/exp2c_trial_316_colour3_distractors19_l.png,l,1,3,19,0,,,,,0,168,168,168,,,,,,,,,,,,,,,,,,,,,,,,,,,,,,,,,,,,,,,,,,,527.9130285609863,None,2,0.37298699899110943,527.9130285609863,None,,,,,,,,,,,,,,,,None,None,None,,None,None,528.3317893749918,None,1,1,0.670621466008015,528.3317893749918,None,528.9953798003932,None,None,None,None,,10,001,2023_Jan_19_1151,searchDisc5,2021.2.3,59.98605492026564,
images/exp1a_trial_41_colour2_distractors31_r.png,r,3,2,31,0,,,,,0,169,169,169,,,,,,,,,,,,,,,,,,,,,,,,,,,,,,,,,,,,,,,,,,,529.0121438200003,None,2,0.3184847800002899,529.0121438200003,None,,,,,,,,,,,,,,,,None,None,None,,None,None,529.3809956600016,None,3,1,0.6833717419940513,529.3809956600016,None,530.0618525803817,None,None,None,None,,10,001,2023_Jan_19_1151,searchDisc5,2021.2.3,59.98605492026564,
images/exp2a_trial_261_colour2_distractors1_r.png,r,3,2,1,0,,,,,0,170,170,170,,,,,,,,,,,,,,,,,,,,,,,,,,,,,,,,,,,,,,,,,,,530.0808490519994,None,2,0.3712928229942918,530.0808490519994,None,,,,,,,,,,,,,,,,None,None,None,,None,None,530.4976890929975,None,3,1,1.6220675980148371,530.4976890929975,None,532.1120682793932,None,None,None,None,,10,001,2023_Jan_19_1151,searchDisc5,2021.2.3,59.98605492026564,
images/exp2a_trial_20_colour2_distractors1_l.png,l,1,2,1,0,,,,,0,171,171,171,,,,,,,,,,,,,,,,,,,,,,,,,,,,,,,,,,,,,,,,,,,532.1287933609856,None,2,0.8395669509773143,532.1287933609856,None,,,,,,,,,,,,,,,,None,None,None,,None,None,533.0129281379923,None,1,1,0.6047984030155931,533.0129281379923,None,533.6132155344036,None,None,None,None,,10,001,2023_Jan_19_1151,searchDisc5,2021.2.3,59.98605492026564,
images/exp1a_trial_89_colour3_distractors1_l.png,l,1,3,1,0,,,,,0,172,172,172,,,,,,,,,,,,,,,,,,,,,,,,,,,,,,,,,,,,,,,,,,,533.6285409329867,None,2,0.654198255011579,533.6285409329867,None,,,,,,,,,,,,,,,,None,None,None,,None,None,534.3288956269971,None,1,1,0.6399275469884742,534.3288956269971,None,534.9617627113854,None,None,None,None,,10,001,2023_Jan_19_1151,searchDisc5,2021.2.3,59.98605492026564,
images/exp1a_trial_49_colour1_distractors9_l.png,l,1,1,9,0,,,,,0,173,173,173,,,,,,,,,,,,,,,,,,,,,,,,,,,,,,,,,,,,,,,,,,,534.9782401849807,None,2,0.6362969699839596,534.9782401849807,None,,,,,,,,,,,,,,,,None,None,None,,None,None,535.6632336399925,None,1,1,0.5876063109899405,535.6632336399925,None,536.2454969393817,None,None,None,None,,10,001,2023_Jan_19_1151,searchDisc5,2021.2.3,59.98605492026564,
images/exp2a_trial_4_colour1_distractors31_r.png,r,3,1,31,0,,,,,0,174,174,174,,,,,,,,,,,,,,,,,,,,,,,,,,,,,,,,,,,,,,,,,,,536.2630304349877,None,2,0.5900659399922006,536.2630304349877,None,,,,,,,,,,,,,,,,None,None,None,,None,None,536.8984769379895,None,3,1,0.6173567649966571,536.8984769379895,None,537.5133475413983,None,None,None,None,,10,001,2023_Jan_19_1151,searchDisc5,2021.2.3,59.98605492026564,
images/exp1a_trial_28_colour3_distractors19_l.png,l,1,3,19,0,,,,,0,175,175,175,,,,,,,,,,,,,,,,,,,,,,,,,,,,,,,,,,,,,,,,,,,537.5309441699937,None,2,0.6368172789807431,537.5309441699937,None,,,,,,,,,,,,,,,,None,None,None,,None,None,538.2125473849883,None,1,1,0.6185911349894013,538.2125473849883,None,538.8289754793892,None,None,None,None,,10,001,2023_Jan_19_1151,searchDisc5,2021.2.3,59.98605492026564,
images/exp2a_trial_149_colour2_distractors4_l.png,l,1,2,4,0,,,,,0,176,176,176,,,,,,,,,,,,,,,,,,,,,,,,,,,,,,,,,,,,,,,,,,,538.8456723379786,None,2,0.5742269920010585,538.8456723379786,None,,,,,,,,,,,,,,,,None,None,None,,None,None,539.4653313710005,None,1,1,0.7509597250027582,539.4653313710005,None,540.2124021293799,None,None,None,None,,10,001,2023_Jan_19_1151,searchDisc5,2021.2.3,59.98605492026564,
images/exp2a_trial_132_colour1_distractors31_r.png,r,3,1,31,0,,,,,0,177,177,177,,,,,,,,,,,,,,,,,,,,,,,,,,,,,,,,,,,,,,,,,,,540.2282598099846,None,2,0.5733589870214928,540.2282598099846,None,,,,,,,,,,,,,,,,None,None,None,,None,None,540.8459677689825,None,3,1,0.733844920003321,540.8459677689825,None,541.5800150004012,None,None,None,None,,10,001,2023_Jan_19_1151,searchDisc5,2021.2.3,59.98605492026564,
images/exp1a_trial_227_colour1_distractors19_r.png,r,3,1,19,0,,,,,0,178,178,178,,,,,,,,,,,,,,,,,,,,,,,,,,,,,,,,,,,,,,,,,,,541.5958300729981,None,2,0.5896018269995693,541.5958300729981,None,,,,,,,,,,,,,,,,None,None,None,,None,None,542.231564177986,None,3,1,0.7153427430021111,542.231564177986,None,542.9457542623946,None,None,None,None,,10,001,2023_Jan_19_1151,searchDisc5,2021.2.3,59.98605492026564,
images/exp1a_trial_191_colour0_distractors0_l.png,l,1,0,0,0,,,,,0,179,179,179,,,,,,,,,,,,,,,,,,,,,,,,,,,,,,,,,,,,,,,,,,,542.9623970029934,None,2,0.5220677559846081,542.9623970029934,None,,,,,,,,,,,,,,,,None,None,None,,None,None,543.5320780969923,None,1,1,0.5387977750215214,543.5320780969923,None,544.0624759683939,None,None,None,None,,10,001,2023_Jan_19_1151,searchDisc5,2021.2.3,59.98605492026564,
images/exp2a_trial_45_colour3_distractors19_r.png,r,3,3,19,0,,,,,0,180,180,180,,,,,,,,,,,,,,,,,,,,,,,,,,,,,,,,,,,,,,,,,,,544.08220346499,None,2,0.4717741170024965,544.08220346499,None,,,,,,,,,,,,,,,,None,None,None,,None,None,544.5987468509993,None,3,1,0.5188150320027489,544.5987468509993,None,545.1125566213829,None,None,None,None,,10,001,2023_Jan_19_1151,searchDisc5,2021.2.3,59.98605492026564,
images/exp1a_trial_139_colour3_distractors4_r.png,r,3,3,4,0,,,,,0,181,181,181,,,,,,,,,,,,,,,,,,,,,,,,,,,,,,,,,,,,,,,,,,,545.1321974019811,None,2,0.4552297879999969,545.1321974019811,None,,,,,,,,,,,,,,,,None,None,None,,None,None,545.6318844229972,None,3,1,0.6400523949996568,545.6318844229972,None,546.2626364163967,None,None,None,None,,10,001,2023_Jan_19_1151,searchDisc5,2021.2.3,59.98605492026564,
images/exp2b_trial_208_colour1_distractors4_l.png,l,1,1,4,0,,,,,0,182,182,182,,,,,,,,,,,,,,,,,,,,,,,,,,,,,,,,,,,,,,,,,,,546.2801015760051,None,2,0.4044108019734267,546.2801015760051,None,,,,,,,,,,,,,,,,None,None,None,,None,None,546.7318663189944,None,1,1,0.537927942990791,546.7318663189944,None,547.2636158623878,None,None,None,None,,10,001,2023_Jan_19_1151,searchDisc5,2021.2.3,59.98605492026564,
images/exp2c_trial_20_colour2_distractors1_l.png,l,1,2,1,0,,,,,0,183,183,183,,,,,,,,,,,,,,,,,,,,,,,,,,,,,,,,,,,,,,,,,,,547.2791960309842,None,2,0.35543623799458146,547.2791960309842,None,,,,,,,,,,,,,,,,None,None,None,,None,None,547.68148831898,None,1,1,0.6209678390005138,547.68148831898,None,548.2959475953918,None,None,None,None,,10,001,2023_Jan_19_1151,searchDisc5,2021.2.3,59.98605492026564,
images/exp2b_trial_3_colour1_distractors19_r.png,r,3,1,19,0,,,,,0,184,184,184,,,,,,,,,,,,,,,,,,,,,,,,,,,,,,,,,,,,,,,,,,,548.3134728749865,None,2,0.33835399500094354,548.3134728749865,None,,,,,,,,,,,,,,,,None,None,None,,None,None,548.6977438479953,None,3,1,0.5538596469850745,548.6977438479953,None,549.2469641303848,None,None,None,None,,10,001,2023_Jan_19_1151,searchDisc5,2021.2.3,59.98605492026564,
images/exp1a_trial_193_colour1_distractors4_r.png,r,3,1,4,0,,,,,0,185,185,185,,,,,,,,,,,,,,,,,,,,,,,,,,,,,,,,,,,,,,,,,,,549.2631389339804,None,2,0.353603364987066,549.2631389339804,None,,,,,,,,,,,,,,,,None,None,None,,None,None,549.6639512489783,None,3,1,0.5729423699958716,549.6639512489783,None,550.229305380382,None,None,None,None,,10,001,2023_Jan_19_1151,searchDisc5,2021.2.3,59.98605492026564,
images/exp2c_trial_62_colour0_distractors0_r.png,r,3,0,0,0,,,,,0,186,186,186,,,,,,,,,,,,,,,,,,,,,,,,,,,,,,,,,,,,,,,,,,,550.2450451509794,None,2,0.30321586498757824,550.2450451509794,None,,,,,,,,,,,,,,,,None,None,None,,None,None,550.5952977449924,None,3,1,0.5721885780221783,550.5952977449924,None,551.162668339393,None,None,None,None,,10,001,2023_Jan_19_1151,searchDisc5,2021.2.3,59.98605492026564,
images/exp1a_trial_226_colour1_distractors9_r.png,r,3,1,9,0,,,,,0,187,187,187,,,,,,,,,,,,,,,,,,,,,,,,,,,,,,,,,,,,,,,,,,,551.1814167480043,None,2,0.3055784030002542,551.1814167480043,None,,,,,,,,,,,,,,,,None,None,None,,None,None,551.5323467709823,None,1,0,0.8198140329914168,551.5323467709823,None,552.3460130583932,None,None,None,None,,10,001,2023_Jan_19_1151,searchDisc5,2021.2.3,59.98605492026564,
images/exp2b_trial_73_colour2_distractors31_r.png,r,3,2,31,0,,,,,0,188,188,188,,,,,,,,,,,,,,,,,,,,,,,,,,,,,,,,,,,,,,,,,,,552.364768088999,None,2,1.4213568389823195,552.364768088999,None,,,,,,,,,,,,,,,,None,None,None,,None,None,553.8316304890031,None,3,1,0.6046921130036935,553.8316304890031,None,554.4293851923809,None,None,None,None,,10,001,2023_Jan_19_1151,searchDisc5,2021.2.3,59.98605492026564,
images/exp1a_trial_312_colour2_distractors31_l.png,l,1,2,31,0,,,,,0,189,189,189,,,,,,,,,,,,,,,,,,,,,,,,,,,,,,,,,,,,,,,,,,,554.4481849339791,None,2,0.6052904870011844,554.4481849339791,None,,,,,,,,,,,,,,,,None,None,None,,None,None,555.0957438629994,None,1,1,0.6157832430035342,555.0957438629994,None,555.7148201874021,None,None,None,None,,10,001,2023_Jan_19_1151,searchDisc5,2021.2.3,59.98605492026564,
images/exp2b_trial_111_colour1_distractors1_l.png,l,1,1,1,0,,,,,0,190,190,190,,,,,,,,,,,,,,,,,,,,,,,,,,,,,,,,,,,,,,,,,,,555.7319401050045,None,2,0.7213471099967137,555.7319401050045,None,,,,,,,,,,,,,,,,None,None,None,,None,None,556.4971629119827,None,1,1,0.7700897169997916,556.4971629119827,None,557.2629895403894,None,None,None,None,,10,001,2023_Jan_19_1151,searchDisc5,2021.2.3,59.98605492026564,
images/exp2c_trial_233_colour2_distractors31_r.png,r,3,2,31,0,,,,,0,191,191,191,,,,,,,,,,,,,,,,,,,,,,,,,,,,,,,,,,,,,,,,,,,557.2806394429936,None,2,0.6882458349864464,557.2806394429936,None,,,,,,,,,,,,,,,,None,None,None,,None,None,558.0130891150038,None,3,1,0.6015865679946728,558.0130891150038,None,558.6128133563994,None,None,None,None,,10,001,2023_Jan_19_1151,searchDisc5,2021.2.3,59.98605492026564,
images/exp1a_trial_105_colour2_distractors31_r.png,r,3,2,31,0,,,,,0,192,192,192,,,,,,,,,,,,,,,,,,,,,,,,,,,,,,,,,,,,,,,,,,,558.6315816539864,None,2,0.5566777440253645,558.6315816539864,None,,,,,,,,,,,,,,,,None,None,None,,None,None,559.2298003780015,None,3,1,0.6311092020187061,559.2298003780015,None,559.8628684663942,None,None,None,None,,10,001,2023_Jan_19_1151,searchDisc5,2021.2.3,59.98605492026564,
images/exp2b_trial_90_colour3_distractors4_l.png,l,1,3,4,0,,,,,0,193,193,193,,,,,,,,,,,,,,,,,,,,,,,,,,,,,,,,,,,,,,,,,,,559.8800031739811,None,2,0.49012059799861163,559.8800031739811,None,,,,,,,,,,,,,,,,None,None,None,,None,None,560.4132037139789,None,1,1,0.6695560240186751,560.4132037139789,None,561.0795403563912,None,None,None,None,,10,001,2023_Jan_19_1151,searchDisc5,2021.2.3,59.98605492026564,
images/exp2a_trial_9_colour2_distractors31_r.png,r,3,2,31,0,,,,,0,194,194,194,,,,,,,,,,,,,,,,,,,,,,,,,,,,,,,,,,,,,,,,,,,561.0990037249867,None,2,0.5397019369993359,561.0990037249867,None,,,,,,,,,,,,,,,,None,None,None,,None,None,561.6798712669988,None,3,1,0.6934853400161956,561.6798712669988,None,562.379447046385,None,None,None,None,,10,001,2023_Jan_19_1151,searchDisc5,2021.2.3,59.98605492026564,
images/exp1a_trial_313_colour3_distractors1_l.png,l,1,3,1,0,,,,,0,195,195,195,,,,,,,,,,,,,,,,,,,,,,,,,,,,,,,,,,,,,,,,,,,562.3983620739891,None,2,0.5387701019935776,562.3983620739891,None,,,,,,,,,,,,,,,,None,None,None,,None,None,562.9826858479937,None,1,1,0.5387114789918996,562.9826858479937,None,563.5131769903907,None,None,None,None,,10,001,2023_Jan_19_1151,searchDisc5,2021.2.3,59.98605492026564,
images/exp2a_trial_112_colour1_distractors4_l.png,l,1,1,4,0,,,,,0,196,196,196,,,,,,,,,,,,,,,,,,,,,,,,,,,,,,,,,,,,,,,,,,,563.5303008919873,None,2,0.5060911540058441,563.5303008919873,None,,,,,,,,,,,,,,,,None,None,None,,None,None,564.0802027089812,None,1,1,0.6036269099859055,564.0802027089812,None,564.679618624397,None,None,None,None,,10,001,2023_Jan_19_1151,searchDisc5,2021.2.3,59.98605492026564,
images/exp2a_trial_31_colour0_distractors0_l.png,l,1,0,0,0,,,,,0,197,197,197,,,,,,,,,,,,,,,,,,,,,,,,,,,,,,,,,,,,,,,,,,,564.6963024360011,None,2,0.5056748279894236,564.6963024360011,None,,,,,,,,,,,,,,,,None,None,None,,None,None,565.2473508020048,None,1,1,0.5718406169908121,565.2473508020048,None,565.8130380973831,None,None,None,None,,10,001,2023_Jan_19_1151,searchDisc5,2021.2.3,59.98605492026564,
images/exp2a_trial_318_colour0_distractors0_r.png,r,3,0,0,0,,,,,0,198,198,198,,,,,,,,,,,,,,,,,,,,,,,,,,,,,,,,,,,,,,,,,,,565.8303501939808,None,2,0.5420467520016246,565.8303501939808,None,,,,,,,,,,,,,,,,None,None,None,,None,None,566.414494466997,None,3,1,0.5852629060100298,566.414494466997,None,566.9964932803792,None,None,None,None,,10,001,2023_Jan_19_1151,searchDisc5,2021.2.3,59.98605492026564,
images/exp1a_trial_53_colour2_distractors4_l.png,l,1,2,4,0,,,,,0,199,199,199,,,,,,,,,,,,,,,,,,,,,,,,,,,,,,,,,,,,,,,,,,,567.013086040999,None,2,0.5379871230106801,567.013086040999,None,,,,,,,,,,,,,,,,None,None,None,,None,None,567.5968762609991,None,1,1,0.7552199769997969,567.5968762609991,None,568.3464724354068,None,None,None,None,,10,001,2023_Jan_19_1151,searchDisc5,2021.2.3,59.98605492026564,
images/exp2b_trial_58_colour3_distractors4_l.png,l,1,3,4,0,,,,,0,200,200,200,,,,,,,,,,,,,,,,,,,,,,,,,,,,,,,,,,,,,,,,,,,568.362309913995,None,2,0.5062170840101317,568.362309913995,None,,,,,,,,,,,,,,,,None,None,None,,None,None,568.9147079520044,None,1,1,0.5699779390124604,568.9147079520044,None,569.4793266223948,None,None,None,None,,10,001,2023_Jan_19_1151,searchDisc5,2021.2.3,59.98605492026564,
images/exp2a_trial_142_colour3_distractors31_r.png,r,3,3,31,0,,,,,0,201,201,201,,,,,,,,,,,,,,,,,,,,,,,,,,,,,,,,,,,,,,,,,,,569.4968833019957,None,2,0.44028937301482074,569.4968833019957,None,,,,,,,,,,,,,,,,None,None,None,,None,None,569.9805644220032,None,3,1,0.6337122400000226,569.9805644220032,None,570.6131995383854,None,None,None,None,,10,001,2023_Jan_19_1151,searchDisc5,2021.2.3,59.98605492026564,
images/exp2b_trial_261_colour2_distractors1_r.png,r,3,2,1,0,,,,,0,202,202,202,,,,,,,,,,,,,,,,,,,,,,,,,,,,,,,,,,,,,,,,,,,570.6304810690053,None,2,0.4879055259807501,570.6304810690053,None,,,,,,,,,,,,,,,,None,None,None,,None,None,571.1633890999947,None,3,1,0.5898280050023459,571.1633890999947,None,571.747335601403,None,None,None,None,,10,001,2023_Jan_19_1151,searchDisc5,2021.2.3,59.98605492026564,
images/exp2b_trial_315_colour3_distractors9_l.png,l,1,3,9,0,,,,,0,203,203,203,,,,,,,,,,,,,,,,,,,,,,,,,,,,,,,,,,,,,,,,,,,571.7631951450021,None,2,0.5538960540143307,571.7631951450021,None,,,,,,,,,,,,,,,,None,None,None,,None,None,572.3641919479996,None,1,1,0.587399584997911,572.3641919479996,None,572.9465691454039,None,None,None,None,,10,001,2023_Jan_19_1151,searchDisc5,2021.2.3,59.98605492026564,
images/exp1a_trial_154_colour3_distractors4_l.png,l,1,3,4,0,,,,,0,204,204,204,,,,,,,,,,,,,,,,,,,,,,,,,,,,,,,,,,,,,,,,,,,572.9637110829935,None,2,0.5048078859981615,572.9637110829935,None,,,,,,,,,,,,,,,,None,None,None,,None,None,573.5156836939859,None,1,1,0.5712716749985702,573.5156836939859,None,574.0799626193854,None,None,None,None,,10,001,2023_Jan_19_1151,searchDisc5,2021.2.3,59.98605492026564,
images/exp2c_trial_109_colour3_distractors19_r.png,r,3,3,19,0,,,,,0,205,205,205,,,,,,,,,,,,,,,,,,,,,,,,,,,,,,,,,,,,,,,,,,,574.0974521099997,None,2,0.48741459602024406,574.0974521099997,None,,,,,,,,,,,,,,,,None,None,None,,None,None,574.6304165500042,None,3,1,0.5534625430009328,574.6304165500042,None,575.1800034123968,None,None,None,None,,10,001,2023_Jan_19_1151,searchDisc5,2021.2.3,59.98605492026564,
images/exp2b_trial_168_colour2_distractors19_r.png,r,3,2,19,0,,,,,0,206,206,206,,,,,,,,,,,,,,,,,,,,,,,,,,,,,,,,,,,,,,,,,,,575.1973765519797,None,2,0.4888472789898515,575.1973765519797,None,,,,,,,,,,,,,,,,None,None,None,,None,None,575.7321585509926,None,3,1,0.6352644129947294,575.7321585509926,None,576.3634589093941,None,None,None,None,,10,001,2023_Jan_19_1151,searchDisc5,2021.2.3,59.98605492026564,
images/exp2c_trial_25_colour3_distractors1_l.png,l,1,3,1,0,,,,,0,207,207,207,,,,,,,,,,,,,,,,,,,,,,,,,,,,,,,,,,,,,,,,,,,576.3798773669987,None,2,0.4729054920026101,576.3798773669987,None,,,,,,,,,,,,,,,,None,None,None,,None,None,576.8975725990022,None,1,1,0.7536543149908539,576.8975725990022,None,577.6461450693984,None,None,None,None,,10,001,2023_Jan_19_1151,searchDisc5,2021.2.3,59.98605492026564,
images/exp2c_trial_32_colour1_distractors1_r.png,r,3,1,1,0,,,,,0,208,208,208,,,,,,,,,,,,,,,,,,,,,,,,,,,,,,,,,,,,,,,,,,,577.6662847419793,None,2,0.4377585439942777,577.6662847419793,None,,,,,,,,,,,,,,,,None,None,None,,None,None,578.1470221710042,None,3,1,0.6245023399824277,578.1470221710042,None,578.7645068334037,None,None,None,None,,10,001,2023_Jan_19_1151,searchDisc5,2021.2.3,59.98605492026564,
images/exp2c_trial_284_colour3_distractors19_l.png,l,1,3,19,0,,,,,0,209,209,209,,,,,,,,,,,,,,,,,,,,,,,,,,,,,,,,,,,,,,,,,,,578.7793717469904,None,2,0.4378570739936549,578.7793717469904,None,,,,,,,,,,,,,,,,None,None,None,,None,None,579.2645623649878,None,1,1,0.586714965000283,579.2645623649878,None,579.8479027343943,None,None,None,None,,10,001,2023_Jan_19_1151,searchDisc5,2021.2.3,59.98605492026564,
images/exp2a_trial_64_colour1_distractors1_r.png,r,3,1,1,0,,,,,0,210,210,210,,,,,,,,,,,,,,,,,,,,,,,,,,,,,,,,,,,,,,,,,,,579.8654937139945,None,2,0.37450542199076153,579.8654937139945,None,,,,,,,,,,,,,,,,None,None,None,,None,None,580.2824226660014,None,3,1,0.5848166799987666,580.2824226660014,None,580.863551742406,None,None,None,None,,10,001,2023_Jan_19_1151,searchDisc5,2021.2.3,59.98605492026564,
images/exp2a_trial_110_colour3_distractors31_r.png,r,3,3,31,0,,,,,0,211,211,211,,,,,,,,,,,,,,,,,,,,,,,,,,,,,,,,,,,,,,,,,,,580.8806335109985,None,2,0.4400192339962814,580.8806335109985,None,,,,,,,,,,,,,,,,None,None,None,,None,None,581.3640981770004,None,3,1,0.6834776559844613,581.3640981770004,None,582.0464274413913,None,None,None,None,,10,001,2023_Jan_19_1151,searchDisc5,2021.2.3,59.98605492026564,
images/exp2c_trial_294_colour2_distractors4_r.png,r,3,2,4,0,,,,,0,212,212,212,,,,,,,,,,,,,,,,,,,,,,,,,,,,,,,,,,,,,,,,,,,582.0641302040021,None,2,0.38736217201221734,582.0641302040021,None,,,,,,,,,,,,,,,,None,None,None,,None,None,582.50032791798,None,3,1,0.8230147879803553,582.50032791798,None,583.3135094763799,None,None,None,None,,10,001,2023_Jan_19_1151,searchDisc5,2021.2.3,59.98605492026564,
images/exp2a_trial_6_colour2_distractors4_r.png,r,3,2,4,0,,,,,0,213,213,213,,,,,,,,,,,,,,,,,,,,,,,,,,,,,,,,,,,,,,,,,,,583.3304694099934,None,2,0.43985989000066184,583.3304694099934,None,,,,,,,,,,,,,,,,None,None,None,,None,None,583.8148657860002,None,3,1,0.7180288789968472,583.8148657860002,None,584.530368791378,None,None,None,None,,10,001,2023_Jan_19_1151,searchDisc5,2021.2.3,59.98605492026564,
images/exp2a_trial_198_colour2_distractors4_r.png,r,3,2,4,0,,,,,0,214,214,214,,,,,,,,,,,,,,,,,,,,,,,,,,,,,,,,,,,,,,,,,,,584.5494893019786,None,2,0.42114712597685866,584.5494893019786,None,,,,,,,,,,,,,,,,None,None,None,,None,None,585.0147405570024,None,3,1,0.5710462650167756,585.0147405570024,None,585.5813331503974,None,None,None,None,,10,001,2023_Jan_19_1151,searchDisc5,2021.2.3,59.98605492026564,
images/exp2b_trial_165_colour2_distractors1_r.png,r,3,2,1,0,,,,,0,215,215,215,,,,,,,,,,,,,,,,,,,,,,,,,,,,,,,,,,,,,,,,,,,585.5973967549799,None,2,0.4056624549848493,585.5973967549799,None,,,,,,,,,,,,,,,,None,None,None,,None,None,586.0496663759986,None,3,1,0.6707872569968458,586.0496663759986,None,586.7143468843802,None,None,None,None,,10,001,2023_Jan_19_1151,searchDisc5,2021.2.3,59.98605492026564,
images/exp2a_trial_80_colour1_distractors4_l.png,l,1,1,4,0,,,,,0,216,216,216,,,,,,,,,,,,,,,,,,,,,,,,,,,,,,,,,,,,,,,,,,,586.7307034659898,None,2,0.43776789601542987,586.7307034659898,None,,,,,,,,,,,,,,,,None,None,None,,None,None,587.2148697499943,None,1,1,0.5716571459779516,587.2148697499943,None,587.7803780654009,None,None,None,None,,10,001,2023_Jan_19_1151,searchDisc5,2021.2.3,59.98605492026564,
images/exp2a_trial_117_colour2_distractors4_l.png,l,1,2,4,0,,,,,0,217,217,217,,,,,,,,,,,,,,,,,,,,,,,,,,,,,,,,,,,,,,,,,,,587.7975403159799,None,2,0.37080127198714763,587.7975403159799,None,,,,,,,,,,,,,,,,None,None,None,,None,None,588.2143103150011,None,1,1,0.5535321150091477,588.2143103150011,None,588.763708292399,None,None,None,None,,10,001,2023_Jan_19_1151,searchDisc5,2021.2.3,59.98605492026564,
images/exp2a_trial_310_colour2_distractors9_l.png,l,1,2,9,0,,,,,0,218,218,218,,,,,,,,,,,,,,,,,,,,,,,,,,,,,,,,,,,,,,,,,,,588.7803352379997,None,2,0.35428891199990176,588.7803352379997,None,,,,,,,,,,,,,,,,None,None,None,,None,None,589.1834628350043,None,1,1,0.5855374409875367,589.1834628350043,None,589.7637441823987,None,None,None,None,,10,001,2023_Jan_19_1151,searchDisc5,2021.2.3,59.98605492026564,
images/exp1a_trial_88_colour2_distractors31_l.png,l,1,2,31,0,,,,,0,219,219,219,,,,,,,,,,,,,,,,,,,,,,,,,,,,,,,,,,,,,,,,,,,589.7803116489958,None,2,0.372064085007878,589.7803116489958,None,,,,,,,,,,,,,,,,None,None,None,,None,None,590.1991802770062,None,1,1,0.5677835700043943,590.1991802770062,None,590.7637791294052,None,None,None,None,,10,001,2023_Jan_19_1151,searchDisc5,2021.2.3,59.98605492026564,
images/exp2a_trial_13_colour3_distractors19_r.png,r,3,3,19,0,,,,,0,220,220,220,,,,,,,,,,,,,,,,,,,,,,,,,,,,,,,,,,,,,,,,,,,590.7810515049787,None,2,0.3525114499789197,590.7810515049787,None,,,,,,,,,,,,,,,,None,None,None,,None,None,591.1832099109888,None,3,1,0.7367807340051513,591.1832099109888,None,591.9137620133785,None,None,None,None,,10,001,2023_Jan_19_1151,searchDisc5,2021.2.3,59.98605492026564,
images/exp1a_trial_181_colour2_distractors4_l.png,l,1,2,4,0,,,,,0,221,221,221,,,,,,,,,,,,,,,,,,,,,,,,,,,,,,,,,,,,,,,,,,,591.9315690629883,None,2,0.3541078220005147,591.9315690629883,None,,,,,,,,,,,,,,,,None,None,None,,None,None,592.3336797959928,None,1,1,0.721897324983729,592.3336797959928,None,593.0472279774054,None,None,None,None,,10,001,2023_Jan_19_1151,searchDisc5,2021.2.3,59.98605492026564,
images/exp2c_trial_305_colour1_distractors9_l.png,l,1,1,9,0,,,,,0,222,222,222,,,,,,,,,,,,,,,,,,,,,,,,,,,,,,,,,,,,,,,,,,,593.0638640959805,None,2,0.3220322209817823,593.0638640959805,None,,,,,,,,,,,,,,,,None,None,None,,None,None,593.4315950759919,None,1,1,0.5550060569948982,593.4315950759919,None,593.9815189263987,None,None,None,None,,10,001,2023_Jan_19_1151,searchDisc5,2021.2.3,59.98605492026564,
images/exp2b_trial_74_colour3_distractors1_r.png,r,3,3,1,0,,,,,0,223,223,223,,,,,,,,,,,,,,,,,,,,,,,,,,,,,,,,,,,,,,,,,,,593.9989672169904,None,2,0.35432919301092625,593.9989672169904,None,,,,,,,,,,,,,,,,None,None,None,,None,None,594.3997860509844,None,3,1,1.2048314079875126,594.3997860509844,None,595.5972130753886,None,None,None,None,,10,001,2023_Jan_19_1151,searchDisc5,2021.2.3,59.98605492026564,
images/exp1a_trial_31_colour0_distractors0_l.png,l,1,0,0,0,,,,,0,224,224,224,,,,,,,,,,,,,,,,,,,,,,,,,,,,,,,,,,,,,,,,,,,595.6147016489995,None,2,0.3541473980003502,595.6147016489995,None,,,,,,,,,,,,,,,,None,None,None,,None,None,596.0141352890059,None,1,1,0.523234923981363,596.0141352890059,None,596.5306230633956,None,None,None,None,,10,001,2023_Jan_19_1151,searchDisc5,2021.2.3,59.98605492026564,
images/exp2b_trial_246_colour2_distractors9_l.png,l,1,2,9,0,,,,,0,225,225,225,,,,,,,,,,,,,,,,,,,,,,,,,,,,,,,,,,,,,,,,,,,596.5481431740045,None,2,0.3219341810035985,596.5481431740045,None,,,,,,,,,,,,,,,,None,None,None,,None,None,596.9141411279852,None,1,1,0.5207199990109075,596.9141411279852,None,597.4306196573976,None,None,None,None,,10,001,2023_Jan_19_1151,searchDisc5,2021.2.3,59.98605492026564,
