ImageFile,targ_side,correctAnswer,colour,distNo,targetType,trials_2.thisRepN,trials_2.thisTrialN,trials_2.thisN,trials_2.thisIndex,trials.thisRepN,trials.thisTrialN,trials.thisN,trials.thisIndex,text_6.started,text_6.stopped,buttonBox.keys,buttonBox.rt,buttonBox.started,buttonBox.stopped,text_7.started,text_7.stopped,buttonBox_3.keys,buttonBox_3.rt,buttonBox_3.started,buttonBox_3.stopped,text_8.started,text_8.stopped,buttonBox_4.keys,buttonBox_4.rt,buttonBox_4.started,buttonBox_4.stopped,text_9.started,text_9.stopped,buttonBox_5.keys,buttonBox_5.rt,buttonBox_5.started,buttonBox_5.stopped,text_2.started,text_2.stopped,buttonBox_6.keys,buttonBox_6.rt,buttonBox_6.started,buttonBox_6.stopped,text_5.started,text_5.stopped,buttonBox_7.keys,buttonBox_7.rt,image_2.started,image_2.stopped,image_3.started,image_3.stopped,buttonBox_8.keys,buttonBox_8.rt,buttonBox_8.started,buttonBox_8.stopped,polygon.started,polygon.stopped,buttonBox_9.keys,buttonBox_9.rt,buttonBox_9.started,buttonBox_9.stopped,image.started,image.stopped,buttonBox_10.keys,buttonBox_10.corr,buttonBox_10.rt,buttonBox_10.started,buttonBox_10.stopped,text_4.started,text_4.stopped,text.started,text.stopped,buttonBox_11.keys,buttonBox_11.rt,buttonBox_11.started,buttonBox_11.stopped,targetTypeInstruction.started,targetTypeInstruction.stopped,buttonBox_2.keys,buttonBox_2.rt,buttonBox_2.started,buttonBox_2.stopped,dispStimuli.started,dispStimuli.stopped,buttonBox_12.keys,buttonBox_12.corr,buttonBox_12.rt,buttonBox_12.started,buttonBox_12.stopped,breakMessage.started,breakMessage.stopped,buttonBox_13.keys,buttonBox_13.started,buttonBox_13.stopped,buttonBox_13.rt,participant,session,date,expName,psychopyVersion,frameRate,
,,,,,,,,,,,,,,31.258039364009164,None,2,76.58174105299986,31.258039364009164,None,,,,,,,,,,,,,,,,,,,,,,,,,,,,,,,,,,,,,,,,,,,,,,,,,,,,,,,,,,,,,,,,,,,,,,,,,,,,,13,001,2023_Jan_19_1653,searchDisc5,2021.2.3,59.95821499375167,
,,,,,,,,,,,,,,,,,,,,107.82430143901729,None,2,62.7327316350129,107.82430143901729,None,,,,,,,,,,,,,,,,,,,,,,,,,,,,,,,,,,,,,,,,,,,,,,,,,,,,,,,,,,,,,,,,,,,,,,,13,001,2023_Jan_19_1653,searchDisc5,2021.2.3,59.95821499375167,
,,,,,,,,,,,,,,,,,,,,,,,,,,170.56140502399649,None,2,5.73220884098555,170.56140502399649,None,,,,,,,,,,,,,,,,,,,,,,,,,,,,,,,,,,,,,,,,,,,,,,,,,,,,,,,,,,,,,,,,,13,001,2023_Jan_19_1653,searchDisc5,2021.2.3,59.95821499375167,
,,,,,,,,,,,,,,,,,,,,,,,,,,,,,,,,176.29503933200613,None,2,4.077994972991291,176.29503933200613,None,,,,,,,,,,,,,,,,,,,,,,,,,,,,,,,,,,,,,,,,,,,,,,,,,,,,,,,,,,,13,001,2023_Jan_19_1653,searchDisc5,2021.2.3,59.95821499375167,
,,,,,,,,,,,,,,,,,,,,,,,,,,,,,,,,,,,,,,180.37644503300544,None,2,5.133422553015407,181.36166410901933,None,,,,,,,,,,,,,,,,,,,,,,,,,,,,,,,,,,,,,,,,,,,,,,,,,,,,,13,001,2023_Jan_19_1653,searchDisc5,2021.2.3,59.95821499375167,
,,,,,,,,,,,,,,,,,,,,,,,,,,,,,,,,,,,,,,,,,,,,186.4951880260196,None,2,8.698373972001718,,,,,,,,,,,,,,,,,,,,,,,,,,,,,,,,,,,,,,,,,,,,,,,,,13,001,2023_Jan_19_1653,searchDisc5,2021.2.3,59.95821499375167,
,,,,,,,,,,,,,,,,,,,,,,,,,,,,,,,,,,,,,,,,,,,,,,,,198.19337429699954,None,198.19337429699954,None,2,6.4476652320008725,198.19337429699954,None,,,,,,,,,,,,,,,,,,,,,,,,,,,,,,,,,,,,,,,,,13,001,2023_Jan_19_1653,searchDisc5,2021.2.3,59.95821499375167,
Practice arrays/exp1a_trial_10_colour3_distractors1_r.png,r,3,,,,0,0,0,4,,,,,,,,,,,,,,,,,,,,,,,,,,,,,,,,,,,,,,,,,,,,,,,204.65997498400975,None,2,5.169378400983987,204.65997498400975,None,209.89354642500984,None,3,1,1.6432656929828227,209.89354642500984,None,211.52699646400288,None,,,,,,,,,,,,,,,,,,,,,,,,,,13,001,2023_Jan_19_1653,searchDisc5,2021.2.3,59.95821499375167,
Practice arrays/exp1a_trial_16_colour1_distractors4_l.png,l,1,,,,0,1,1,13,,,,,,,,,,,,,,,,,,,,,,,,,,,,,,,,,,,,,,,,,,,,,,,213.5291236930061,None,2,0.9978745669941418,213.5291236930061,None,214.57694536299095,None,1,1,3.4526578369841445,214.57694536299095,None,218.02730178201455,None,,,,,,,,,,,,,,,,,,,,,,,,,,13,001,2023_Jan_19_1653,searchDisc5,2021.2.3,59.95821499375167,
Practice arrays/exp1a_trial_27_colour3_distractors9_l.png,l,1,,,,0,2,2,12,,,,,,,,,,,,,,,,,,,,,,,,,,,,,,,,,,,,,,,,,,,,,,,220.02907612200943,None,2,0.6804068830097094,220.02907612200943,None,220.763134326,None,1,1,0.9685410640086047,220.763134326,None,221.7275163459999,None,,,,,,,,,,,,,,,,,,,,,,,,,,13,001,2023_Jan_19_1653,searchDisc5,2021.2.3,59.95821499375167,
Practice arrays/exp1a_trial_23_colour2_distractors19_l.png,l,1,,,,0,3,3,10,,,,,,,,,,,,,,,,,,,,,,,,,,,,,,,,,,,,,,,,,,,,,,,223.72921711500385,None,2,0.6805755290261004,223.72921711500385,None,224.46307594899554,None,1,1,0.9190489199827425,224.46307594899554,None,225.37764205699204,None,,,,,,,,,,,,,,,,,,,,,,,,,,13,001,2023_Jan_19_1653,searchDisc5,2021.2.3,59.95821499375167,
Practice arrays/exp1a_trial_18_colour1_distractors19_l.png,l,1,,,,0,4,4,8,,,,,,,,,,,,,,,,,,,,,,,,,,,,,,,,,,,,,,,,,,,,,,,227.37960270800977,None,2,0.5470876489998773,227.37960270800977,None,227.9778859920043,None,1,1,0.7004103280196432,227.9778859920043,None,228.67763767199358,None,,,,,,,,,,,,,,,,,,,,,,,,,,13,001,2023_Jan_19_1653,searchDisc5,2021.2.3,59.95821499375167,
Practice arrays/exp1a_trial_14_colour3_distractors31_r.png,r,3,,,,0,5,5,6,,,,,,,,,,,,,,,,,,,,,,,,,,,,,,,,,,,,,,,,,,,,,,,230.67973715401604,None,2,0.4149178240040783,230.67973715401604,None,231.14425841899356,None,3,1,0.7825249310117215,231.14425841899356,None,231.92772424401483,None,,,,,,,,,,,,,,,,,,,,,,,,,,13,001,2023_Jan_19_1653,searchDisc5,2021.2.3,59.95821499375167,
Practice arrays/exp1a_trial_7_colour2_distractors9_r.png,r,3,,,,0,6,6,2,,,,,,,,,,,,,,,,,,,,,,,,,,,,,,,,,,,,,,,,,,,,,,,233.92947333000484,None,2,0.44704971701139584,233.92947333000484,None,234.43026469499455,None,3,1,0.6549738559988327,234.43026469499455,None,235.0777830040024,None,,,,,,,,,,,,,,,,,,,,,,,,,,13,001,2023_Jan_19_1653,searchDisc5,2021.2.3,59.95821499375167,
Practice arrays/exp1a_trial_21_colour2_distractors4_l.png,l,1,,,,0,7,7,9,,,,,,,,,,,,,,,,,,,,,,,,,,,,,,,,,,,,,,,,,,,,,,,237.07954991501174,None,2,0.3327475929982029,237.07954991501174,None,237.46293638501083,None,1,1,0.7537732310011052,237.46293638501083,None,238.21116229100153,None,,,,,,,,,,,,,,,,,,,,,,,,,,13,001,2023_Jan_19_1653,searchDisc5,2021.2.3,59.95821499375167,
Practice arrays/exp1a_trial_1_colour1_distractors4_r.png,r,3,,,,0,8,8,1,,,,,,,,,,,,,,,,,,,,,,,,,,,,,,,,,,,,,,,,,,,,,,,240.21330815501278,None,2,0.4804585879901424,240.21330815501278,None,240.74625782601652,None,3,1,0.9036589220049791,240.74625782601652,None,241.64464251999743,None,,,,,,,,,,,,,,,,,,,,,,,,,,13,001,2023_Jan_19_1653,searchDisc5,2021.2.3,59.95821499375167,
Practice arrays/exp1a_trial_25_colour3_distractors1_l.png,l,1,,,,0,9,9,11,,,,,,,,,,,,,,,,,,,,,,,,,,,,,,,,,,,,,,,,,,,,,,,243.64686751901172,None,2,0.44673343998147175,243.64686751901172,None,244.14691632901668,None,1,1,0.9730397349921986,244.14691632901668,None,245.11131416499848,None,,,,,,,,,,,,,,,,,,,,,,,,,,13,001,2023_Jan_19_1653,searchDisc5,2021.2.3,59.95821499375167,
Practice arrays/exp1a_trial_12_colour3_distractors9_r.png,r,3,,,,0,10,10,5,,,,,,,,,,,,,,,,,,,,,,,,,,,,,,,,,,,,,,,,,,,,,,,247.11280070300563,None,2,0.46338954800739884,247.11280070300563,None,247.62776403099997,None,3,1,0.6182692509901244,247.62776403099997,None,248.2448414429964,None,,,,,,,,,,,,,,,,,,,,,,,,,,13,001,2023_Jan_19_1653,searchDisc5,2021.2.3,59.95821499375167,
Practice arrays/exp1a_trial_8_colour2_distractors19_r.png,r,3,,,,0,11,11,3,,,,,,,,,,,,,,,,,,,,,,,,,,,,,,,,,,,,,,,,,,,,,,,250.2466763620032,None,2,0.5993853149993811,250.2466763620032,None,250.89507043300546,None,3,1,0.6854065810039174,250.89507043300546,None,251.57827545001055,None,,,,,,,,,,,,,,,,,,,,,,,,,,13,001,2023_Jan_19_1653,searchDisc5,2021.2.3,59.95821499375167,
Practice arrays/exp1a_trial_31_colour0_distractors0_l.png,l,1,,,,0,12,12,15,,,,,,,,,,,,,,,,,,,,,,,,,,,,,,,,,,,,,,,,,,,,,,,253.57990766401053,None,2,0.34900033997837454,253.57990766401053,None,253.98049847301445,None,1,1,0.4855069299810566,253.98049847301445,None,254.46174524599337,None,,,,,,,,,,,,,,,,,,,,,,,,,,13,001,2023_Jan_19_1653,searchDisc5,2021.2.3,59.95821499375167,
Practice arrays/exp1a_trial_30_colour0_distractors0_r.png,r,3,,,,0,13,13,14,,,,,,,,,,,,,,,,,,,,,,,,,,,,,,,,,,,,,,,,,,,,,,,256.4630821089959,None,2,0.4138504119764548,256.4630821089959,None,256.9278823269997,None,1,0,0.437075101013761,256.9278823269997,None,257.36121228401316,None,,,,,,,,,,,,,,,,,,,,,,,,,,13,001,2023_Jan_19_1653,searchDisc5,2021.2.3,59.95821499375167,
Practice arrays/exp1a_trial_17_colour1_distractors9_l.png,l,1,,,,0,14,14,7,,,,,,,,,,,,,,,,,,,,,,,,,,,,,,,,,,,,,,,,,,,,,,,259.3636366809951,None,2,0.8141197829972953,259.3636366809951,None,260.2302870209969,None,1,1,0.753610750020016,260.2302870209969,None,260.9786878140003,None,,,,,,,,,,,,,,,,,,,,,,,,,,13,001,2023_Jan_19_1653,searchDisc5,2021.2.3,59.95821499375167,
Practice arrays/exp1a_trial_0_colour1_distractors1_r.png,r,3,,,,0,15,15,0,,,,,,,,,,,,,,,,,,,,,,,,,,,,,,,,,,,,,,,,,,,,,,,262.98063766999985,None,2,0.7168827069981489,262.98063766999985,None,263.74725815700367,None,3,1,0.8866436459938996,263.74725815700367,None,264.62874774000375,None,,,,,,,,,,,,,,,,,,,,,,,,,,13,001,2023_Jan_19_1653,searchDisc5,2021.2.3,59.95821499375167,
,,,,,,,,,,,,,,,,,,,,,,,,,,,,,,,,,,,,,,,,,,,,,,,,,,,,,,,,,,,,,,,,,,,,,,,266.71400179399643,None,2,7.881559647008544,267.69672585400986,None,,,,,,,,,,,,,,,,,,,,13,001,2023_Jan_19_1653,searchDisc5,2021.2.3,59.95821499375167,
images/exp2c_trial_173_colour3_distractors19_r.png,r,3,3,19,0,,,,,0,0,0,0,,,,,,,,,,,,,,,,,,,,,,,,,,,,,,,,,,,,,,,,,,,282.43068456600304,None,2,0.5622778160031885,282.43068456600304,None,,,,,,,,,,,,,,,,276.16422926000087,None,2,4.283530034997966,278.14758313901257,None,283.05586574799963,None,3,1,0.7644240100053139,283.05586574799963,None,283.829428880621,None,None,None,None,,13,001,2023_Jan_19_1653,searchDisc5,2021.2.3,59.95821499375167,
images/exp2c_trial_55_colour2_distractors19_l.png,l,1,2,19,0,,,,,0,1,1,1,,,,,,,,,,,,,,,,,,,,,,,,,,,,,,,,,,,,,,,,,,,283.8475564419932,None,2,0.40865382400806993,283.8475564419932,None,,,,,,,,,,,,,,,,None,None,None,,None,None,284.29817420701147,None,1,1,0.7499365289986599,284.29817420701147,None,285.0460689817992,None,None,None,None,,13,001,2023_Jan_19_1653,searchDisc5,2021.2.3,59.95821499375167,
images/exp2a_trial_35_colour1_distractors19_r.png,r,3,1,19,0,,,,,0,2,2,2,,,,,,,,,,,,,,,,,,,,,,,,,,,,,,,,,,,,,,,,,,,285.0626935019973,None,2,0.3048205200175289,285.0626935019973,None,,,,,,,,,,,,,,,,None,None,None,,None,None,285.41251674000523,None,3,1,0.7040629829862155,285.41251674000523,None,286.1126201138104,None,None,None,None,,13,001,2023_Jan_19_1653,searchDisc5,2021.2.3,59.95821499375167,
images/exp2c_trial_132_colour1_distractors31_r.png,r,3,1,31,0,,,,,0,3,3,3,,,,,,,,,,,,,,,,,,,,,,,,,,,,,,,,,,,,,,,,,,,286.13116315801744,None,2,0.30421419101185165,286.13116315801744,None,,,,,,,,,,,,,,,,None,None,None,,None,None,286.4792008860095,None,3,1,1.2672455160063691,286.4792008860095,None,287.74556229882,None,None,None,None,,13,001,2023_Jan_19_1653,searchDisc5,2021.2.3,59.95821499375167,
images/exp2a_trial_59_colour3_distractors9_l.png,l,1,3,9,0,,,,,0,4,4,4,,,,,,,,,,,,,,,,,,,,,,,,,,,,,,,,,,,,,,,,,,,287.76450962599483,None,2,0.637171145004686,287.76450962599483,None,,,,,,,,,,,,,,,,None,None,None,,None,None,288.44602690800093,None,1,1,0.6219274160102941,288.44602690800093,None,289.0627570278157,None,None,None,None,,13,001,2023_Jan_19_1653,searchDisc5,2021.2.3,59.95821499375167,
images/exp2b_trial_204_colour3_distractors9_r.png,r,3,3,9,0,,,,,0,5,5,5,,,,,,,,,,,,,,,,,,,,,,,,,,,,,,,,,,,,,,,,,,,289.07908244401915,None,2,0.42209892999380827,289.07908244401915,None,,,,,,,,,,,,,,,,None,None,None,,None,None,289.54802866099635,None,3,1,0.6865532910160255,289.54802866099635,None,290.2294884967996,None,None,None,None,,13,001,2023_Jan_19_1653,searchDisc5,2021.2.3,59.95821499375167,
images/exp2c_trial_261_colour2_distractors1_r.png,r,3,2,1,0,,,,,0,6,6,6,,,,,,,,,,,,,,,,,,,,,,,,,,,,,,,,,,,,,,,,,,,290.24750788800884,None,2,0.3213410039898008,290.24750788800884,None,,,,,,,,,,,,,,,,None,None,None,,None,None,290.61222446200554,None,3,1,0.6526227110007312,290.61222446200554,None,291.2626874648122,None,None,None,None,,13,001,2023_Jan_19_1653,searchDisc5,2021.2.3,59.95821499375167,
images/exp2a_trial_306_colour1_distractors19_l.png,l,1,1,19,0,,,,,0,7,7,7,,,,,,,,,,,,,,,,,,,,,,,,,,,,,,,,,,,,,,,,,,,291.2787102560105,None,2,0.371150029997807,291.2787102560105,None,,,,,,,,,,,,,,,,None,None,None,,None,None,291.6982134540158,None,1,1,0.6880685979849659,291.6982134540158,None,292.3794967497961,None,None,None,None,,13,001,2023_Jan_19_1653,searchDisc5,2021.2.3,59.95821499375167,
images/exp1a_trial_67_colour1_distractors19_r.png,r,3,1,19,0,,,,,0,8,8,8,,,,,,,,,,,,,,,,,,,,,,,,,,,,,,,,,,,,,,,,,,,292.3980190230068,None,2,0.3543469310097862,292.3980190230068,None,,,,,,,,,,,,,,,,None,None,None,,None,None,292.79783334501553,None,3,1,0.7027026030118577,292.79783334501553,None,293.4961125728005,None,None,None,None,,13,001,2023_Jan_19_1653,searchDisc5,2021.2.3,59.95821499375167,
images/exp2a_trial_319_colour0_distractors0_l.png,l,1,0,0,0,,,,,0,9,9,9,,,,,,,,,,,,,,,,,,,,,,,,,,,,,,,,,,,,,,,,,,,293.51269975100877,None,2,0.35395773299387656,293.51269975100877,None,,,,,,,,,,,,,,,,None,None,None,,None,None,293.91252016701037,None,1,1,0.7398361370142084,293.91252016701037,None,294.6461763058178,None,None,None,None,,13,001,2023_Jan_19_1653,searchDisc5,2021.2.3,59.95821499375167,
images/exp2a_trial_201_colour2_distractors31_r.png,r,3,2,31,0,,,,,0,10,10,10,,,,,,,,,,,,,,,,,,,,,,,,,,,,,,,,,,,,,,,,,,,294.6625754930137,None,2,0.33780051200301386,294.6625754930137,None,,,,,,,,,,,,,,,,None,None,None,,None,None,295.04637066600844,None,3,1,1.0638542450033128,295.04637066600844,None,296.11289205880894,None,None,None,None,,13,001,2023_Jan_19_1653,searchDisc5,2021.2.3,59.95821499375167,
images/exp2a_trial_86_colour2_distractors9_l.png,l,1,2,9,0,,,,,0,11,11,11,,,,,,,,,,,,,,,,,,,,,,,,,,,,,,,,,,,,,,,,,,,296.1293238880171,None,2,0.5379739440104458,296.1293238880171,None,,,,,,,,,,,,,,,,None,None,None,,None,None,296.7148757149989,None,1,1,0.8186154639988672,296.7148757149989,None,297.529744284795,None,None,None,None,,13,001,2023_Jan_19_1653,searchDisc5,2021.2.3,59.95821499375167,
images/exp1a_trial_296_colour2_distractors19_r.png,r,3,2,19,0,,,,,0,12,12,12,,,,,,,,,,,,,,,,,,,,,,,,,,,,,,,,,,,,,,,,,,,297.5456191789999,None,2,0.38903393800137565,297.5456191789999,None,,,,,,,,,,,,,,,,None,None,None,,None,None,297.98119386300095,None,3,1,0.6334507470019162,297.98119386300095,None,298.61240249279945,None,None,None,None,,13,001,2023_Jan_19_1653,searchDisc5,2021.2.3,59.95821499375167,
images/exp2a_trial_186_colour3_distractors4_l.png,l,1,3,4,0,,,,,0,13,13,13,,,,,,,,,,,,,,,,,,,,,,,,,,,,,,,,,,,,,,,,,,,298.6293728930177,None,2,0.3552159930113703,298.6293728930177,None,,,,,,,,,,,,,,,,None,None,None,,None,None,299.02892120400793,None,1,1,0.8888029810041189,299.02892120400793,None,299.9129430237954,None,None,None,None,,13,001,2023_Jan_19_1653,searchDisc5,2021.2.3,59.95821499375167,
images/exp2c_trial_206_colour3_distractors31_r.png,r,3,3,31,0,,,,,0,14,14,14,,,,,,,,,,,,,,,,,,,,,,,,,,,,,,,,,,,,,,,,,,,299.93123993699555,None,2,0.390197408007225,299.93123993699555,None,,,,,,,,,,,,,,,,None,None,None,,None,None,300.36569048601086,None,3,1,0.8141747770132497,300.36569048601086,None,301.17966588279523,None,None,None,None,,13,001,2023_Jan_19_1653,searchDisc5,2021.2.3,59.95821499375167,
images/exp1a_trial_216_colour2_distractors31_l.png,l,1,2,31,0,,,,,0,15,15,15,,,,,,,,,,,,,,,,,,,,,,,,,,,,,,,,,,,,,,,,,,,301.19599150601425,None,2,0.44008557000779547,301.19599150601425,None,,,,,,,,,,,,,,,,None,None,None,,None,None,301.68178401401383,None,1,1,1.449179783987347,301.68178401401383,None,303.12991007881647,None,None,None,None,,13,001,2023_Jan_19_1653,searchDisc5,2021.2.3,59.95821499375167,
images/exp2a_trial_204_colour3_distractors9_r.png,r,3,3,9,0,,,,,0,16,16,16,,,,,,,,,,,,,,,,,,,,,,,,,,,,,,,,,,,,,,,,,,,303.1458113430126,None,2,0.5372155970253516,303.1458113430126,None,,,,,,,,,,,,,,,,None,None,None,,None,None,303.731850821001,None,3,1,0.8022915759938769,303.731850821001,None,304.5298115428159,None,None,None,None,,13,001,2023_Jan_19_1653,searchDisc5,2021.2.3,59.95821499375167,
images/exp2a_trial_300_colour3_distractors9_r.png,r,3,3,9,0,,,,,0,17,17,17,,,,,,,,,,,,,,,,,,,,,,,,,,,,,,,,,,,,,,,,,,,304.5462024650187,None,2,0.3877635700046085,304.5462024650187,None,,,,,,,,,,,,,,,,None,None,None,,None,None,304.9797871900082,None,3,1,0.655484869988868,304.9797871900082,None,305.62980548980704,None,None,None,None,,13,001,2023_Jan_19_1653,searchDisc5,2021.2.3,59.95821499375167,
images/exp2c_trial_208_colour1_distractors4_l.png,l,1,1,4,0,,,,,0,18,18,18,,,,,,,,,,,,,,,,,,,,,,,,,,,,,,,,,,,,,,,,,,,305.64581697201356,None,2,0.3212728409853298,305.64581697201356,None,,,,,,,,,,,,,,,,None,None,None,,None,None,306.0130395980086,None,1,1,0.6728963450004812,306.0130395980086,None,306.67985692179354,None,None,None,None,,13,001,2023_Jan_19_1653,searchDisc5,2021.2.3,59.95821499375167,
images/exp2c_trial_317_colour3_distractors31_l.png,l,1,3,31,0,,,,,0,19,19,19,,,,,,,,,,,,,,,,,,,,,,,,,,,,,,,,,,,,,,,,,,,306.6963468939939,None,2,0.3378641279996373,306.6963468939939,None,,,,,,,,,,,,,,,,None,None,None,,None,None,307.07989798899507,None,1,1,0.8362278370186687,307.07989798899507,None,307.91321470380353,None,None,None,None,,13,001,2023_Jan_19_1653,searchDisc5,2021.2.3,59.95821499375167,
images/exp2a_trial_188_colour3_distractors19_l.png,l,1,3,19,0,,,,,0,20,20,20,,,,,,,,,,,,,,,,,,,,,,,,,,,,,,,,,,,,,,,,,,,307.9297597160039,None,2,0.6397053590044379,307.9297597160039,None,,,,,,,,,,,,,,,,None,None,None,,None,None,308.6126692639955,None,1,1,0.6684776309994049,308.6126692639955,None,309.2800989587995,None,None,None,None,,13,001,2023_Jan_19_1653,searchDisc5,2021.2.3,59.95821499375167,
images/exp2b_trial_65_colour1_distractors4_r.png,r,3,1,4,0,,,,,0,21,21,21,,,,,,,,,,,,,,,,,,,,,,,,,,,,,,,,,,,,,,,,,,,309.29636157501955,None,2,0.3709835009940434,309.29636157501955,None,,,,,,,,,,,,,,,,None,None,None,,None,None,309.71541979999165,None,3,1,0.7012860500253737,309.71541979999165,None,310.41283997880237,None,None,None,None,,13,001,2023_Jan_19_1653,searchDisc5,2021.2.3,59.95821499375167,
images/exp2c_trial_42_colour3_distractors1_r.png,r,3,3,1,0,,,,,0,22,22,22,,,,,,,,,,,,,,,,,,,,,,,,,,,,,,,,,,,,,,,,,,,310.42973265901674,None,2,0.2883501969918143,310.42973265901674,None,,,,,,,,,,,,,,,,None,None,None,,None,None,310.7633995950164,None,3,1,0.6920430150057655,310.7633995950164,None,311.44680778581824,None,None,None,None,,13,001,2023_Jan_19_1653,searchDisc5,2021.2.3,59.95821499375167,
images/exp1a_trial_130_colour1_distractors9_r.png,r,3,1,9,0,,,,,0,23,23,23,,,,,,,,,,,,,,,,,,,,,,,,,,,,,,,,,,,,,,,,,,,311.46471668599406,None,2,0.3025850869889837,311.46471668599406,None,,,,,,,,,,,,,,,,None,None,None,,None,None,311.8130659229937,None,3,1,0.8225596479896922,311.8130659229937,None,312.6300045008102,None,None,None,None,,13,001,2023_Jan_19_1653,searchDisc5,2021.2.3,59.95821499375167,
images/exp2b_trial_219_colour3_distractors9_l.png,l,1,3,9,0,,,,,0,24,24,24,,,,,,,,,,,,,,,,,,,,,,,,,,,,,,,,,,,,,,,,,,,312.6464418230171,None,2,0.2537582920049317,312.6464418230171,None,,,,,,,,,,,,,,,,None,None,None,,None,None,312.94685676301015,None,1,1,0.8000826339994092,312.94685676301015,None,313.7468319498148,None,None,None,None,,13,001,2023_Jan_19_1653,searchDisc5,2021.2.3,59.95821499375167,
images/exp1a_trial_268_colour3_distractors9_r.png,r,3,3,9,0,,,,,0,25,25,25,,,,,,,,,,,,,,,,,,,,,,,,,,,,,,,,,,,,,,,,,,,313.7630188940093,None,2,0.2712755029788241,313.7630188940093,None,,,,,,,,,,,,,,,,None,None,None,,None,None,314.08005922299344,None,3,1,0.6544348009920213,314.08005922299344,None,314.73048362082045,None,None,None,None,,13,001,2023_Jan_19_1653,searchDisc5,2021.2.3,59.95821499375167,
images/exp2c_trial_108_colour3_distractors9_r.png,r,3,3,9,0,,,,,0,26,26,26,,,,,,,,,,,,,,,,,,,,,,,,,,,,,,,,,,,,,,,,,,,314.7464550480072,None,2,0.25532466600998305,314.7464550480072,None,,,,,,,,,,,,,,,,None,None,None,,None,None,315.04633384701447,None,3,1,0.7208524040179327,315.04633384701447,None,315.76348801380664,None,None,None,None,,13,001,2023_Jan_19_1653,searchDisc5,2021.2.3,59.95821499375167,
images/exp1a_trial_156_colour3_distractors19_l.png,l,1,3,19,0,,,,,0,27,27,27,,,,,,,,,,,,,,,,,,,,,,,,,,,,,,,,,,,,,,,,,,,315.7816374239919,None,2,0.2061438169912435,315.7816374239919,None,,,,,,,,,,,,,,,,None,None,None,,None,None,316.03235984101775,None,1,1,0.7340402330155484,316.03235984101775,None,316.7635349078191,None,None,None,None,,13,001,2023_Jan_19_1653,searchDisc5,2021.2.3,59.95821499375167,
images/exp2b_trial_256_colour1_distractors1_r.png,r,3,1,1,0,,,,,0,28,28,28,,,,,,,,,,,,,,,,,,,,,,,,,,,,,,,,,,,,,,,,,,,316.7794221829972,None,2,0.4233919859980233,316.7794221829972,None,,,,,,,,,,,,,,,,None,None,None,,None,None,317.2486773960118,None,3,1,1.1378726679831743,317.2486773960118,None,318.38014693879813,None,None,None,None,,13,001,2023_Jan_19_1653,searchDisc5,2021.2.3,59.95821499375167,
images/exp2b_trial_49_colour1_distractors9_l.png,l,1,1,9,0,,,,,0,29,29,29,,,,,,,,,,,,,,,,,,,,,,,,,,,,,,,,,,,,,,,,,,,318.39685632201144,None,2,0.3374503649829421,318.39685632201144,None,,,,,,,,,,,,,,,,None,None,None,,None,None,318.78015547501855,None,1,1,0.9221542509912979,318.78015547501855,None,319.6969564358151,None,None,None,None,,13,001,2023_Jan_19_1653,searchDisc5,2021.2.3,59.95821499375167,
images/exp2c_trial_40_colour2_distractors19_r.png,r,3,2,19,0,,,,,0,30,30,30,,,,,,,,,,,,,,,,,,,,,,,,,,,,,,,,,,,,,,,,,,,319.71319591999054,None,2,0.3542813000094611,319.71319591999054,None,,,,,,,,,,,,,,,,None,None,None,,None,None,320.1135806920065,None,3,1,0.7541218230035156,320.1135806920065,None,320.8637336638203,None,None,None,None,,13,001,2023_Jan_19_1653,searchDisc5,2021.2.3,59.95821499375167,
images/exp1a_trial_209_colour1_distractors9_l.png,l,1,1,9,0,,,,,0,31,31,31,,,,,,,,,,,,,,,,,,,,,,,,,,,,,,,,,,,,,,,,,,,320.880104011012,None,2,0.27339017498889007,320.880104011012,None,,,,,,,,,,,,,,,,None,None,None,,None,None,321.19650234200526,None,1,1,1.3853331690188497,321.19650234200526,None,322.5802443277935,None,None,None,None,,13,001,2023_Jan_19_1653,searchDisc5,2021.2.3,59.95821499375167,
images/exp2c_trial_221_colour3_distractors31_l.png,l,1,3,31,0,,,,,0,32,32,32,,,,,,,,,,,,,,,,,,,,,,,,,,,,,,,,,,,,,,,,,,,322.5963124629925,None,2,0.3881086180044804,322.5963124629925,None,,,,,,,,,,,,,,,,None,None,None,,None,None,323.0303019809944,None,1,1,2.0889066880044993,323.0303019809944,None,325.1137734057993,None,None,None,None,,13,001,2023_Jan_19_1653,searchDisc5,2021.2.3,59.95821499375167,
images/exp2a_trial_4_colour1_distractors31_r.png,r,3,1,31,0,,,,,0,33,33,33,,,,,,,,,,,,,,,,,,,,,,,,,,,,,,,,,,,,,,,,,,,325.132235616009,None,2,0.31925333198159933,325.132235616009,None,,,,,,,,,,,,,,,,None,None,None,,None,None,325.49688148501446,None,3,1,0.5857232249982189,325.49688148501446,None,326.08040775980044,None,None,None,None,,13,001,2023_Jan_19_1653,searchDisc5,2021.2.3,59.95821499375167,
images/exp1a_trial_223_colour0_distractors0_l.png,l,1,0,0,0,,,,,0,34,34,34,,,,,,,,,,,,,,,,,,,,,,,,,,,,,,,,,,,,,,,,,,,326.0967264030187,None,2,0.3726771720102988,326.0967264030187,None,,,,,,,,,,,,,,,,None,None,None,,None,None,326.51558757701423,None,1,1,0.8066916299867444,326.51558757701423,None,327.31390861181717,None,None,None,None,,13,001,2023_Jan_19_1653,searchDisc5,2021.2.3,59.95821499375167,
images/exp2c_trial_43_colour3_distractors4_r.png,r,3,3,4,0,,,,,0,35,35,35,,,,,,,,,,,,,,,,,,,,,,,,,,,,,,,,,,,,,,,,,,,327.3296622170019,None,2,0.2878899019851815,327.3296622170019,None,,,,,,,,,,,,,,,,None,None,None,,None,None,327.6632444130082,None,3,1,1.2873332210001536,327.6632444130082,None,328.94654628979333,None,None,None,None,,13,001,2023_Jan_19_1653,searchDisc5,2021.2.3,59.95821499375167,
images/exp2c_trial_2_colour1_distractors9_r.png,r,3,1,9,0,,,,,0,36,36,36,,,,,,,,,,,,,,,,,,,,,,,,,,,,,,,,,,,,,,,,,,,328.96366098799626,None,2,0.28841199999442324,328.96366098799626,None,,,,,,,,,,,,,,,,None,None,None,,None,None,329.29701695000404,None,3,1,0.875365799991414,329.29701695000404,None,330.16728117079765,None,None,None,None,,13,001,2023_Jan_19_1653,searchDisc5,2021.2.3,59.95821499375167,
images/exp2b_trial_59_colour3_distractors9_l.png,l,1,3,9,0,,,,,0,37,37,37,,,,,,,,,,,,,,,,,,,,,,,,,,,,,,,,,,,,,,,,,,,330.18145765399095,None,2,0.26865330297732726,330.18145765399095,None,,,,,,,,,,,,,,,,None,None,None,,None,None,330.4994951300032,None,3,0,0.6533774910203647,330.4994951300032,None,331.14694962579233,None,None,None,None,,13,001,2023_Jan_19_1653,searchDisc5,2021.2.3,59.95821499375167,
images/exp2b_trial_9_colour2_distractors31_r.png,r,3,2,31,0,,,,,0,38,38,38,,,,,,,,,,,,,,,,,,,,,,,,,,,,,,,,,,,,,,,,,,,331.16580707000685,None,2,0.6876666510070208,331.16580707000685,None,,,,,,,,,,,,,,,,None,None,None,,None,None,331.9004770560132,None,3,1,1.454255625983933,331.9004770560132,None,333.3473825278197,None,None,None,None,,13,001,2023_Jan_19_1653,searchDisc5,2021.2.3,59.95821499375167,
images/exp2b_trial_262_colour2_distractors4_r.png,r,3,2,4,0,,,,,0,39,39,39,,,,,,,,,,,,,,,,,,,,,,,,,,,,,,,,,,,,,,,,,,,333.3665766440099,None,2,0.20449848400312476,333.3665766440099,None,,,,,,,,,,,,,,,,None,None,None,,None,None,333.61420814099256,None,3,1,1.1890176129818428,333.61420814099256,None,334.7973796158185,None,None,None,None,,13,001,2023_Jan_19_1653,searchDisc5,2021.2.3,59.95821499375167,
images/exp2c_trial_245_colour2_distractors4_l.png,l,1,2,4,0,,,,,0,40,40,40,,,,,,,,,,,,,,,,,,,,,,,,,,,,,,,,,,,,,,,,,,,334.8159445009951,None,2,0.20754092099377885,334.8159445009951,None,,,,,,,,,,,,,,,,None,None,None,,None,None,335.0648324560025,None,1,1,0.7533963820023928,335.0648324560025,None,335.8141089858109,None,None,None,None,,13,001,2023_Jan_19_1653,searchDisc5,2021.2.3,59.95821499375167,
images/exp1a_trial_79_colour1_distractors1_l.png,l,1,1,1,0,,,,,0,41,41,41,,,,,,,,,,,,,,,,,,,,,,,,,,,,,,,,,,,,,,,,,,,335.83096230600495,None,2,0.20756143401376903,335.83096230600495,None,,,,,,,,,,,,,,,,None,None,None,,None,None,336.08368577901274,None,3,0,1.0220372320036404,336.08368577901274,None,337.09749157381884,None,None,None,None,,13,001,2023_Jan_19_1653,searchDisc5,2021.2.3,59.95821499375167,
images/exp2b_trial_98_colour1_distractors9_r.png,r,3,1,9,0,,,,,0,42,42,42,,,,,,,,,,,,,,,,,,,,,,,,,,,,,,,,,,,,,,,,,,,337.1139376749925,None,2,0.2859303939912934,337.1139376749925,None,,,,,,,,,,,,,,,,None,None,None,,None,None,337.4479669860157,None,3,1,0.9573210479866248,337.4479669860157,None,338.39752950180264,None,None,None,None,,13,001,2023_Jan_19_1653,searchDisc5,2021.2.3,59.95821499375167,
images/exp2b_trial_258_colour1_distractors9_r.png,r,3,1,9,0,,,,,0,43,43,43,,,,,,,,,,,,,,,,,,,,,,,,,,,,,,,,,,,,,,,,,,,338.41393362899544,None,2,0.20247530099004507,338.41393362899544,None,,,,,,,,,,,,,,,,None,None,None,,None,None,338.6642633670126,None,3,1,1.2392631270049606,338.6642633670126,None,339.89865370579355,None,None,None,None,,13,001,2023_Jan_19_1653,searchDisc5,2021.2.3,59.95821499375167,
images/exp2c_trial_147_colour1_distractors31_l.png,l,1,1,31,0,,,,,0,44,44,44,,,,,,,,,,,,,,,,,,,,,,,,,,,,,,,,,,,,,,,,,,,339.91505849099485,None,2,0.37160981399938464,339.91505849099485,None,,,,,,,,,,,,,,,,None,None,None,,None,None,340.33170573800453,None,1,1,0.7180206030025147,340.33170573800453,None,341.04765914079326,None,None,None,None,,13,001,2023_Jan_19_1653,searchDisc5,2021.2.3,59.95821499375167,
images/exp2c_trial_185_colour3_distractors1_l.png,l,1,3,1,0,,,,,0,45,45,45,,,,,,,,,,,,,,,,,,,,,,,,,,,,,,,,,,,,,,,,,,,341.06685690701124,None,2,0.2732190290116705,341.06685690701124,None,,,,,,,,,,,,,,,,None,None,None,,None,None,341.38095967299887,None,1,1,0.8551810589851812,341.38095967299887,None,342.2309657108126,None,None,None,None,,13,001,2023_Jan_19_1653,searchDisc5,2021.2.3,59.95821499375167,
images/exp2b_trial_104_colour2_distractors19_r.png,r,3,2,19,0,,,,,0,46,46,46,,,,,,,,,,,,,,,,,,,,,,,,,,,,,,,,,,,,,,,,,,,342.24654394801473,None,2,0.18671687398455106,342.24654394801473,None,,,,,,,,,,,,,,,,None,None,None,,None,None,342.4840000590193,None,3,1,0.9044578880129848,342.4840000590193,None,343.3810758098116,None,None,None,None,,13,001,2023_Jan_19_1653,searchDisc5,2021.2.3,59.95821499375167,
images/exp2b_trial_252_colour3_distractors19_l.png,l,1,3,19,0,,,,,0,47,47,47,,,,,,,,,,,,,,,,,,,,,,,,,,,,,,,,,,,,,,,,,,,343.3975148239988,None,2,0.17193344500265084,343.3975148239988,None,,,,,,,,,,,,,,,,None,None,None,,None,None,343.6168932050059,None,1,1,1.1710131190193351,343.6168932050059,None,344.78098047581443,None,None,None,None,,13,001,2023_Jan_19_1653,searchDisc5,2021.2.3,59.95821499375167,
images/exp2c_trial_61_colour3_distractors31_l.png,l,1,3,31,0,,,,,0,48,48,48,,,,,,,,,,,,,,,,,,,,,,,,,,,,,,,,,,,,,,,,,,,344.7978483780171,None,2,0.23799001600127667,344.7978483780171,None,,,,,,,,,,,,,,,,None,None,None,,None,None,345.08178444599616,None,1,1,1.5523232310079038,345.08178444599616,None,346.6310318317992,None,None,None,None,,13,001,2023_Jan_19_1653,searchDisc5,2021.2.3,59.95821499375167,
images/exp2b_trial_101_colour2_distractors1_r.png,r,3,2,1,0,,,,,0,49,49,49,,,,,,,,,,,,,,,,,,,,,,,,,,,,,,,,,,,,,,,,,,,346.6481507680146,None,2,0.20794583202223293,346.6481507680146,None,,,,,,,,,,,,,,,,None,None,None,,None,None,346.8997905580036,None,3,1,0.7696199720085133,346.8997905580036,None,347.66440166581015,None,None,None,None,,13,001,2023_Jan_19_1653,searchDisc5,2021.2.3,59.95821499375167,
images/exp1a_trial_306_colour1_distractors19_l.png,l,1,1,19,0,,,,,0,50,50,50,,,,,,,,,,,,,,,,,,,,,,,,,,,,,,,,,,,,,,,,,,,347.683502297994,None,2,0.2046029219927732,347.683502297994,None,,,,,,,,,,,,,,,,None,None,None,,None,None,347.931101707014,None,1,1,0.952346028003376,347.931101707014,None,348.88103643881914,None,None,None,None,,13,001,2023_Jan_19_1653,searchDisc5,2021.2.3,59.95821499375167,
images/exp2b_trial_283_colour3_distractors9_l.png,l,1,3,9,0,,,,,0,51,51,51,,,,,,,,,,,,,,,,,,,,,,,,,,,,,,,,,,,,,,,,,,,348.89759008199326,None,2,0.22218514597625472,348.89759008199326,None,,,,,,,,,,,,,,,,None,None,None,,None,None,349.16465973100276,None,1,1,1.922070821019588,349.16465973100276,None,351.0816226737952,None,None,None,None,,13,001,2023_Jan_19_1653,searchDisc5,2021.2.3,59.95821499375167,
images/exp2c_trial_316_colour3_distractors19_l.png,l,1,3,19,0,,,,,0,52,52,52,,,,,,,,,,,,,,,,,,,,,,,,,,,,,,,,,,,,,,,,,,,351.09919006799464,None,2,0.2873484450101387,351.09919006799464,None,,,,,,,,,,,,,,,,None,None,None,,None,None,351.4322519999987,None,1,1,0.6875730660103727,351.4322519999987,None,352.1146532968123,None,None,None,None,,13,001,2023_Jan_19_1653,searchDisc5,2021.2.3,59.95821499375167,
images/exp2b_trial_233_colour2_distractors31_r.png,r,3,2,31,0,,,,,0,53,53,53,,,,,,,,,,,,,,,,,,,,,,,,,,,,,,,,,,,,,,,,,,,352.13166032001027,None,2,0.1720628679904621,352.13166032001027,None,,,,,,,,,,,,,,,,None,None,None,,None,None,352.35059649901814,None,3,1,0.7033660290180705,352.35059649901814,None,353.0489710098045,None,None,None,None,,13,001,2023_Jan_19_1653,searchDisc5,2021.2.3,59.95821499375167,
images/exp1a_trial_282_colour3_distractors4_l.png,l,1,3,4,0,,,,,0,54,54,54,,,,,,,,,,,,,,,,,,,,,,,,,,,,,,,,,,,,,,,,,,,353.06430140000884,None,2,0.20452385701355524,353.06430140000884,None,,,,,,,,,,,,,,,,None,None,None,,None,None,353.316682477016,None,1,1,0.991845288022887,353.316682477016,None,354.29898055981903,None,None,None,None,,13,001,2023_Jan_19_1653,searchDisc5,2021.2.3,59.95821499375167,
images/exp2a_trial_184_colour2_distractors31_l.png,l,1,2,31,0,,,,,0,55,55,55,,,,,,,,,,,,,,,,,,,,,,,,,,,,,,,,,,,,,,,,,,,354.314090631,None,2,0.16915666402201168,354.314090631,None,,,,,,,,,,,,,,,,None,None,None,,None,None,354.5330754450115,None,1,1,4.715714472025866,354.5330754450115,None,359.24893948879617,None,None,None,None,,13,001,2023_Jan_19_1653,searchDisc5,2021.2.3,59.95821499375167,
images/exp2b_trial_56_colour2_distractors31_l.png,l,1,2,31,0,,,,,0,56,56,56,,,,,,,,,,,,,,,,,,,,,,,,,,,,,,,,,,,,,,,,,,,359.26664938399335,None,2,0.6195956980227493,359.26664938399335,None,,,,,,,,,,,,,,,,None,None,None,,None,None,359.9319068469922,None,1,1,1.6038774790067691,359.9319068469922,None,361.5316529217962,None,None,None,None,,13,001,2023_Jan_19_1653,searchDisc5,2021.2.3,59.95821499375167,
images/exp2b_trial_26_colour3_distractors4_l.png,l,1,3,4,0,,,,,0,57,57,57,,,,,,,,,,,,,,,,,,,,,,,,,,,,,,,,,,,,,,,,,,,361.5488520390063,None,2,0.3218460269854404,361.5488520390063,None,,,,,,,,,,,,,,,,None,None,None,,None,None,361.9140844749927,None,1,1,0.8386236350052059,361.9140844749927,None,362.74818223879265,None,None,None,None,,13,001,2023_Jan_19_1653,searchDisc5,2021.2.3,59.95821499375167,
images/exp2c_trial_213_colour2_distractors4_l.png,l,1,2,4,0,,,,,0,58,58,58,,,,,,,,,,,,,,,,,,,,,,,,,,,,,,,,,,,,,,,,,,,362.7651043200167,None,2,0.28888152199215256,362.7651043200167,None,,,,,,,,,,,,,,,,None,None,None,,None,None,363.0983336130157,None,1,1,0.9050367769959848,363.0983336130157,None,363.99811288180354,None,None,None,None,,13,001,2023_Jan_19_1653,searchDisc5,2021.2.3,59.95821499375167,
images/exp2a_trial_176_colour1_distractors4_l.png,l,1,1,4,0,,,,,0,59,59,59,,,,,,,,,,,,,,,,,,,,,,,,,,,,,,,,,,,,,,,,,,,364.0173326219956,None,2,0.28837962698889896,364.0173326219956,None,,,,,,,,,,,,,,,,None,None,None,,None,None,364.3482724990172,None,1,1,1.1557632790063508,364.3482724990172,None,365.49826275480154,None,None,None,None,,13,001,2023_Jan_19_1653,searchDisc5,2021.2.3,59.95821499375167,
images/exp2c_trial_204_colour3_distractors9_r.png,r,3,3,9,0,,,,,0,60,60,60,,,,,,,,,,,,,,,,,,,,,,,,,,,,,,,,,,,,,,,,,,,365.5147113900166,None,2,0.27219858299940825,365.5147113900166,None,,,,,,,,,,,,,,,,None,None,None,,None,None,365.83208427301724,None,3,1,0.8531034739862662,365.83208427301724,None,366.68156245980936,None,None,None,None,,13,001,2023_Jan_19_1653,searchDisc5,2021.2.3,59.95821499375167,
images/exp2b_trial_58_colour3_distractors4_l.png,l,1,3,4,0,,,,,0,61,61,61,,,,,,,,,,,,,,,,,,,,,,,,,,,,,,,,,,,,,,,,,,,366.6980666159943,None,2,0.24225598701741546,366.6980666159943,None,,,,,,,,,,,,,,,,None,None,None,,None,None,366.981666392996,None,1,1,0.6190015430038329,366.981666392996,None,367.59821389279386,None,None,None,None,,13,001,2023_Jan_19_1653,searchDisc5,2021.2.3,59.95821499375167,
images/exp1a_trial_94_colour0_distractors0_r.png,r,3,0,0,0,,,,,0,62,62,62,,,,,,,,,,,,,,,,,,,,,,,,,,,,,,,,,,,,,,,,,,,367.6172491960169,None,2,0.9067839420167729,367.6172491960169,None,,,,,,,,,,,,,,,,None,None,None,,None,None,368.56593926399364,None,3,1,0.8376135719881859,368.56593926399364,None,369.39835730379855,None,None,None,None,,13,001,2023_Jan_19_1653,searchDisc5,2021.2.3,59.95821499375167,
images/exp2a_trial_214_colour2_distractors9_l.png,l,1,2,9,0,,,,,0,63,63,63,,,,,,,,,,,,,,,,,,,,,,,,,,,,,,,,,,,,,,,,,,,369.4156793699949,None,2,0.2240731269994285,369.4156793699949,None,,,,,,,,,,,,,,,,None,None,None,,None,None,369.6811596059997,None,1,1,1.3646322990243789,369.6811596059997,None,371.0474955058162,None,None,None,None,,13,001,2023_Jan_19_1653,searchDisc5,2021.2.3,59.95821499375167,
images/exp2c_trial_282_colour3_distractors4_l.png,l,1,3,4,0,,,,,0,64,64,64,,,,,,,,,,,,,,,,,,,,,,,,,,,,,,,,,,,,,,,,,,,371.0654441950028,None,2,0.22416012300527655,371.0654441950028,None,,,,,,,,,,,,,,,,None,None,None,,None,None,371.3338200150174,None,1,1,0.8713244720129296,371.3338200150174,None,372.1994188368117,None,None,None,None,,13,001,2023_Jan_19_1653,searchDisc5,2021.2.3,59.95821499375167,
images/exp2b_trial_251_colour3_distractors9_l.png,l,1,3,9,0,,,,,0,65,65,65,,,,,,,,,,,,,,,,,,,,,,,,,,,,,,,,,,,,,,,,,,,372.214891850017,None,2,0.17033393401652575,372.214891850017,None,,,,,,,,,,,,,,,,None,None,None,,None,None,372.4320314590004,None,1,1,1.870405584020773,372.4320314590004,None,374.29803620681923,None,None,None,None,,13,001,2023_Jan_19_1653,searchDisc5,2021.2.3,59.95821499375167,
images/exp1a_trial_113_colour1_distractors9_l.png,l,1,1,9,0,,,,,0,66,66,66,,,,,,,,,,,,,,,,,,,,,,,,,,,,,,,,,,,,,,,,,,,374.31714712199755,None,2,0.4555348319991026,374.31714712199755,None,,,,,,,,,,,,,,,,None,None,None,,None,None,374.81727803801186,None,1,1,2.67017316800775,374.81727803801186,None,377.48192517879943,None,None,None,None,,13,001,2023_Jan_19_1653,searchDisc5,2021.2.3,59.95821499375167,
images/exp2c_trial_120_colour2_distractors31_l.png,l,1,2,31,0,,,,,0,67,67,67,,,,,,,,,,,,,,,,,,,,,,,,,,,,,,,,,,,,,,,,,,,377.4983071589959,None,2,0.3221204610017594,377.4983071589959,None,,,,,,,,,,,,,,,,None,None,None,,None,None,377.8654559979914,None,1,1,1.2860938230005559,377.8654559979914,None,379.1486960248003,None,None,None,None,,13,001,2023_Jan_19_1653,searchDisc5,2021.2.3,59.95821499375167,
images/exp2a_trial_292_colour1_distractors31_r.png,r,3,1,31,0,,,,,0,68,68,68,,,,,,,,,,,,,,,,,,,,,,,,,,,,,,,,,,,,,,,,,,,379.1660063540039,None,2,0.38844436398358084,379.1660063540039,None,,,,,,,,,,,,,,,,None,None,None,,None,None,379.6011314339994,None,3,1,0.8017912330105901,379.6011314339994,None,380.39867550380586,None,None,None,None,,13,001,2023_Jan_19_1653,searchDisc5,2021.2.3,59.95821499375167,
images/exp1a_trial_218_colour3_distractors4_l.png,l,1,3,4,0,,,,,0,69,69,69,,,,,,,,,,,,,,,,,,,,,,,,,,,,,,,,,,,,,,,,,,,380.41511167999124,None,2,0.30476148799061775,380.41511167999124,None,,,,,,,,,,,,,,,,None,None,None,,None,None,380.76583585800836,None,1,1,4.455613923026249,380.76583585800836,None,385.21543499881227,None,None,None,None,,13,001,2023_Jan_19_1653,searchDisc5,2021.2.3,59.95821499375167,
images/exp2a_trial_264_colour2_distractors19_r.png,r,3,2,19,0,,,,,0,70,70,70,,,,,,,,,,,,,,,,,,,,,,,,,,,,,,,,,,,,,,,,,,,385.23481478801114,None,2,0.5235769840073772,385.23481478801114,None,,,,,,,,,,,,,,,,None,None,None,,None,None,385.7991825650097,None,3,1,0.9149157080100849,385.7991825650097,None,386.7176048518013,None,None,None,None,,13,001,2023_Jan_19_1653,searchDisc5,2021.2.3,59.95821499375167,
images/exp2b_trial_21_colour2_distractors4_l.png,l,1,2,4,0,,,,,0,71,71,71,,,,,,,,,,,,,,,,,,,,,,,,,,,,,,,,,,,,,,,,,,,386.7345856949978,None,2,0.28686387598281726,386.7345856949978,None,,,,,,,,,,,,,,,,None,None,None,,None,None,387.0663703060127,None,1,1,0.838679423002759,387.0663703060127,None,387.8988612318208,None,None,None,None,,13,001,2023_Jan_19_1653,searchDisc5,2021.2.3,59.95821499375167,
images/exp1a_trial_192_colour1_distractors1_r.png,r,3,1,1,0,,,,,0,72,72,72,,,,,,,,,,,,,,,,,,,,,,,,,,,,,,,,,,,,,,,,,,,387.918089579005,None,2,0.2718042710039299,387.918089579005,None,,,,,,,,,,,,,,,,None,None,None,,None,None,388.23291507401154,None,3,1,0.955899569002213,388.23291507401154,None,389.1821856188035,None,None,None,None,,13,001,2023_Jan_19_1653,searchDisc5,2021.2.3,59.95821499375167,
images/exp2b_trial_114_colour1_distractors19_l.png,l,1,1,19,0,,,,,0,73,73,73,,,,,,,,,,,,,,,,,,,,,,,,,,,,,,,,,,,,,,,,,,,389.1996513509948,None,2,0.23744580001221038,389.1996513509948,None,,,,,,,,,,,,,,,,None,None,None,,None,None,389.48323061701376,None,1,1,1.005673414998455,389.48323061701376,None,390.4836969378084,None,None,None,None,,13,001,2023_Jan_19_1653,searchDisc5,2021.2.3,59.95821499375167,
images/exp1a_trial_198_colour2_distractors4_r.png,r,3,2,4,0,,,,,0,74,74,74,,,,,,,,,,,,,,,,,,,,,,,,,,,,,,,,,,,,,,,,,,,390.5011883320112,None,2,0.22071909898659214,390.5011883320112,None,,,,,,,,,,,,,,,,None,None,None,,None,None,390.7666146559932,None,3,1,0.6721632410190068,390.7666146559932,None,391.4334226348001,None,None,None,None,,13,001,2023_Jan_19_1653,searchDisc5,2021.2.3,59.95821499375167,
images/exp2b_trial_171_colour3_distractors4_r.png,r,3,3,4,0,,,,,0,75,75,75,,,,,,,,,,,,,,,,,,,,,,,,,,,,,,,,,,,,,,,,,,,391.4496120730182,None,2,0.23682094499235973,391.4496120730182,None,,,,,,,,,,,,,,,,None,None,None,,None,None,391.7323655069922,None,3,1,2.108501041017007,391.7323655069922,None,393.83253466481983,None,None,None,None,,13,001,2023_Jan_19_1653,searchDisc5,2021.2.3,59.95821499375167,
images/exp1a_trial_140_colour3_distractors9_r.png,r,3,3,9,0,,,,,0,76,76,76,,,,,,,,,,,,,,,,,,,,,,,,,,,,,,,,,,,,,,,,,,,393.8488213919918,None,2,0.2350892260146793,393.8488213919918,None,,,,,,,,,,,,,,,,None,None,None,,None,None,394.1333995760069,None,3,1,1.287546413979726,394.1333995760069,None,395.4157788608136,None,None,None,None,,13,001,2023_Jan_19_1653,searchDisc5,2021.2.3,59.95821499375167,
images/exp1a_trial_267_colour3_distractors4_r.png,r,3,3,4,0,,,,,0,77,77,77,,,,,,,,,,,,,,,,,,,,,,,,,,,,,,,,,,,,,,,,,,,395.43235173099674,None,2,0.2542005750001408,395.43235173099674,None,,,,,,,,,,,,,,,,None,None,None,,None,None,395.7332310609927,None,3,1,0.7387327680189628,395.7332310609927,None,396.4657395178074,None,None,None,None,,13,001,2023_Jan_19_1653,searchDisc5,2021.2.3,59.95821499375167,
images/exp2a_trial_78_colour3_distractors31_r.png,r,3,3,31,0,,,,,0,78,78,78,,,,,,,,,,,,,,,,,,,,,,,,,,,,,,,,,,,,,,,,,,,396.4828480340075,None,2,0.22125928199966438,396.4828480340075,None,,,,,,,,,,,,,,,,None,None,None,,None,None,396.75164708000375,None,3,1,0.5355883930169512,396.75164708000375,None,397.28220893679827,None,None,None,None,,13,001,2023_Jan_19_1653,searchDisc5,2021.2.3,59.95821499375167,
images/exp2c_trial_104_colour2_distractors19_r.png,r,3,2,19,0,,,,,0,79,79,79,,,,,,,,,,,,,,,,,,,,,,,,,,,,,,,,,,,,,,,,,,,397.2991318840068,None,2,0.17248921998543665,397.2991318840068,None,,,,,,,,,,,,,,,,None,None,None,,None,None,397.5176747759979,None,3,1,0.5695513539831154,397.5176747759979,None,398.08250001580745,None,None,None,None,,13,001,2023_Jan_19_1653,searchDisc5,2021.2.3,59.95821499375167,
images/exp2c_trial_186_colour3_distractors4_l.png,l,1,3,4,0,,,,,0,80,80,80,,,,,,,,,,,,,,,,,,,,,,,,,,,,,,,,,,,,,,,,,,,398.0994270580122,None,2,0.15638866199878976,398.0994270580122,None,,,,,,,,,,,,,,,,None,None,None,,None,None,398.3016152929922,None,1,1,0.6545421539922245,398.3016152929922,None,398.9491972797987,None,None,None,None,,13,001,2023_Jan_19_1653,searchDisc5,2021.2.3,59.95821499375167,
images/exp2a_trial_167_colour2_distractors9_r.png,r,3,2,9,0,,,,,0,81,81,81,,,,,,,,,,,,,,,,,,,,,,,,,,,,,,,,,,,,,,,,,,,398.9650256310124,None,2,0.19093066701316275,398.9650256310124,None,,,,,,,,,,,,,,,,None,None,None,,None,None,399.2012458660174,None,3,1,0.9498944439983461,399.2012458660174,None,400.1491617408028,None,None,None,None,,13,001,2023_Jan_19_1653,searchDisc5,2021.2.3,59.95821499375167,
images/exp2b_trial_196_colour1_distractors31_r.png,r,3,1,31,0,,,,,0,82,82,82,,,,,,,,,,,,,,,,,,,,,,,,,,,,,,,,,,,,,,,,,,,400.16584195100586,None,2,0.20540994399925694,400.16584195100586,None,,,,,,,,,,,,,,,,None,None,None,,None,None,400.41694618499605,None,3,1,1.2023432689893525,400.41694618499605,None,401.61701036080194,None,None,None,None,,13,001,2023_Jan_19_1653,searchDisc5,2021.2.3,59.95821499375167,
images/exp2a_trial_128_colour1_distractors1_r.png,r,3,1,1,0,,,,,0,83,83,83,,,,,,,,,,,,,,,,,,,,,,,,,,,,,,,,,,,,,,,,,,,401.63542760699056,None,2,0.22081240298575722,401.63542760699056,None,,,,,,,,,,,,,,,,None,None,None,,None,None,401.8992516369908,None,1,0,0.7063305840129033,401.8992516369908,None,402.6000560098182,None,None,None,None,,13,001,2023_Jan_19_1653,searchDisc5,2021.2.3,59.95821499375167,
images/exp2a_trial_40_colour2_distractors19_r.png,r,3,2,19,0,,,,,0,84,84,84,,,,,,,,,,,,,,,,,,,,,,,,,,,,,,,,,,,,,,,,,,,402.61541199701605,None,2,0.18800251398351975,402.61541199701605,None,,,,,,,,,,,,,,,,None,None,None,,None,None,402.8520124210045,None,3,1,1.6797774690203369,402.8520124210045,None,404.53207457881945,None,None,None,None,,13,001,2023_Jan_19_1653,searchDisc5,2021.2.3,59.95821499375167,
images/exp2c_trial_283_colour3_distractors9_l.png,l,1,3,9,0,,,,,0,85,85,85,,,,,,,,,,,,,,,,,,,,,,,,,,,,,,,,,,,,,,,,,,,404.55014358699555,None,2,0.2073637910070829,404.55014358699555,None,,,,,,,,,,,,,,,,None,None,None,,None,None,404.80144957001903,None,1,1,0.7868217970244586,404.80144957001903,None,405.582695385805,None,None,None,None,,13,001,2023_Jan_19_1653,searchDisc5,2021.2.3,59.95821499375167,
images/exp2b_trial_316_colour3_distractors19_l.png,l,1,3,19,0,,,,,0,86,86,86,,,,,,,,,,,,,,,,,,,,,,,,,,,,,,,,,,,,,,,,,,,405.59977424601675,None,2,0.15374800001154654,405.59977424601675,None,,,,,,,,,,,,,,,,None,None,None,,None,None,405.7993865009921,None,1,1,0.8872843050048687,405.7993865009921,None,406.68188698579615,None,None,None,None,,13,001,2023_Jan_19_1653,searchDisc5,2021.2.3,59.95821499375167,
images/exp2b_trial_117_colour2_distractors4_l.png,l,1,2,4,0,,,,,0,87,87,87,,,,,,,,,,,,,,,,,,,,,,,,,,,,,,,,,,,,,,,,,,,406.701106196997,None,2,0.10553068498848006,406.701106196997,None,,,,,,,,,,,,,,,,None,None,None,,None,None,406.84919480301323,None,1,1,0.7890073460002895,406.84919480301323,None,407.6327686917939,None,None,None,None,,13,001,2023_Jan_19_1653,searchDisc5,2021.2.3,59.95821499375167,
images/exp1a_trial_87_colour2_distractors19_l.png,l,1,2,19,0,,,,,0,88,88,88,,,,,,,,,,,,,,,,,,,,,,,,,,,,,,,,,,,,,,,,,,,407.64990484999726,None,2,0.10516258599818684,407.64990484999726,None,,,,,,,,,,,,,,,,None,None,None,,None,None,407.8001239199948,None,3,0,0.701111115020467,407.8001239199948,None,408.4993827588187,None,None,None,None,,13,001,2023_Jan_19_1653,searchDisc5,2021.2.3,59.95821499375167,
images/exp2a_trial_311_colour2_distractors19_l.png,l,1,2,19,0,,,,,0,89,89,89,,,,,,,,,,,,,,,,,,,,,,,,,,,,,,,,,,,,,,,,,,,408.5163510669954,None,2,0.4880258320190478,408.5163510669954,None,,,,,,,,,,,,,,,,None,None,None,,None,None,409.0516135600046,None,1,1,0.8987978439836297,409.0516135600046,None,409.94967932281725,None,None,None,None,,13,001,2023_Jan_19_1653,searchDisc5,2021.2.3,59.95821499375167,
images/exp2c_trial_257_colour1_distractors4_r.png,r,3,1,4,0,,,,,0,90,90,90,,,,,,,,,,,,,,,,,,,,,,,,,,,,,,,,,,,,,,,,,,,409.9667119650112,None,2,0.13785072800237685,409.9667119650112,None,,,,,,,,,,,,,,,,None,None,None,,None,None,410.1525634179998,None,3,1,0.8247199849865865,410.1525634179998,None,410.9682804398035,None,None,None,None,,13,001,2023_Jan_19_1653,searchDisc5,2021.2.3,59.95821499375167,
images/exp2b_trial_3_colour1_distractors19_r.png,r,3,1,19,0,,,,,0,91,91,91,,,,,,,,,,,,,,,,,,,,,,,,,,,,,,,,,,,,,,,,,,,410.982596167014,None,2,0.17110844698618166,410.982596167014,None,,,,,,,,,,,,,,,,None,None,None,,None,None,411.20208232000005,None,3,1,0.8025004650116898,411.20208232000005,None,411.99947008780146,None,None,None,None,,13,001,2023_Jan_19_1653,searchDisc5,2021.2.3,59.95821499375167,
images/exp2b_trial_87_colour2_distractors19_l.png,l,1,2,19,0,,,,,0,92,92,92,,,,,,,,,,,,,,,,,,,,,,,,,,,,,,,,,,,,,,,,,,,412.0167892409954,None,2,0.15448279900010675,412.0167892409954,None,,,,,,,,,,,,,,,,None,None,None,,None,None,412.2182814599946,None,1,1,1.121201748988824,412.2182814599946,None,413.33291124580137,None,None,None,None,,13,001,2023_Jan_19_1653,searchDisc5,2021.2.3,59.95821499375167,
images/exp2a_trial_218_colour3_distractors4_l.png,l,1,3,4,0,,,,,0,93,93,93,,,,,,,,,,,,,,,,,,,,,,,,,,,,,,,,,,,,,,,,,,,413.349853281019,None,2,0.1380122610135004,413.349853281019,None,,,,,,,,,,,,,,,,None,None,None,,None,None,413.5322479600145,None,1,1,1.2408437950070947,413.5322479600145,None,414.7662642297946,None,None,None,None,,13,001,2023_Jan_19_1653,searchDisc5,2021.2.3,59.95821499375167,
images/exp2c_trial_152_colour2_distractors31_l.png,l,1,2,31,0,,,,,0,94,94,94,,,,,,,,,,,,,,,,,,,,,,,,,,,,,,,,,,,,,,,,,,,414.78482572201756,None,2,0.08786502599832602,414.78482572201756,None,,,,,,,,,,,,,,,,None,None,None,,None,None,414.9162881450029,None,1,1,0.902659831015626,414.9162881450029,None,415.8162807017943,None,None,None,None,,13,001,2023_Jan_19_1653,searchDisc5,2021.2.3,59.95821499375167,
images/exp2a_trial_42_colour3_distractors1_r.png,r,3,3,1,0,,,,,0,95,95,95,,,,,,,,,,,,,,,,,,,,,,,,,,,,,,,,,,,,,,,,,,,415.83277790699503,None,2,0.15346340302494355,415.83277790699503,None,,,,,,,,,,,,,,,,None,None,None,,None,None,416.03495172501425,None,3,1,0.840151369018713,416.03495172501425,None,416.86641633980616,None,None,None,None,,13,001,2023_Jan_19_1653,searchDisc5,2021.2.3,59.95821499375167,
images/exp2c_trial_253_colour3_distractors31_l.png,l,1,3,31,0,,,,,0,96,96,96,,,,,,,,,,,,,,,,,,,,,,,,,,,,,,,,,,,,,,,,,,,416.8826198820025,None,2,0.17211885302094743,416.8826198820025,None,,,,,,,,,,,,,,,,None,None,None,,None,None,417.1026256600162,None,1,1,0.9691699589893688,417.1026256600162,None,418.0664545378095,None,None,None,None,,13,001,2023_Jan_19_1653,searchDisc5,2021.2.3,59.95821499375167,
images/exp2a_trial_163_colour1_distractors19_r.png,r,3,1,19,0,,,,,0,97,97,97,,,,,,,,,,,,,,,,,,,,,,,,,,,,,,,,,,,,,,,,,,,418.0838129110052,None,2,0.13846658400143497,418.0838129110052,None,,,,,,,,,,,,,,,,None,None,None,,None,None,418.2684639079962,None,3,1,0.7533111360098701,418.2684639079962,None,419.0164840147918,None,None,None,None,,13,001,2023_Jan_19_1653,searchDisc5,2021.2.3,59.95821499375167,
images/exp1a_trial_279_colour2_distractors19_l.png,l,1,2,19,0,,,,,0,98,98,98,,,,,,,,,,,,,,,,,,,,,,,,,,,,,,,,,,,,,,,,,,,419.03345219799667,None,2,0.171184972015908,419.03345219799667,None,,,,,,,,,,,,,,,,None,None,None,,None,None,419.2519331590156,None,1,1,0.7026519610080868,419.2519331590156,None,419.95021371181065,None,None,None,None,,13,001,2023_Jan_19_1653,searchDisc5,2021.2.3,59.95821499375167,
images/exp2a_trial_58_colour3_distractors4_l.png,l,1,3,4,0,,,,,0,99,99,99,,,,,,,,,,,,,,,,,,,,,,,,,,,,,,,,,,,,,,,,,,,419.96727101600845,None,2,0.27183581300778314,419.96727101600845,None,,,,,,,,,,,,,,,,None,None,None,,None,None,420.28385315899504,None,1,1,0.7719223579915706,420.28385315899504,None,421.04988908382074,None,None,None,None,,13,001,2023_Jan_19_1653,searchDisc5,2021.2.3,59.95821499375167,
images/exp2b_trial_160_colour1_distractors1_r.png,r,3,1,1,0,,,,,0,100,100,100,,,,,,,,,,,,,,,,,,,,,,,,,,,,,,,,,,,,,,,,,,,421.0670374490146,None,2,0.22413076300290413,421.0670374490146,None,,,,,,,,,,,,,,,,None,None,None,,None,None,421.3355449080118,None,3,1,1.5722899370011874,421.3355449080118,None,422.8997984498128,None,None,None,None,,13,001,2023_Jan_19_1653,searchDisc5,2021.2.3,59.95821499375167,
images/exp2a_trial_166_colour2_distractors4_r.png,r,3,2,4,0,,,,,0,101,101,101,,,,,,,,,,,,,,,,,,,,,,,,,,,,,,,,,,,,,,,,,,,422.91919657200924,None,2,0.30292621700209565,422.91919657200924,None,,,,,,,,,,,,,,,,None,None,None,,None,None,423.26915608299896,None,3,1,0.6537557900010142,423.26915608299896,None,423.916680396811,None,None,None,None,,13,001,2023_Jan_19_1653,searchDisc5,2021.2.3,59.95821499375167,
images/exp2b_trial_206_colour3_distractors31_r.png,r,3,3,31,0,,,,,0,102,102,102,,,,,,,,,,,,,,,,,,,,,,,,,,,,,,,,,,,,,,,,,,,423.933075294015,None,2,0.15682638398720883,423.933075294015,None,,,,,,,,,,,,,,,,None,None,None,,None,None,424.1357402240101,None,3,1,0.6858042960229795,424.1357402240101,None,424.8165686898137,None,None,None,None,,13,001,2023_Jan_19_1653,searchDisc5,2021.2.3,59.95821499375167,
images/exp1a_trial_195_colour1_distractors19_r.png,r,3,1,19,0,,,,,0,103,103,103,,,,,,,,,,,,,,,,,,,,,,,,,,,,,,,,,,,,,,,,,,,424.8358509730024,None,2,0.1211678140098229,424.8358509730024,None,,,,,,,,,,,,,,,,None,None,None,,None,None,425.00190246501006,None,3,1,2.4016055099782534,425.00190246501006,None,427.3999439228064,None,None,None,None,,13,001,2023_Jan_19_1653,searchDisc5,2021.2.3,59.95821499375167,
images/exp2a_trial_219_colour3_distractors9_l.png,l,1,3,9,0,,,,,0,104,104,104,,,,,,,,,,,,,,,,,,,,,,,,,,,,,,,,,,,,,,,,,,,427.41690034701605,None,2,0.9227321109792683,427.41690034701605,None,,,,,,,,,,,,,,,,None,None,None,,None,None,428.38357456499944,None,1,1,2.103141228988534,428.38357456499944,None,430.48337148279825,None,None,None,None,,13,001,2023_Jan_19_1653,searchDisc5,2021.2.3,59.95821499375167,
images/exp1a_trial_201_colour2_distractors31_r.png,r,3,2,31,0,,,,,0,105,105,105,,,,,,,,,,,,,,,,,,,,,,,,,,,,,,,,,,,,,,,,,,,430.4989879660134,None,2,0.4553370819776319,430.4989879660134,None,,,,,,,,,,,,,,,,None,None,None,,None,None,431.00008450599853,None,3,1,0.9156974870129488,431.00008450599853,None,431.9162864448008,None,None,None,None,,13,001,2023_Jan_19_1653,searchDisc5,2021.2.3,59.95821499375167,
images/exp1a_trial_128_colour1_distractors1_r.png,r,3,1,1,0,,,,,0,106,106,106,,,,,,,,,,,,,,,,,,,,,,,,,,,,,,,,,,,,,,,,,,,431.93429179201485,None,2,0.8876400220033247,431.93429179201485,None,,,,,,,,,,,,,,,,None,None,None,,None,None,432.86959684299654,None,3,1,0.8405295709962957,432.86959684299654,None,433.70015724281257,None,None,None,None,,13,001,2023_Jan_19_1653,searchDisc5,2021.2.3,59.95821499375167,
images/exp1a_trial_173_colour3_distractors19_r.png,r,3,3,19,0,,,,,0,107,107,107,,,,,,,,,,,,,,,,,,,,,,,,,,,,,,,,,,,,,,,,,,,433.7171888090088,None,2,0.40744259298662655,433.7171888090088,None,,,,,,,,,,,,,,,,None,None,None,,None,None,434.16959149899776,None,3,1,0.5972817830042914,434.16959149899776,None,434.7668029358174,None,None,None,None,,13,001,2023_Jan_19_1653,searchDisc5,2021.2.3,59.95821499375167,
images/exp2c_trial_170_colour3_distractors1_r.png,r,3,3,1,0,,,,,0,108,108,108,,,,,,,,,,,,,,,,,,,,,,,,,,,,,,,,,,,,,,,,,,,434.78555294300895,None,2,0.32076427299762145,434.78555294300895,None,,,,,,,,,,,,,,,,None,None,None,,None,None,435.1530186489981,None,3,1,0.5225908760039601,435.1530186489981,None,435.6667833688116,None,None,None,None,,13,001,2023_Jan_19_1653,searchDisc5,2021.2.3,59.95821499375167,
images/exp1a_trial_53_colour2_distractors4_l.png,l,1,2,4,0,,,,,0,109,109,109,,,,,,,,,,,,,,,,,,,,,,,,,,,,,,,,,,,,,,,,,,,435.6832642930094,None,2,0.2906028419965878,435.6832642930094,None,,,,,,,,,,,,,,,,None,None,None,,None,None,436.01759884500643,None,3,0,0.5195998419949319,436.01759884500643,None,436.5335378098098,None,None,None,None,,13,001,2023_Jan_19_1653,searchDisc5,2021.2.3,59.95821499375167,
images/exp2b_trial_148_colour2_distractors1_l.png,l,1,2,1,0,,,,,0,110,110,110,,,,,,,,,,,,,,,,,,,,,,,,,,,,,,,,,,,,,,,,,,,436.55046096400474,None,2,0.5378822359780315,436.55046096400474,None,,,,,,,,,,,,,,,,None,None,None,,None,None,437.13395062001655,None,1,1,0.5061420449928846,437.13395062001655,None,437.6328971368057,None,None,None,None,,13,001,2023_Jan_19_1653,searchDisc5,2021.2.3,59.95821499375167,
images/exp1a_trial_150_colour2_distractors9_l.png,l,1,2,9,0,,,,,0,111,111,111,,,,,,,,,,,,,,,,,,,,,,,,,,,,,,,,,,,,,,,,,,,437.65074441599427,None,2,0.3907554640027229,437.65074441599427,None,,,,,,,,,,,,,,,,None,None,None,,None,None,438.0857205569919,None,1,1,0.6684082389983814,438.0857205569919,None,438.75025449380337,None,None,None,None,,13,001,2023_Jan_19_1653,searchDisc5,2021.2.3,59.95821499375167,
images/exp1a_trial_90_colour3_distractors4_l.png,l,1,3,4,0,,,,,0,112,112,112,,,,,,,,,,,,,,,,,,,,,,,,,,,,,,,,,,,,,,,,,,,438.76702014601324,None,2,0.27123431299696676,438.76702014601324,None,,,,,,,,,,,,,,,,None,None,None,,None,None,439.0842288210115,None,1,1,1.1738620820106007,439.0842288210115,None,440.2513919838093,None,None,None,None,,13,001,2023_Jan_19_1653,searchDisc5,2021.2.3,59.95821499375167,
images/exp2a_trial_46_colour3_distractors31_r.png,r,3,3,31,0,,,,,0,113,113,113,,,,,,,,,,,,,,,,,,,,,,,,,,,,,,,,,,,,,,,,,,,440.2666720589914,None,2,0.3878101419832092,440.2666720589914,None,,,,,,,,,,,,,,,,None,None,None,,None,None,440.7028826349997,None,3,1,0.8204216059821192,440.7028826349997,None,441.51907438279886,None,None,None,None,,13,001,2023_Jan_19_1653,searchDisc5,2021.2.3,59.95821499375167,
images/exp2b_trial_152_colour2_distractors31_l.png,l,1,2,31,0,,,,,0,114,114,114,,,,,,,,,,,,,,,,,,,,,,,,,,,,,,,,,,,,,,,,,,,441.53537942501134,None,2,0.3710979580064304,441.53537942501134,None,,,,,,,,,,,,,,,,None,None,None,,None,None,441.95259185900795,None,1,1,0.6843582849833183,441.95259185900795,None,442.63372845180857,None,None,None,None,,13,001,2023_Jan_19_1653,searchDisc5,2021.2.3,59.95821499375167,
images/exp2a_trial_149_colour2_distractors4_l.png,l,1,2,4,0,,,,,0,115,115,115,,,,,,,,,,,,,,,,,,,,,,,,,,,,,,,,,,,,,,,,,,,442.6510168189998,None,2,0.32326778999413364,442.6510168189998,None,,,,,,,,,,,,,,,,None,None,None,,None,None,443.017097191012,None,1,1,1.0524380400020164,443.017097191012,None,444.0671277788206,None,None,None,None,,13,001,2023_Jan_19_1653,searchDisc5,2021.2.3,59.95821499375167,
images/exp2b_trial_83_colour1_distractors31_l.png,l,1,1,31,0,,,,,0,116,116,116,,,,,,,,,,,,,,,,,,,,,,,,,,,,,,,,,,,,,,,,,,,444.08423115700134,None,2,0.22230769900488667,444.08423115700134,None,,,,,,,,,,,,,,,,None,None,None,,None,None,444.351064218994,None,1,1,0.6681365150143392,444.351064218994,None,445.0170246047928,None,None,None,None,,13,001,2023_Jan_19_1653,searchDisc5,2021.2.3,59.95821499375167,
images/exp2a_trial_104_colour2_distractors19_r.png,r,3,2,19,0,,,,,0,117,117,117,,,,,,,,,,,,,,,,,,,,,,,,,,,,,,,,,,,,,,,,,,,445.03436935399077,None,2,0.1895910240127705,445.03436935399077,None,,,,,,,,,,,,,,,,None,None,None,,None,None,445.2705302000104,None,3,1,1.0463546579994727,445.2705302000104,None,446.3171320878173,None,None,None,None,,13,001,2023_Jan_19_1653,searchDisc5,2021.2.3,59.95821499375167,
images/exp1a_trial_104_colour2_distractors19_r.png,r,3,2,19,0,,,,,0,118,118,118,,,,,,,,,,,,,,,,,,,,,,,,,,,,,,,,,,,,,,,,,,,446.3340851450048,None,2,0.2539238879980985,446.3340851450048,None,,,,,,,,,,,,,,,,None,None,None,,None,None,446.6358827720105,None,3,1,0.9880531919770874,446.6358827720105,None,447.6172188047931,None,None,None,None,,13,001,2023_Jan_19_1653,searchDisc5,2021.2.3,59.95821499375167,
images/exp2b_trial_290_colour1_distractors9_r.png,r,3,1,9,0,,,,,0,119,119,119,,,,,,,,,,,,,,,,,,,,,,,,,,,,,,,,,,,,,,,,,,,447.6342815720127,None,2,0.2680704170197714,447.6342815720127,None,,,,,,,,,,,,,,,,None,None,None,,None,None,447.9506666380039,None,3,1,2.0229538189887535,447.9506666380039,None,449.96735333079414,None,None,None,None,,13,001,2023_Jan_19_1653,searchDisc5,2021.2.3,59.95821499375167,
images/exp2a_trial_265_colour2_distractors31_r.png,r,3,2,31,0,,,,,0,120,120,120,,,,,,,,,,,,,,,,,,,,,,,,,,,,,,,,,,,,,,,,,,,449.98373448400525,None,2,0.27206707998993807,449.98373448400525,None,,,,,,,,,,,,,,,,None,None,None,,None,None,450.30059199000243,None,3,1,2.461520142998779,450.30059199000243,None,452.76730671680707,None,None,None,None,,13,001,2023_Jan_19_1653,searchDisc5,2021.2.3,59.95821499375167,
images/exp2a_trial_32_colour1_distractors1_r.png,r,3,1,1,0,,,,,0,121,121,121,,,,,,,,,,,,,,,,,,,,,,,,,,,,,,,,,,,,,,,,,,,452.7839571830118,None,2,0.27081296301912516,452.7839571830118,None,,,,,,,,,,,,,,,,None,None,None,,None,None,453.10276011101087,None,3,1,2.525041338027222,453.10276011101087,None,455.6180837738066,None,None,None,None,,13,001,2023_Jan_19_1653,searchDisc5,2021.2.3,59.95821499375167,
images/exp1a_trial_93_colour3_distractors31_l.png,l,1,3,31,0,,,,,0,122,122,122,,,,,,,,,,,,,,,,,,,,,,,,,,,,,,,,,,,,,,,,,,,455.63571871299064,None,2,0.2857298919989262,455.63571871299064,None,,,,,,,,,,,,,,,,None,None,None,,None,None,455.9683368949918,None,1,1,1.2335414219996892,455.9683368949918,None,457.2006566138152,None,None,None,None,,13,001,2023_Jan_19_1653,searchDisc5,2021.2.3,59.95821499375167,
images/exp2c_trial_275_colour1_distractors31_l.png,l,1,1,31,0,,,,,0,123,123,123,,,,,,,,,,,,,,,,,,,,,,,,,,,,,,,,,,,,,,,,,,,457.21718247199897,None,2,0.18917107800371014,457.21718247199897,None,,,,,,,,,,,,,,,,None,None,None,,None,None,457.45293627501815,None,1,1,3.1508245729783084,457.45293627501815,None,460.6000895518082,None,None,None,None,,13,001,2023_Jan_19_1653,searchDisc5,2021.2.3,59.95821499375167,
images/exp2b_trial_73_colour2_distractors31_r.png,r,3,2,31,0,,,,,0,124,124,124,,,,,,,,,,,,,,,,,,,,,,,,,,,,,,,,,,,,,,,,,,,460.61819151599775,None,2,0.3230591080209706,460.61819151599775,None,,,,,,,,,,,,,,,,None,None,None,,None,None,460.9845991219918,None,3,1,1.0854854930075817,460.9845991219918,None,462.06765099479526,None,None,None,None,,13,001,2023_Jan_19_1653,searchDisc5,2021.2.3,59.95821499375167,
images/exp2b_trial_22_colour2_distractors9_l.png,l,1,2,9,0,,,,,0,125,125,125,,,,,,,,,,,,,,,,,,,,,,,,,,,,,,,,,,,,,,,,,,,462.08476068501477,None,2,0.15791974400053732,462.08476068501477,None,,,,,,,,,,,,,,,,None,None,None,,None,None,462.2870821520046,None,1,1,3.135093313991092,462.2870821520046,None,465.4177439588093,None,None,None,None,,13,001,2023_Jan_19_1653,searchDisc5,2021.2.3,59.95821499375167,
images/exp2b_trial_296_colour2_distractors19_r.png,r,3,2,19,0,,,,,0,126,126,126,,,,,,,,,,,,,,,,,,,,,,,,,,,,,,,,,,,,,,,,,,,465.4334302000061,None,2,0.18991412298055366,465.4334302000061,None,,,,,,,,,,,,,,,,None,None,None,,None,None,465.66804988199146,None,3,1,0.7852503329922911,465.66804988199146,None,466.4511549348099,None,None,None,None,,13,001,2023_Jan_19_1653,searchDisc5,2021.2.3,59.95821499375167,
images/exp2b_trial_61_colour3_distractors31_l.png,l,1,3,31,0,,,,,0,127,127,127,,,,,,,,,,,,,,,,,,,,,,,,,,,,,,,,,,,,,,,,,,,466.4685164580005,None,2,0.2209203269740101,466.4685164580005,None,,,,,,,,,,,,,,,,None,None,None,,None,None,466.73729988199193,None,1,1,1.1198005129990634,466.73729988199193,None,467.85102547080896,None,None,None,None,,13,001,2023_Jan_19_1653,searchDisc5,2021.2.3,59.95821499375167,
images/exp1a_trial_168_colour2_distractors19_r.png,r,3,2,19,0,,,,,0,128,128,128,,,,,,,,,,,,,,,,,,,,,,,,,,,,,,,,,,,,,,,,,,,467.86829836299876,None,2,0.20658089299104176,467.86829836299876,None,,,,,,,,,,,,,,,,None,None,None,,None,None,468.1186379280116,None,3,1,0.7709896370070055,468.1186379280116,None,468.8853784827952,None,None,None,None,,13,001,2023_Jan_19_1653,searchDisc5,2021.2.3,59.95821499375167,
images/exp1a_trial_250_colour3_distractors4_l.png,l,1,3,4,0,,,,,0,129,129,129,,,,,,,,,,,,,,,,,,,,,,,,,,,,,,,,,,,,,,,,,,,468.9031039029942,None,2,0.15255428501404822,468.9031039029942,None,,,,,,,,,,,,,,,,None,None,None,,None,None,469.1011029370129,None,1,1,0.7909491400059778,469.1011029370129,None,469.8844761588116,None,None,None,None,,13,001,2023_Jan_19_1653,searchDisc5,2021.2.3,59.95821499375167,
images/exp2b_trial_86_colour2_distractors9_l.png,l,1,2,9,0,,,,,0,130,130,130,,,,,,,,,,,,,,,,,,,,,,,,,,,,,,,,,,,,,,,,,,,469.9008870550024,None,2,0.1688256060006097,469.9008870550024,None,,,,,,,,,,,,,,,,None,None,None,,None,None,470.12084530401626,None,1,1,0.7059122710197698,470.12084530401626,None,470.81775774680136,None,None,None,None,,13,001,2023_Jan_19_1653,searchDisc5,2021.2.3,59.95821499375167,
images/exp2c_trial_254_colour0_distractors0_r.png,r,3,0,0,0,,,,,0,131,131,131,,,,,,,,,,,,,,,,,,,,,,,,,,,,,,,,,,,,,,,,,,,470.83701879600994,None,2,0.07209873700048774,470.83701879600994,None,,,,,,,,,,,,,,,,None,None,None,,None,None,470.9510194619943,None,3,1,0.7402670529845636,470.9510194619943,None,471.68460256081016,None,None,None,None,,13,001,2023_Jan_19_1653,searchDisc5,2021.2.3,59.95821499375167,
images/exp1a_trial_262_colour2_distractors4_r.png,r,3,2,4,0,,,,,0,132,132,132,,,,,,,,,,,,,,,,,,,,,,,,,,,,,,,,,,,,,,,,,,,471.700335024012,None,2,0.18941878399346024,471.700335024012,None,,,,,,,,,,,,,,,,None,None,None,,None,None,471.9366346610186,None,3,1,1.2205078350089025,471.9366346610186,None,473.1512215098046,None,None,None,None,,13,001,2023_Jan_19_1653,searchDisc5,2021.2.3,59.95821499375167,
images/exp2b_trial_210_colour1_distractors19_l.png,l,1,1,19,0,,,,,0,133,133,133,,,,,,,,,,,,,,,,,,,,,,,,,,,,,,,,,,,,,,,,,,,473.1677090699959,None,2,0.20217047902406193,473.1677090699959,None,,,,,,,,,,,,,,,,None,None,None,,None,None,473.42082322601345,None,1,1,1.2399314520007465,473.42082322601345,None,474.6514593098109,None,None,None,None,,13,001,2023_Jan_19_1653,searchDisc5,2021.2.3,59.95821499375167,
images/exp2c_trial_251_colour3_distractors9_l.png,l,1,3,9,0,,,,,0,134,134,134,,,,,,,,,,,,,,,,,,,,,,,,,,,,,,,,,,,,,,,,,,,474.6687050840119,None,2,0.15556641400326043,474.6687050840119,None,,,,,,,,,,,,,,,,None,None,None,,None,None,474.87048531800974,None,1,1,0.7036120510019828,474.87048531800974,None,475.56776450281905,None,None,None,None,,13,001,2023_Jan_19_1653,searchDisc5,2021.2.3,59.95821499375167,
images/exp2a_trial_60_colour3_distractors19_l.png,l,1,3,19,0,,,,,0,135,135,135,,,,,,,,,,,,,,,,,,,,,,,,,,,,,,,,,,,,,,,,,,,475.5872954229999,None,2,0.0870265539851971,475.5872954229999,None,,,,,,,,,,,,,,,,None,None,None,,None,None,475.7189093999914,None,1,1,0.5719840659876354,475.7189093999914,None,476.2847034078004,None,None,None,None,,13,001,2023_Jan_19_1653,searchDisc5,2021.2.3,59.95821499375167,
images/exp2c_trial_91_colour3_distractors9_l.png,l,1,3,9,0,,,,,0,136,136,136,,,,,,,,,,,,,,,,,,,,,,,,,,,,,,,,,,,,,,,,,,,476.30247628100915,None,2,0.08788232400547713,476.30247628100915,None,,,,,,,,,,,,,,,,None,None,None,,None,None,476.43461064400617,None,3,0,1.1544175300223287,476.43461064400617,None,477.58467901880795,None,None,None,None,,13,001,2023_Jan_19_1653,searchDisc5,2021.2.3,59.95821499375167,
images/exp2c_trial_198_colour2_distractors4_r.png,r,3,2,4,0,,,,,0,137,137,137,,,,,,,,,,,,,,,,,,,,,,,,,,,,,,,,,,,,,,,,,,,477.6017210930004,None,2,1.672289184993133,477.6017210930004,None,,,,,,,,,,,,,,,,None,None,None,,None,None,479.3185492499906,None,3,1,0.7048872619925532,479.3185492499906,None,480.0179935108026,None,None,None,None,,13,001,2023_Jan_19_1653,searchDisc5,2021.2.3,59.95821499375167,
images/exp2b_trial_47_colour1_distractors1_l.png,l,1,1,1,0,,,,,0,138,138,138,,,,,,,,,,,,,,,,,,,,,,,,,,,,,,,,,,,,,,,,,,,480.03527417001897,None,2,0.40443708101520315,480.03527417001897,None,,,,,,,,,,,,,,,,None,None,None,,None,None,480.4869416670117,None,1,1,0.8226278100046329,480.4869416670117,None,481.3014663737995,None,None,None,None,,13,001,2023_Jan_19_1653,searchDisc5,2021.2.3,59.95821499375167,
images/exp2c_trial_143_colour1_distractors1_l.png,l,1,1,1,0,,,,,0,139,139,139,,,,,,,,,,,,,,,,,,,,,,,,,,,,,,,,,,,,,,,,,,,481.317949179007,None,2,0.20763325699954294,481.317949179007,None,,,,,,,,,,,,,,,,None,None,None,,None,None,481.5702446009964,None,1,1,0.7534665600105654,481.5702446009964,None,482.3181494058081,None,None,None,None,,13,001,2023_Jan_19_1653,searchDisc5,2021.2.3,59.95821499375167,
images/exp2a_trial_92_colour3_distractors19_l.png,l,1,3,19,0,,,,,0,140,140,140,,,,,,,,,,,,,,,,,,,,,,,,,,,,,,,,,,,,,,,,,,,482.3350786319934,None,2,0.20671973400749266,482.3350786319934,None,,,,,,,,,,,,,,,,None,None,None,,None,None,482.58532496300177,None,1,1,0.5857360300142318,482.58532496300177,None,483.16815604681324,None,None,None,None,,13,001,2023_Jan_19_1653,searchDisc5,2021.2.3,59.95821499375167,
images/exp2a_trial_183_colour2_distractors19_l.png,l,1,2,19,0,,,,,0,141,141,141,,,,,,,,,,,,,,,,,,,,,,,,,,,,,,,,,,,,,,,,,,,483.1846941570111,None,2,0.2564320990059059,483.1846941570111,None,,,,,,,,,,,,,,,,None,None,None,,None,None,483.4842405930103,None,1,1,1.0135086989903357,483.4842405930103,None,484.5015292677999,None,None,None,None,,13,001,2023_Jan_19_1653,searchDisc5,2021.2.3,59.95821499375167,
images/exp2c_trial_6_colour2_distractors4_r.png,r,3,2,4,0,,,,,0,142,142,142,,,,,,,,,,,,,,,,,,,,,,,,,,,,,,,,,,,,,,,,,,,484.51973549401737,None,2,0.2211529390187934,484.51973549401737,None,,,,,,,,,,,,,,,,None,None,None,,None,None,484.78543422499206,None,3,1,0.6549515289952978,484.78543422499206,None,485.4341574868158,None,None,None,None,,13,001,2023_Jan_19_1653,searchDisc5,2021.2.3,59.95821499375167,
images/exp2a_trial_308_colour2_distractors1_l.png,l,1,2,1,0,,,,,0,143,143,143,,,,,,,,,,,,,,,,,,,,,,,,,,,,,,,,,,,,,,,,,,,485.45198053101194,None,2,0.22503817500546575,485.45198053101194,None,,,,,,,,,,,,,,,,None,None,None,,None,None,485.71855141199194,None,1,1,0.9031611669925041,485.71855141199194,None,486.61825218579907,None,None,None,None,,13,001,2023_Jan_19_1653,searchDisc5,2021.2.3,59.95821499375167,
images/exp2a_trial_76_colour3_distractors9_r.png,r,3,3,9,0,,,,,0,144,144,144,,,,,,,,,,,,,,,,,,,,,,,,,,,,,,,,,,,,,,,,,,,486.6347085610032,None,2,0.2547810230171308,486.6347085610032,None,,,,,,,,,,,,,,,,None,None,None,,None,None,486.9348764590104,None,3,1,0.7225369150110055,486.9348764590104,None,487.6518846007966,None,None,None,None,,13,001,2023_Jan_19_1653,searchDisc5,2021.2.3,59.95821499375167,
images/exp2c_trial_162_colour1_distractors9_r.png,r,3,1,9,0,,,,,0,145,145,145,,,,,,,,,,,,,,,,,,,,,,,,,,,,,,,,,,,,,,,,,,,487.6703609410033,None,2,0.2544136520009488,487.6703609410033,None,,,,,,,,,,,,,,,,None,None,None,,None,None,487.96931301400764,None,3,1,0.7193451799976174,487.96931301400764,None,488.6848010658141,None,None,None,None,,13,001,2023_Jan_19_1653,searchDisc5,2021.2.3,59.95821499375167,
images/exp2a_trial_180_colour2_distractors1_l.png,l,1,2,1,0,,,,,0,146,146,146,,,,,,,,,,,,,,,,,,,,,,,,,,,,,,,,,,,,,,,,,,,488.7039139599947,None,2,0.22438757101190276,488.7039139599947,None,,,,,,,,,,,,,,,,None,None,None,,None,None,488.97041858700686,None,1,1,0.9189801589818671,488.97041858700686,None,489.8851126128138,None,None,None,None,,13,001,2023_Jan_19_1653,searchDisc5,2021.2.3,59.95821499375167,
images/exp1a_trial_40_colour2_distractors19_r.png,r,3,2,19,0,,,,,0,147,147,147,,,,,,,,,,,,,,,,,,,,,,,,,,,,,,,,,,,,,,,,,,,489.9022948810016,None,2,0.23917230300139636,489.9022948810016,None,,,,,,,,,,,,,,,,None,None,None,,None,None,490.1881621789944,None,3,1,1.2496485979936551,490.1881621789944,None,491.43456102181517,None,None,None,None,,13,001,2023_Jan_19_1653,searchDisc5,2021.2.3,59.95821499375167,
images/exp1a_trial_117_colour2_distractors4_l.png,l,1,2,4,0,,,,,0,148,148,148,,,,,,,,,,,,,,,,,,,,,,,,,,,,,,,,,,,,,,,,,,,491.4513971300039,None,2,0.19124194301548414,491.4513971300039,None,,,,,,,,,,,,,,,,None,None,None,,None,None,491.687168561999,None,1,1,1.2690902519971132,491.687168561999,None,492.9516895398119,None,None,None,None,,13,001,2023_Jan_19_1653,searchDisc5,2021.2.3,59.95821499375167,
images/exp1a_trial_159_colour0_distractors0_l.png,l,1,0,0,0,,,,,0,149,149,149,,,,,,,,,,,,,,,,,,,,,,,,,,,,,,,,,,,,,,,,,,,492.97090279200347,None,2,0.18876770199858584,492.97090279200347,None,,,,,,,,,,,,,,,,None,None,None,,None,None,493.2023881560017,None,1,1,0.6392178240057547,493.2023881560017,None,493.8352471138205,None,None,None,None,,13,001,2023_Jan_19_1653,searchDisc5,2021.2.3,59.95821499375167,
images/exp2c_trial_199_colour2_distractors9_r.png,r,3,2,9,0,,,,,0,150,150,150,,,,,,,,,,,,,,,,,,,,,,,,,,,,,,,,,,,,,,,,,,,493.852261602995,None,2,0.188744769024197,493.852261602995,None,,,,,,,,,,,,,,,,None,None,None,,None,None,494.08793265299755,None,3,1,0.8540643680025823,494.08793265299755,None,494.9351428278169,None,None,None,None,,13,001,2023_Jan_19_1653,searchDisc5,2021.2.3,59.95821499375167,
images/exp2a_trial_52_colour2_distractors1_l.png,l,1,2,1,0,,,,,0,151,151,151,,,,,,,,,,,,,,,,,,,,,,,,,,,,,,,,,,,,,,,,,,,494.9537215559976,None,2,0.2214814749895595,494.9537215559976,None,,,,,,,,,,,,,,,,None,None,None,,None,None,495.20169180000084,None,1,1,0.6747904710064176,495.20169180000084,None,495.88517503881303,None,None,None,None,,13,001,2023_Jan_19_1653,searchDisc5,2021.2.3,59.95821499375167,
images/exp2a_trial_83_colour1_distractors31_l.png,l,1,1,31,0,,,,,0,152,152,152,,,,,,,,,,,,,,,,,,,,,,,,,,,,,,,,,,,,,,,,,,,495.9037427070143,None,2,0.2546222319942899,495.9037427070143,None,,,,,,,,,,,,,,,,None,None,None,,None,None,496.2017550689925,None,1,1,0.9539392550068442,496.2017550689925,None,497.15188897580083,None,None,None,None,,13,001,2023_Jan_19_1653,searchDisc5,2021.2.3,59.95821499375167,
images/exp2a_trial_81_colour1_distractors9_l.png,l,1,1,9,0,,,,,0,153,153,153,,,,,,,,,,,,,,,,,,,,,,,,,,,,,,,,,,,,,,,,,,,497.16917126299813,None,2,0.2064518420083914,497.16917126299813,None,,,,,,,,,,,,,,,,None,None,None,,None,None,497.4213604879915,None,1,1,0.6201308769814204,497.4213604879915,None,498.0352691568114,None,None,None,None,,13,001,2023_Jan_19_1653,searchDisc5,2021.2.3,59.95821499375167,
images/exp2c_trial_96_colour1_distractors1_r.png,r,3,1,1,0,,,,,0,154,154,154,,,,,,,,,,,,,,,,,,,,,,,,,,,,,,,,,,,,,,,,,,,498.05179150999174,None,2,0.22207054201862775,498.05179150999174,None,,,,,,,,,,,,,,,,None,None,None,,None,None,498.3208853120159,None,3,1,0.7892104409984313,498.3208853120159,None,499.1019993918162,None,None,None,None,,13,001,2023_Jan_19_1653,searchDisc5,2021.2.3,59.95821499375167,
images/exp2c_trial_17_colour1_distractors9_l.png,l,1,1,9,0,,,,,0,155,155,155,,,,,,,,,,,,,,,,,,,,,,,,,,,,,,,,,,,,,,,,,,,499.1183076550078,None,2,0.20626686897594482,499.1183076550078,None,,,,,,,,,,,,,,,,None,None,None,,None,None,499.368585565011,None,1,1,1.4552360130182933,499.368585565011,None,500.8196126957919,None,None,None,None,,13,001,2023_Jan_19_1653,searchDisc5,2021.2.3,59.95821499375167,
images/exp2b_trial_19_colour1_distractors31_l.png,l,1,1,31,0,,,,,0,156,156,156,,,,,,,,,,,,,,,,,,,,,,,,,,,,,,,,,,,,,,,,,,,500.8355292729975,None,2,0.23972713100374676,500.8355292729975,None,,,,,,,,,,,,,,,,None,None,None,,None,None,501.1213429819909,None,1,1,1.167493568995269,501.1213429819909,None,502.2855287418206,None,None,None,None,,13,001,2023_Jan_19_1653,searchDisc5,2021.2.3,59.95821499375167,
images/exp1a_trial_55_colour2_distractors19_l.png,l,1,2,19,0,,,,,0,157,157,157,,,,,,,,,,,,,,,,,,,,,,,,,,,,,,,,,,,,,,,,,,,502.30259229100193,None,2,0.19054409599630162,502.30259229100193,None,,,,,,,,,,,,,,,,None,None,None,,None,None,502.5374762080028,None,1,1,0.5007026320090517,502.5374762080028,None,503.0354118358082,None,None,None,None,,13,001,2023_Jan_19_1653,searchDisc5,2021.2.3,59.95821499375167,
images/exp2a_trial_297_colour2_distractors31_r.png,r,3,2,31,0,,,,,0,158,158,158,,,,,,,,,,,,,,,,,,,,,,,,,,,,,,,,,,,,,,,,,,,503.051904552005,None,2,0.15457430598326027,503.051904552005,None,,,,,,,,,,,,,,,,None,None,None,,None,None,503.2541556910146,None,3,1,0.8458446149888914,503.2541556910146,None,504.10169884380593,None,None,None,None,,13,001,2023_Jan_19_1653,searchDisc5,2021.2.3,59.95821499375167,
images/exp2a_trial_29_colour3_distractors31_l.png,l,1,3,31,0,,,,,0,159,159,159,,,,,,,,,,,,,,,,,,,,,,,,,,,,,,,,,,,,,,,,,,,504.11909401699086,None,2,0.18796962799387984,504.11909401699086,None,,,,,,,,,,,,,,,,None,None,None,,None,None,504.3551752610074,None,3,0,0.6703738719807006,504.3551752610074,None,505.01886073681817,None,None,None,None,,13,001,2023_Jan_19_1653,searchDisc5,2021.2.3,59.95821499375167,
images/exp1a_trial_26_colour3_distractors4_l.png,l,1,3,4,0,,,,,0,160,160,160,,,,,,,,,,,,,,,,,,,,,,,,,,,,,,,,,,,,,,,,,,,505.0345192190143,None,2,0.2883408149937168,505.0345192190143,None,,,,,,,,,,,,,,,,None,None,None,,None,None,505.3688422960113,None,1,1,0.9047556360019371,505.3688422960113,None,506.2688974338089,None,None,None,None,,13,001,2023_Jan_19_1653,searchDisc5,2021.2.3,59.95821499375167,
images/exp2c_trial_190_colour0_distractors0_r.png,r,3,0,0,0,,,,,0,161,161,161,,,,,,,,,,,,,,,,,,,,,,,,,,,,,,,,,,,,,,,,,,,506.2857652239909,None,2,0.7222127169952728,506.2857652239909,None,,,,,,,,,,,,,,,,None,None,None,,None,None,507.05436248201295,None,3,1,0.7732430000032764,507.05436248201295,None,507.8197844867973,None,None,None,None,,13,001,2023_Jan_19_1653,searchDisc5,2021.2.3,59.95821499375167,
images/exp2c_trial_308_colour2_distractors1_l.png,l,1,2,1,0,,,,,0,162,162,162,,,,,,,,,,,,,,,,,,,,,,,,,,,,,,,,,,,,,,,,,,,507.8380601730023,None,2,0.27007176299230196,507.8380601730023,None,,,,,,,,,,,,,,,,None,None,None,,None,None,508.1527363950154,None,1,1,0.8566572389972862,508.1527363950154,None,509.00213936580985,None,None,None,None,,13,001,2023_Jan_19_1653,searchDisc5,2021.2.3,59.95821499375167,
images/exp1a_trial_297_colour2_distractors31_r.png,r,3,2,31,0,,,,,0,163,163,163,,,,,,,,,,,,,,,,,,,,,,,,,,,,,,,,,,,,,,,,,,,509.01879682499566,None,2,0.24250790802761912,509.01879682499566,None,,,,,,,,,,,,,,,,None,None,None,,None,None,509.30618005999713,None,3,1,0.7792574630002491,509.30618005999713,None,510.085582539803,None,None,None,None,,13,001,2023_Jan_19_1653,searchDisc5,2021.2.3,59.95821499375167,
images/exp2b_trial_298_colour3_distractors1_r.png,r,3,3,1,0,,,,,0,164,164,164,,,,,,,,,,,,,,,,,,,,,,,,,,,,,,,,,,,,,,,,,,,510.1020959659945,None,2,0.1389658879779745,510.1020959659945,None,,,,,,,,,,,,,,,,None,None,None,,None,None,510.2863705640193,None,3,1,0.6716432230023202,510.2863705640193,None,510.95225920279336,None,None,None,None,,13,001,2023_Jan_19_1653,searchDisc5,2021.2.3,59.95821499375167,
images/exp1a_trial_148_colour2_distractors1_l.png,l,1,2,1,0,,,,,0,165,165,165,,,,,,,,,,,,,,,,,,,,,,,,,,,,,,,,,,,,,,,,,,,510.96931032600696,None,2,0.1386880179925356,510.96931032600696,None,,,,,,,,,,,,,,,,None,None,None,,None,None,511.15258573400206,None,1,1,0.6409209079865832,511.15258573400206,None,511.786698502794,None,None,None,None,,13,001,2023_Jan_19_1653,searchDisc5,2021.2.3,59.95821499375167,
images/exp2c_trial_121_colour3_distractors1_l.png,l,1,3,1,0,,,,,0,166,166,166,,,,,,,,,,,,,,,,,,,,,,,,,,,,,,,,,,,,,,,,,,,511.80217627401,None,2,0.21897180599626154,511.80217627401,None,,,,,,,,,,,,,,,,None,None,None,,None,None,512.069012138003,None,1,1,0.6767367510183249,512.069012138003,None,512.7386511748045,None,None,None,None,,13,001,2023_Jan_19_1653,searchDisc5,2021.2.3,59.95821499375167,
images/exp1a_trial_292_colour1_distractors31_r.png,r,3,1,31,0,,,,,0,167,167,167,,,,,,,,,,,,,,,,,,,,,,,,,,,,,,,,,,,,,,,,,,,512.7518012280052,None,2,0.18776008501299657,512.7518012280052,None,,,,,,,,,,,,,,,,None,None,None,,None,None,512.9876990019984,None,3,1,1.0479084829858039,512.9876990019984,None,514.0357404268143,None,None,None,None,,13,001,2023_Jan_19_1653,searchDisc5,2021.2.3,59.95821499375167,
images/exp2c_trial_71_colour2_distractors9_r.png,r,3,2,9,0,,,,,0,168,168,168,,,,,,,,,,,,,,,,,,,,,,,,,,,,,,,,,,,,,,,,,,,514.051652574999,None,2,0.17248625599313527,514.051652574999,None,,,,,,,,,,,,,,,,None,None,None,,None,None,514.2711354969942,None,3,1,0.7518793689960148,514.2711354969942,None,515.0189375008194,None,None,None,None,,13,001,2023_Jan_19_1653,searchDisc5,2021.2.3,59.95821499375167,
images/exp1a_trial_23_colour2_distractors19_l.png,l,1,2,19,0,,,,,0,169,169,169,,,,,,,,,,,,,,,,,,,,,,,,,,,,,,,,,,,,,,,,,,,515.0364303230017,None,2,0.1543919050018303,515.0364303230017,None,,,,,,,,,,,,,,,,None,None,None,,None,None,515.2377563960035,None,1,1,0.9842646589968354,515.2377563960035,None,516.219072281805,None,None,None,None,,13,001,2023_Jan_19_1653,searchDisc5,2021.2.3,59.95821499375167,
images/exp2a_trial_280_colour2_distractors31_l.png,l,1,2,31,0,,,,,0,170,170,170,,,,,,,,,,,,,,,,,,,,,,,,,,,,,,,,,,,,,,,,,,,516.2355221710168,None,2,0.18794091799645685,516.2355221710168,None,,,,,,,,,,,,,,,,None,None,None,,None,None,516.4731849349919,None,1,1,1.8955684939865023,516.4731849349919,None,518.3687303968036,None,None,None,None,,13,001,2023_Jan_19_1653,searchDisc5,2021.2.3,59.95821499375167,
images/exp2a_trial_241_colour1_distractors9_l.png,l,1,1,9,0,,,,,0,171,171,171,,,,,,,,,,,,,,,,,,,,,,,,,,,,,,,,,,,,,,,,,,,518.3860491889936,None,2,0.7548702330095693,518.3860491889936,None,,,,,,,,,,,,,,,,None,None,None,,None,None,519.1868358940119,None,1,1,0.7572735969733912,519.1868358940119,None,519.9358404787927,None,None,None,None,,13,001,2023_Jan_19_1653,searchDisc5,2021.2.3,59.95821499375167,
images/exp2a_trial_117_colour2_distractors4_l.png,l,1,2,4,0,,,,,0,172,172,172,,,,,,,,,,,,,,,,,,,,,,,,,,,,,,,,,,,,,,,,,,,519.9519978220051,None,2,0.586466530978214,519.9519978220051,None,,,,,,,,,,,,,,,,None,None,None,,None,None,520.5858788150072,None,1,1,0.6535988479736261,520.5858788150072,None,521.2357766768109,None,None,None,None,,13,001,2023_Jan_19_1653,searchDisc5,2021.2.3,59.95821499375167,
images/exp2a_trial_106_colour3_distractors1_r.png,r,3,3,1,0,,,,,0,173,173,173,,,,,,,,,,,,,,,,,,,,,,,,,,,,,,,,,,,,,,,,,,,521.2514852620079,None,2,1.038467798003694,521.2514852620079,None,,,,,,,,,,,,,,,,None,None,None,,None,None,522.3366754050076,None,3,1,0.7555428630148526,522.3366754050076,None,523.0858919968159,None,None,None,None,,13,001,2023_Jan_19_1653,searchDisc5,2021.2.3,59.95821499375167,
images/exp1a_trial_170_colour3_distractors1_r.png,r,3,3,1,0,,,,,0,174,174,174,,,,,,,,,,,,,,,,,,,,,,,,,,,,,,,,,,,,,,,,,,,523.1023936769925,None,2,0.5223387650039513,523.1023936769925,None,,,,,,,,,,,,,,,,None,None,None,,None,None,523.6692995740159,None,3,1,0.6555778299807571,523.6692995740159,None,524.3193332388037,None,None,None,None,,13,001,2023_Jan_19_1653,searchDisc5,2021.2.3,59.95821499375167,
images/exp2b_trial_7_colour2_distractors9_r.png,r,3,2,9,0,,,,,0,175,175,175,,,,,,,,,,,,,,,,,,,,,,,,,,,,,,,,,,,,,,,,,,,524.3358375070093,None,2,0.48789533198578283,524.3358375070093,None,,,,,,,,,,,,,,,,None,None,None,,None,None,524.8716499260045,None,3,1,0.6719387689954601,524.8716499260045,None,525.5361145568168,None,None,None,None,,13,001,2023_Jan_19_1653,searchDisc5,2021.2.3,59.95821499375167,
images/exp2c_trial_303_colour1_distractors1_l.png,l,1,1,1,0,,,,,0,176,176,176,,,,,,,,,,,,,,,,,,,,,,,,,,,,,,,,,,,,,,,,,,,525.552480081009,None,2,0.5871537259954493,525.552480081009,None,,,,,,,,,,,,,,,,None,None,None,,None,None,526.1868705170054,None,1,1,0.7581272609822918,526.1868705170054,None,526.9377878368105,None,None,None,None,,13,001,2023_Jan_19_1653,searchDisc5,2021.2.3,59.95821499375167,
images/exp2b_trial_80_colour1_distractors4_l.png,l,1,1,4,0,,,,,0,177,177,177,,,,,,,,,,,,,,,,,,,,,,,,,,,,,,,,,,,,,,,,,,,526.9547382589953,None,2,0.48627303598914295,526.9547382589953,None,,,,,,,,,,,,,,,,None,None,None,,None,None,527.4870744380169,None,1,1,0.6731231180019677,527.4870744380169,None,528.1528916638199,None,None,None,None,,13,001,2023_Jan_19_1653,searchDisc5,2021.2.3,59.95821499375167,
images/exp2c_trial_30_colour0_distractors0_r.png,r,3,0,0,0,,,,,0,178,178,178,,,,,,,,,,,,,,,,,,,,,,,,,,,,,,,,,,,,,,,,,,,528.1688370470074,None,2,0.45539905500481836,528.1688370470074,None,,,,,,,,,,,,,,,,None,None,None,,None,None,528.6689433150168,None,3,1,0.8054288540151902,528.6689433150168,None,529.469518482816,None,None,None,None,,13,001,2023_Jan_19_1653,searchDisc5,2021.2.3,59.95821499375167,
images/exp2c_trial_50_colour1_distractors19_l.png,l,1,1,19,0,,,,,0,179,179,179,,,,,,,,,,,,,,,,,,,,,,,,,,,,,,,,,,,,,,,,,,,529.4858629530063,None,2,0.45452123499126174,529.4858629530063,None,,,,,,,,,,,,,,,,None,None,None,,None,None,529.9883564999909,None,1,1,0.9542122749844566,529.9883564999909,None,530.9373197587993,None,None,None,None,,13,001,2023_Jan_19_1653,searchDisc5,2021.2.3,59.95821499375167,
images/exp2a_trial_150_colour2_distractors9_l.png,l,1,2,9,0,,,,,0,180,180,180,,,,,,,,,,,,,,,,,,,,,,,,,,,,,,,,,,,,,,,,,,,530.9537312719913,None,2,0.4552480579877738,530.9537312719913,None,,,,,,,,,,,,,,,,None,None,None,,None,None,531.4528894940158,None,1,1,0.7006501550204121,531.4528894940158,None,532.1529839288123,None,None,None,None,,13,001,2023_Jan_19_1653,searchDisc5,2021.2.3,59.95821499375167,
images/exp2a_trial_134_colour2_distractors4_r.png,r,3,2,4,0,,,,,0,181,181,181,,,,,,,,,,,,,,,,,,,,,,,,,,,,,,,,,,,,,,,,,,,532.1691645440005,None,2,0.42142654297640547,532.1691645440005,None,,,,,,,,,,,,,,,,None,None,None,,None,None,532.6388346610183,None,3,1,0.5868500409997068,532.6388346610183,None,533.219643467819,None,None,None,None,,13,001,2023_Jan_19_1653,searchDisc5,2021.2.3,59.95821499375167,
images/exp2a_trial_161_colour1_distractors4_r.png,r,3,1,4,0,,,,,0,182,182,182,,,,,,,,,,,,,,,,,,,,,,,,,,,,,,,,,,,,,,,,,,,533.2359829670168,None,2,0.42195592599455267,533.2359829670168,None,,,,,,,,,,,,,,,,None,None,None,,None,None,533.7031484180188,None,3,1,0.6216961010068189,533.7031484180188,None,534.3195945907937,None,None,None,None,,13,001,2023_Jan_19_1653,searchDisc5,2021.2.3,59.95821499375167,
images/exp1a_trial_105_colour2_distractors31_r.png,r,3,2,31,0,,,,,0,183,183,183,,,,,,,,,,,,,,,,,,,,,,,,,,,,,,,,,,,,,,,,,,,534.338142269,None,2,0.4212139759911224,534.338142269,None,,,,,,,,,,,,,,,,None,None,None,,None,None,534.8032163089956,None,3,1,0.583862608007621,534.8032163089956,None,535.3862008667929,None,None,None,None,,13,001,2023_Jan_19_1653,searchDisc5,2021.2.3,59.95821499375167,
images/exp2b_trial_157_colour3_distractors31_l.png,l,1,3,31,0,,,,,0,184,184,184,,,,,,,,,,,,,,,,,,,,,,,,,,,,,,,,,,,,,,,,,,,535.4035683319962,None,2,0.32105900498572737,535.4035683319962,None,,,,,,,,,,,,,,,,None,None,None,,None,None,535.7706291649956,None,1,1,0.738151829020353,535.7706291649956,None,536.503999576802,None,None,None,None,,13,001,2023_Jan_19_1653,searchDisc5,2021.2.3,59.95821499375167,
images/exp2a_trial_156_colour3_distractors19_l.png,l,1,3,19,0,,,,,0,185,185,185,,,,,,,,,,,,,,,,,,,,,,,,,,,,,,,,,,,,,,,,,,,536.5198124689923,None,2,0.3369497489766218,536.5198124689923,None,,,,,,,,,,,,,,,,None,None,None,,None,None,536.9041663040116,None,1,1,0.48932796000735834,536.9041663040116,None,537.3874586378079,None,None,None,None,,13,001,2023_Jan_19_1653,searchDisc5,2021.2.3,59.95821499375167,
images/exp2c_trial_156_colour3_distractors19_l.png,l,1,3,19,0,,,,,0,186,186,186,,,,,,,,,,,,,,,,,,,,,,,,,,,,,,,,,,,,,,,,,,,537.4056367180019,None,2,0.35554440901614726,537.4056367180019,None,,,,,,,,,,,,,,,,None,None,None,,None,None,537.8051399920078,None,1,1,0.552515183982905,537.8051399920078,None,538.3530888698151,None,None,None,None,,13,001,2023_Jan_19_1653,searchDisc5,2021.2.3,59.95821499375167,
images/exp2a_trial_282_colour3_distractors4_l.png,l,1,3,4,0,,,,,0,187,187,187,,,,,,,,,,,,,,,,,,,,,,,,,,,,,,,,,,,,,,,,,,,538.3695199000067,None,2,0.3220066509966273,538.3695199000067,None,,,,,,,,,,,,,,,,None,None,None,,None,None,538.7367637499992,None,1,1,0.42133803601609543,538.7367637499992,None,539.153105389807,None,None,None,None,,13,001,2023_Jan_19_1653,searchDisc5,2021.2.3,59.95821499375167,
images/exp2a_trial_20_colour2_distractors1_l.png,l,1,2,1,0,,,,,0,188,188,188,,,,,,,,,,,,,,,,,,,,,,,,,,,,,,,,,,,,,,,,,,,539.1695389350061,None,2,0.39000106501043774,539.1695389350061,None,,,,,,,,,,,,,,,,None,None,None,,None,None,539.6056629570085,None,1,1,0.47315017000073567,539.6056629570085,None,540.0697887478018,None,None,None,None,,13,001,2023_Jan_19_1653,searchDisc5,2021.2.3,59.95821499375167,
images/exp2b_trial_39_colour2_distractors9_r.png,r,3,2,9,0,,,,,0,189,189,189,,,,,,,,,,,,,,,,,,,,,,,,,,,,,,,,,,,,,,,,,,,540.0863460160035,None,2,0.3022755919955671,540.0863460160035,None,,,,,,,,,,,,,,,,None,None,None,,None,None,540.4363537600148,None,3,1,0.8060635729925707,540.4363537600148,None,541.2375437728042,None,None,None,None,,13,001,2023_Jan_19_1653,searchDisc5,2021.2.3,59.95821499375167,
images/exp2b_trial_159_colour0_distractors0_l.png,l,1,0,0,0,,,,,0,190,190,190,,,,,,,,,,,,,,,,,,,,,,,,,,,,,,,,,,,,,,,,,,,541.2530216750165,None,2,0.337745917000575,541.2530216750165,None,,,,,,,,,,,,,,,,None,None,None,,None,None,541.6362149920024,None,3,0,0.5226573019754142,541.6362149920024,None,542.1530466888071,None,None,None,None,,13,001,2023_Jan_19_1653,searchDisc5,2021.2.3,59.95821499375167,
images/exp2a_trial_169_colour2_distractors31_r.png,r,3,2,31,0,,,,,0,191,191,191,,,,,,,,,,,,,,,,,,,,,,,,,,,,,,,,,,,,,,,,,,,542.1696019789961,None,2,0.28817138401791453,542.1696019789961,None,,,,,,,,,,,,,,,,None,None,None,,None,None,542.5031948460091,None,3,1,2.1146306630107574,542.5031948460091,None,544.6198726948205,None,None,None,None,,13,001,2023_Jan_19_1653,searchDisc5,2021.2.3,59.95821499375167,
images/exp1a_trial_164_colour1_distractors31_r.png,r,3,1,31,0,,,,,0,192,192,192,,,,,,,,,,,,,,,,,,,,,,,,,,,,,,,,,,,,,,,,,,,544.6364897009917,None,2,0.2878091689781286,544.6364897009917,None,,,,,,,,,,,,,,,,None,None,None,,None,None,544.9699693790171,None,1,0,0.7508242249896284,544.9699693790171,None,545.7210194928193,None,None,None,None,,13,001,2023_Jan_19_1653,searchDisc5,2021.2.3,59.95821499375167,
images/exp1a_trial_277_colour2_distractors4_l.png,l,1,2,4,0,,,,,0,193,193,193,,,,,,,,,,,,,,,,,,,,,,,,,,,,,,,,,,,,,,,,,,,545.7363211360062,None,2,0.30772769800387323,545.7363211360062,None,,,,,,,,,,,,,,,,None,None,None,,None,None,546.086661119014,None,1,1,0.8193517189938575,546.086661119014,None,546.9044206997933,None,None,None,None,,13,001,2023_Jan_19_1653,searchDisc5,2021.2.3,59.95821499375167,
images/exp2c_trial_10_colour3_distractors1_r.png,r,3,3,1,0,,,,,0,194,194,194,,,,,,,,,,,,,,,,,,,,,,,,,,,,,,,,,,,,,,,,,,,546.9208590990165,None,2,0.3857251259905752,546.9208590990165,None,,,,,,,,,,,,,,,,None,None,None,,None,None,547.356530413992,None,1,0,0.6738971720042173,547.356530413992,None,548.0200750017975,None,None,None,None,,13,001,2023_Jan_19_1653,searchDisc5,2021.2.3,59.95821499375167,
images/exp2b_trial_275_colour1_distractors31_l.png,l,1,1,31,0,,,,,0,195,195,195,,,,,,,,,,,,,,,,,,,,,,,,,,,,,,,,,,,,,,,,,,,548.0365051710105,None,2,0.255320724012563,548.0365051710105,None,,,,,,,,,,,,,,,,None,None,None,,None,None,548.3360600360029,None,1,1,0.6187679849972483,548.3360600360029,None,548.9532922738144,None,None,None,None,,13,001,2023_Jan_19_1653,searchDisc5,2021.2.3,59.95821499375167,
images/exp2c_trial_21_colour2_distractors4_l.png,l,1,2,4,0,,,,,0,196,196,196,,,,,,,,,,,,,,,,,,,,,,,,,,,,,,,,,,,,,,,,,,,548.9697804099997,None,2,0.27241942202090286,548.9697804099997,None,,,,,,,,,,,,,,,,None,None,None,,None,None,549.2874206409906,None,1,1,0.47077089099911973,549.2874206409906,None,549.7533686178067,None,None,None,None,,13,001,2023_Jan_19_1653,searchDisc5,2021.2.3,59.95821499375167,
images/exp2b_trial_207_colour1_distractors1_l.png,l,1,1,1,0,,,,,0,197,197,197,,,,,,,,,,,,,,,,,,,,,,,,,,,,,,,,,,,,,,,,,,,549.7706110360159,None,2,0.2887591010075994,549.7706110360159,None,,,,,,,,,,,,,,,,None,None,None,,None,None,550.1045717209927,None,1,1,0.4233340749924537,550.1045717209927,None,550.5208163958014,None,None,None,None,,13,001,2023_Jan_19_1653,searchDisc5,2021.2.3,59.95821499375167,
images/exp2a_trial_6_colour2_distractors4_r.png,r,3,2,4,0,,,,,0,198,198,198,,,,,,,,,,,,,,,,,,,,,,,,,,,,,,,,,,,,,,,,,,,550.5368132700096,None,2,0.2871775969979353,550.5368132700096,None,,,,,,,,,,,,,,,,None,None,None,,None,None,550.8711530209985,None,1,0,0.32453559298301116,550.8711530209985,None,551.1878482657921,None,None,None,None,,13,001,2023_Jan_19_1653,searchDisc5,2021.2.3,59.95821499375167,
images/exp2b_trial_149_colour2_distractors4_l.png,l,1,2,4,0,,,,,0,199,199,199,,,,,,,,,,,,,,,,,,,,,,,,,,,,,,,,,,,,,,,,,,,551.2060700010043,None,2,0.6873812349804211,551.2060700010043,None,,,,,,,,,,,,,,,,None,None,None,,None,None,551.9397739880078,None,1,1,0.6862645299988799,551.9397739880078,None,552.6201194618043,None,None,None,None,,13,001,2023_Jan_19_1653,searchDisc5,2021.2.3,59.95821499375167,
images/exp1a_trial_186_colour3_distractors4_l.png,l,1,3,4,0,,,,,0,200,200,200,,,,,,,,,,,,,,,,,,,,,,,,,,,,,,,,,,,,,,,,,,,552.6385796990071,None,2,0.3745520350057632,552.6385796990071,None,,,,,,,,,,,,,,,,None,None,None,,None,None,553.0556057700014,None,1,1,0.5019846250070259,553.0556057700014,None,553.55380692381,None,None,None,None,,13,001,2023_Jan_19_1653,searchDisc5,2021.2.3,59.95821499375167,
images/exp2c_trial_49_colour1_distractors9_l.png,l,1,1,9,0,,,,,0,201,201,201,,,,,,,,,,,,,,,,,,,,,,,,,,,,,,,,,,,,,,,,,,,553.5708645440172,None,2,0.3542454869893845,553.5708645440172,None,,,,,,,,,,,,,,,,None,None,None,,None,None,553.9719967819983,None,1,1,0.5891783060214948,553.9719967819983,None,554.5535571678047,None,None,None,None,,13,001,2023_Jan_19_1653,searchDisc5,2021.2.3,59.95821499375167,
images/exp2b_trial_299_colour3_distractors4_r.png,r,3,3,4,0,,,,,0,202,202,202,,,,,,,,,,,,,,,,,,,,,,,,,,,,,,,,,,,,,,,,,,,554.5699722010177,None,2,0.3233747069898527,554.5699722010177,None,,,,,,,,,,,,,,,,None,None,None,,None,None,554.9375077710138,None,3,1,0.6864258619898465,554.9375077710138,None,555.6200692498096,None,None,None,None,,13,001,2023_Jan_19_1653,searchDisc5,2021.2.3,59.95821499375167,
images/exp2c_trial_5_colour2_distractors1_r.png,r,3,2,1,0,,,,,0,203,203,203,,,,,,,,,,,,,,,,,,,,,,,,,,,,,,,,,,,,,,,,,,,555.6366891229991,None,2,0.2564375300134998,555.6366891229991,None,,,,,,,,,,,,,,,,None,None,None,,None,None,555.9398935429926,None,3,1,0.5872767219843809,555.9398935429926,None,556.5201695628202,None,None,None,None,,13,001,2023_Jan_19_1653,searchDisc5,2021.2.3,59.95821499375167,
images/exp2c_trial_276_colour2_distractors1_l.png,l,1,2,1,0,,,,,0,204,204,204,,,,,,,,,,,,,,,,,,,,,,,,,,,,,,,,,,,,,,,,,,,556.5372449739953,None,2,0.2878566849976778,556.5372449739953,None,,,,,,,,,,,,,,,,None,None,None,,None,None,556.8712053589988,None,1,1,0.6914858379750513,556.8712053589988,None,557.5547003958054,None,None,None,None,,13,001,2023_Jan_19_1653,searchDisc5,2021.2.3,59.95821499375167,
images/exp1a_trial_161_colour1_distractors4_r.png,r,3,1,4,0,,,,,0,205,205,205,,,,,,,,,,,,,,,,,,,,,,,,,,,,,,,,,,,,,,,,,,,557.5707810969907,None,2,0.30250773500301875,557.5707810969907,None,,,,,,,,,,,,,,,,None,None,None,,None,None,557.9203188990068,None,3,1,0.7246658889926039,557.9203188990068,None,558.6369552638062,None,None,None,None,,13,001,2023_Jan_19_1653,searchDisc5,2021.2.3,59.95821499375167,
images/exp2c_trial_13_colour3_distractors19_r.png,r,3,3,19,0,,,,,0,206,206,206,,,,,,,,,,,,,,,,,,,,,,,,,,,,,,,,,,,,,,,,,,,558.6557480620104,None,2,0.3878353390027769,558.6557480620104,None,,,,,,,,,,,,,,,,None,None,None,,None,None,559.0880136839987,None,3,1,0.8531664139882196,559.0880136839987,None,559.936944018802,None,None,None,None,,13,001,2023_Jan_19_1653,searchDisc5,2021.2.3,59.95821499375167,
images/exp2c_trial_286_colour0_distractors0_r.png,r,3,0,0,0,,,,,0,207,207,207,,,,,,,,,,,,,,,,,,,,,,,,,,,,,,,,,,,,,,,,,,,559.9554158130195,None,2,0.3221758650033735,559.9554158130195,None,,,,,,,,,,,,,,,,None,None,None,,None,None,560.321732181008,None,3,1,0.4867506599985063,560.321732181008,None,560.8036572958081,None,None,None,None,,13,001,2023_Jan_19_1653,searchDisc5,2021.2.3,59.95821499375167,
images/exp2a_trial_48_colour1_distractors4_l.png,l,1,1,4,0,,,,,0,208,208,208,,,,,,,,,,,,,,,,,,,,,,,,,,,,,,,,,,,,,,,,,,,560.8209227060142,None,2,0.25526809398434125,560.8209227060142,None,,,,,,,,,,,,,,,,None,None,None,,None,None,561.1211129270087,None,1,1,0.5049207599950023,561.1211129270087,None,561.620069010809,None,None,None,None,,13,001,2023_Jan_19_1653,searchDisc5,2021.2.3,59.95821499375167,
images/exp2c_trial_242_colour1_distractors19_l.png,l,1,1,19,0,,,,,0,209,209,209,,,,,,,,,,,,,,,,,,,,,,,,,,,,,,,,,,,,,,,,,,,561.6368397370097,None,2,0.2754334599885624,561.6368397370097,None,,,,,,,,,,,,,,,,None,None,None,,None,None,561.9545769249962,None,1,1,0.9335802650020923,561.9545769249962,None,562.8870565657999,None,None,None,None,,13,001,2023_Jan_19_1653,searchDisc5,2021.2.3,59.95821499375167,
images/exp2b_trial_318_colour0_distractors0_r.png,r,3,0,0,0,,,,,0,210,210,210,,,,,,,,,,,,,,,,,,,,,,,,,,,,,,,,,,,,,,,,,,,562.9035129370168,None,2,0.30521647399291396,562.9035129370168,None,,,,,,,,,,,,,,,,None,None,None,,None,None,563.2538122599944,None,3,1,0.6892892190080602,563.2538122599944,None,563.9371814378101,None,None,None,None,,13,001,2023_Jan_19_1653,searchDisc5,2021.2.3,59.95821499375167,
images/exp1a_trial_236_colour3_distractors9_r.png,r,3,3,9,0,,,,,0,211,211,211,,,,,,,,,,,,,,,,,,,,,,,,,,,,,,,,,,,,,,,,,,,563.954089959996,None,2,0.3053648390050512,563.954089959996,None,,,,,,,,,,,,,,,,None,None,None,,None,None,564.3037889680127,None,3,1,0.6369345080165658,564.3037889680127,None,564.9370069677971,None,None,None,None,,13,001,2023_Jan_19_1653,searchDisc5,2021.2.3,59.95821499375167,
images/exp2a_trial_267_colour3_distractors4_r.png,r,3,3,4,0,,,,,0,212,212,212,,,,,,,,,,,,,,,,,,,,,,,,,,,,,,,,,,,,,,,,,,,564.9556059240131,None,2,0.5880246339947917,564.9556059240131,None,,,,,,,,,,,,,,,,None,None,None,,None,None,565.5878550030175,None,3,1,0.5251478829886764,565.5878550030175,None,566.10492568482,None,None,None,None,,13,001,2023_Jan_19_1653,searchDisc5,2021.2.3,59.95821499375167,
images/exp2c_trial_222_colour0_distractors0_r.png,r,3,0,0,0,,,,,0,213,213,213,,,,,,,,,,,,,,,,,,,,,,,,,,,,,,,,,,,,,,,,,,,566.1209975010133,None,2,0.2687011870148126,566.1209975010133,None,,,,,,,,,,,,,,,,None,None,None,,None,None,566.4375064650085,None,3,1,0.5891842420096509,566.4375064650085,None,567.0206601948157,None,None,None,None,,13,001,2023_Jan_19_1653,searchDisc5,2021.2.3,59.95821499375167,
images/exp2a_trial_137_colour2_distractors31_r.png,r,3,2,31,0,,,,,0,214,214,214,,,,,,,,,,,,,,,,,,,,,,,,,,,,,,,,,,,,,,,,,,,567.0369805230002,None,2,0.25684843299677595,567.0369805230002,None,,,,,,,,,,,,,,,,None,None,None,,None,None,567.3370904750191,None,3,1,1.2780920090153813,567.3370904750191,None,568.6201552298007,None,None,None,None,,13,001,2023_Jan_19_1653,searchDisc5,2021.2.3,59.95821499375167,
images/exp2b_trial_268_colour3_distractors9_r.png,r,3,3,9,0,,,,,0,215,215,215,,,,,,,,,,,,,,,,,,,,,,,,,,,,,,,,,,,,,,,,,,,568.6393999090069,None,2,0.23914590899948962,568.6393999090069,None,,,,,,,,,,,,,,,,None,None,None,,None,None,568.9206066449988,None,3,1,0.8069646369840484,568.9206066449988,None,569.7231976408075,None,None,None,None,,13,001,2023_Jan_19_1653,searchDisc5,2021.2.3,59.95821499375167,
images/exp2c_trial_159_colour0_distractors0_l.png,l,1,0,0,0,,,,,0,216,216,216,,,,,,,,,,,,,,,,,,,,,,,,,,,,,,,,,,,,,,,,,,,569.7392446449958,None,2,0.20161149199702777,569.7392446449958,None,,,,,,,,,,,,,,,,None,None,None,,None,None,569.9893142520159,None,1,1,0.6757580940029584,569.9893142520159,None,570.6540875827923,None,None,None,None,,13,001,2023_Jan_19_1653,searchDisc5,2021.2.3,59.95821499375167,
images/exp2b_trial_289_colour1_distractors4_r.png,r,3,1,4,0,,,,,0,217,217,217,,,,,,,,,,,,,,,,,,,,,,,,,,,,,,,,,,,,,,,,,,,570.6701056009915,None,2,0.2360871099808719,570.6701056009915,None,,,,,,,,,,,,,,,,None,None,None,,None,None,570.9550353020022,None,3,1,1.0727721299917903,570.9550353020022,None,572.0207378917985,None,None,None,None,,13,001,2023_Jan_19_1653,searchDisc5,2021.2.3,59.95821499375167,
images/exp1a_trial_100_colour1_distractors31_r.png,r,3,1,31,0,,,,,0,218,218,218,,,,,,,,,,,,,,,,,,,,,,,,,,,,,,,,,,,,,,,,,,,572.0378778339946,None,2,0.9042429180117324,572.0378778339946,None,,,,,,,,,,,,,,,,None,None,None,,None,None,572.989396844001,None,3,1,2.917741631012177,572.989396844001,None,575.9041541378101,None,None,None,None,,13,001,2023_Jan_19_1653,searchDisc5,2021.2.3,59.95821499375167,
images/exp1a_trial_126_colour0_distractors0_r.png,r,3,0,0,0,,,,,0,219,219,219,,,,,,,,,,,,,,,,,,,,,,,,,,,,,,,,,,,,,,,,,,,575.9216819989961,None,2,0.43813429298461415,575.9216819989961,None,,,,,,,,,,,,,,,,None,None,None,,None,None,576.4046582129959,None,3,1,0.6383073779870756,576.4046582129959,None,577.0368804438185,None,None,None,None,,13,001,2023_Jan_19_1653,searchDisc5,2021.2.3,59.95821499375167,
images/exp2c_trial_182_colour2_distractors9_l.png,l,1,2,9,0,,,,,0,220,220,220,,,,,,,,,,,,,,,,,,,,,,,,,,,,,,,,,,,,,,,,,,,577.0539018250129,None,2,0.3394541529996786,577.0539018250129,None,,,,,,,,,,,,,,,,None,None,None,,None,None,577.4400172280148,None,1,1,0.7712208380107768,577.4400172280148,None,578.2041415638087,None,None,None,None,,13,001,2023_Jan_19_1653,searchDisc5,2021.2.3,59.95821499375167,
images/exp2a_trial_294_colour2_distractors4_r.png,r,3,2,4,0,,,,,0,221,221,221,,,,,,,,,,,,,,,,,,,,,,,,,,,,,,,,,,,,,,,,,,,578.2234820960148,None,2,0.27200356300454587,578.2234820960148,None,,,,,,,,,,,,,,,,None,None,None,,None,None,578.5370930700155,None,3,1,1.2194648699951358,578.5370930700155,None,579.7542262867937,None,None,None,None,,13,001,2023_Jan_19_1653,searchDisc5,2021.2.3,59.95821499375167,
images/exp1a_trial_261_colour2_distractors1_r.png,r,3,2,1,0,,,,,0,222,222,222,,,,,,,,,,,,,,,,,,,,,,,,,,,,,,,,,,,,,,,,,,,579.7706829810049,None,2,0.2544169150060043,579.7706829810049,None,,,,,,,,,,,,,,,,None,None,None,,None,None,580.0712166280136,None,3,1,0.5391569109924603,580.0712166280136,None,580.6042401548038,None,None,None,None,,13,001,2023_Jan_19_1653,searchDisc5,2021.2.3,59.95821499375167,
images/exp1a_trial_196_colour1_distractors31_r.png,r,3,1,31,0,,,,,0,223,223,223,,,,,,,,,,,,,,,,,,,,,,,,,,,,,,,,,,,,,,,,,,,580.6207040680165,None,2,0.18839534200378694,580.6207040680165,None,,,,,,,,,,,,,,,,None,None,None,,None,None,580.8534849260177,None,3,1,1.3011409729951993,580.8534849260177,None,582.1552343758085,None,None,None,None,,13,001,2023_Jan_19_1653,searchDisc5,2021.2.3,59.95821499375167,
images/exp2a_trial_70_colour2_distractors4_r.png,r,3,2,4,0,,,,,0,224,224,224,,,,,,,,,,,,,,,,,,,,,,,,,,,,,,,,,,,,,,,,,,,582.1700047909981,None,2,0.1703919510182459,582.1700047909981,None,,,,,,,,,,,,,,,,None,None,None,,None,None,582.3900302340044,None,3,1,0.5722866680007428,582.3900302340044,None,582.9543491708027,None,None,None,None,,13,001,2023_Jan_19_1653,searchDisc5,2021.2.3,59.95821499375167,
images/exp2b_trial_200_colour2_distractors19_r.png,r,3,2,19,0,,,,,0,225,225,225,,,,,,,,,,,,,,,,,,,,,,,,,,,,,,,,,,,,,,,,,,,582.9707526999991,None,2,0.17012268499820493,582.9707526999991,None,,,,,,,,,,,,,,,,None,None,None,,None,None,583.1896921140142,None,3,1,0.5527518309827428,583.1896921140142,None,583.7376354347944,None,None,None,None,,13,001,2023_Jan_19_1653,searchDisc5,2021.2.3,59.95821499375167,
