ImageFile,targ_side,correctAnswer,colour,distNo,targetType,trials_2.thisRepN,trials_2.thisTrialN,trials_2.thisN,trials_2.thisIndex,trials.thisRepN,trials.thisTrialN,trials.thisN,trials.thisIndex,text_6.started,text_6.stopped,buttonBox.keys,buttonBox.rt,buttonBox.started,buttonBox.stopped,text_7.started,text_7.stopped,buttonBox_3.keys,buttonBox_3.rt,buttonBox_3.started,buttonBox_3.stopped,text_8.started,text_8.stopped,buttonBox_4.keys,buttonBox_4.rt,buttonBox_4.started,buttonBox_4.stopped,text_9.started,text_9.stopped,buttonBox_5.keys,buttonBox_5.rt,buttonBox_5.started,buttonBox_5.stopped,text_2.started,text_2.stopped,buttonBox_6.keys,buttonBox_6.rt,buttonBox_6.started,buttonBox_6.stopped,text_5.started,text_5.stopped,buttonBox_7.keys,buttonBox_7.rt,image_2.started,image_2.stopped,image_3.started,image_3.stopped,buttonBox_8.keys,buttonBox_8.rt,buttonBox_8.started,buttonBox_8.stopped,polygon.started,polygon.stopped,buttonBox_9.keys,buttonBox_9.rt,buttonBox_9.started,buttonBox_9.stopped,image.started,image.stopped,buttonBox_10.keys,buttonBox_10.corr,buttonBox_10.rt,buttonBox_10.started,buttonBox_10.stopped,text_4.started,text_4.stopped,text.started,text.stopped,buttonBox_11.keys,buttonBox_11.rt,buttonBox_11.started,buttonBox_11.stopped,targetTypeInstruction.started,targetTypeInstruction.stopped,buttonBox_2.keys,buttonBox_2.rt,buttonBox_2.started,buttonBox_2.stopped,dispStimuli.started,dispStimuli.stopped,buttonBox_12.keys,buttonBox_12.corr,buttonBox_12.rt,buttonBox_12.started,buttonBox_12.stopped,breakMessage.started,breakMessage.stopped,buttonBox_13.keys,buttonBox_13.started,buttonBox_13.stopped,buttonBox_13.rt,participant,session,date,expName,psychopyVersion,frameRate,
,,,,,,,,,,,,,,10.191073519992642,None,2,43.61719836699194,10.191073519992642,None,,,,,,,,,,,,,,,,,,,,,,,,,,,,,,,,,,,,,,,,,,,,,,,,,,,,,,,,,,,,,,,,,,,,,,,,,,,,,14,001,2023_Jan_20_1054,searchDisc5,2021.2.3,59.98123930357988,
,,,,,,,,,,,,,,,,,,,,53.80658968701027,None,2,8.532994665991282,53.80658968701027,None,,,,,,,,,,,,,,,,,,,,,,,,,,,,,,,,,,,,,,,,,,,,,,,,,,,,,,,,,,,,,,,,,,,,,,,14,001,2023_Jan_20_1054,searchDisc5,2021.2.3,59.98123930357988,
,,,,,,,,,,,,,,,,,,,,,,,,,,62.33996377501171,None,2,52.06393221500912,62.33996377501171,None,,,,,,,,,,,,,,,,,,,,,,,,,,,,,,,,,,,,,,,,,,,,,,,,,,,,,,,,,,,,,,,,,14,001,2023_Jan_20_1054,searchDisc5,2021.2.3,59.98123930357988,
,,,,,,,,,,,,,,,,,,,,,,,,,,,,,,,,114.40831471601268,None,2,20.298315282998374,114.40831471601268,None,,,,,,,,,,,,,,,,,,,,,,,,,,,,,,,,,,,,,,,,,,,,,,,,,,,,,,,,,,,14,001,2023_Jan_20_1054,searchDisc5,2021.2.3,59.98123930357988,
,,,,,,,,,,,,,,,,,,,,,,,,,,,,,,,,,,,,,,134.710874966986,None,2,21.297924765007338,135.6942902430019,None,,,,,,,,,,,,,,,,,,,,,,,,,,,,,,,,,,,,,,,,,,,,,,,,,,,,,14,001,2023_Jan_20_1054,searchDisc5,2021.2.3,59.98123930357988,
,,,,,,,,,,,,,,,,,,,,,,,,,,,,,,,,,,,,,,,,,,,,156.9947529929923,None,2,23.733890272997087,,,,,,,,,,,,,,,,,,,,,,,,,,,,,,,,,,,,,,,,,,,,,,,,,14,001,2023_Jan_20_1054,searchDisc5,2021.2.3,59.98123930357988,
,,,,,,,,,,,,,,,,,,,,,,,,,,,,,,,,,,,,,,,,,,,,,,,,183.74331100701238,None,183.74331100701238,None,2,15.779419233993394,183.74331100701238,None,,,,,,,,,,,,,,,,,,,,,,,,,,,,,,,,,,,,,,,,,14,001,2023_Jan_20_1054,searchDisc5,2021.2.3,59.98123930357988,
Practice arrays/exp1a_trial_0_colour1_distractors1_r.png,r,3,,,,0,0,0,0,,,,,,,,,,,,,,,,,,,,,,,,,,,,,,,,,,,,,,,,,,,,,,,199.54369270100142,None,2,8.870768019987736,199.54369270100142,None,208.46060240198858,213.46107171100448,3,1,6.019975545001216,208.46060240198858,None,214.4800924200099,None,,,,,,,,,,,,,,,,,,,,,,,,,,14,001,2023_Jan_20_1054,searchDisc5,2021.2.3,59.98123930357988,
Practice arrays/exp1a_trial_7_colour2_distractors9_r.png,r,3,,,,0,1,1,2,,,,,,,,,,,,,,,,,,,,,,,,,,,,,,,,,,,,,,,,,,,,,,,216.4794610470126,None,2,1.197028105991194,216.4794610470126,None,217.72999566799263,None,3,1,1.4002044049848337,217.72999566799263,None,219.1272037620074,None,,,,,,,,,,,,,,,,,,,,,,,,,,14,001,2023_Jan_20_1054,searchDisc5,2021.2.3,59.98123930357988,
Practice arrays/exp1a_trial_17_colour1_distractors9_l.png,l,1,,,,0,2,2,7,,,,,,,,,,,,,,,,,,,,,,,,,,,,,,,,,,,,,,,,,,,,,,,221.12997899399488,None,2,0.930568645009771,221.12997899399488,None,222.11131787099293,None,1,1,2.3691304969834164,222.11131787099293,None,224.4779420600098,None,,,,,,,,,,,,,,,,,,,,,,,,,,14,001,2023_Jan_20_1054,searchDisc5,2021.2.3,59.98123930357988,
Practice arrays/exp1a_trial_14_colour3_distractors31_r.png,r,3,,,,0,3,3,6,,,,,,,,,,,,,,,,,,,,,,,,,,,,,,,,,,,,,,,,,,,,,,,226.48009841900785,None,2,1.3471732450125273,226.48009841900785,None,227.87818619399332,None,3,1,0.9468918130150996,227.87818619399332,None,228.82807779498398,None,,,,,,,,,,,,,,,,,,,,,,,,,,14,001,2023_Jan_20_1054,searchDisc5,2021.2.3,59.98123930357988,
Practice arrays/exp1a_trial_10_colour3_distractors1_r.png,r,3,,,,0,4,4,4,,,,,,,,,,,,,,,,,,,,,,,,,,,,,,,,,,,,,,,,,,,,,,,230.8302553250105,None,2,1.6135865199903492,230.8302553250105,None,232.4967345019977,None,3,1,1.1726294190157205,232.4967345019977,None,233.661427301995,None,,,,,,,,,,,,,,,,,,,,,,,,,,14,001,2023_Jan_20_1054,searchDisc5,2021.2.3,59.98123930357988,
Practice arrays/exp1a_trial_12_colour3_distractors9_r.png,r,3,,,,0,5,5,5,,,,,,,,,,,,,,,,,,,,,,,,,,,,,,,,,,,,,,,,,,,,,,,235.6636774590006,None,2,1.0824272550235037,235.6636774590006,None,236.79669140299666,None,3,1,1.2494679169903975,236.79669140299666,None,238.04480984000838,None,,,,,,,,,,,,,,,,,,,,,,,,,,14,001,2023_Jan_20_1054,searchDisc5,2021.2.3,59.98123930357988,
Practice arrays/exp1a_trial_1_colour1_distractors4_r.png,r,3,,,,0,6,6,1,,,,,,,,,,,,,,,,,,,,,,,,,,,,,,,,,,,,,,,,,,,,,,,240.04708276799647,None,2,1.4656629610108212,240.04708276799647,None,241.5638196640066,None,3,1,0.9009602929872926,241.5638196640066,None,242.46163363399683,None,,,,,,,,,,,,,,,,,,,,,,,,,,14,001,2023_Jan_20_1054,searchDisc5,2021.2.3,59.98123930357988,
Practice arrays/exp1a_trial_31_colour0_distractors0_l.png,l,1,,,,0,7,7,15,,,,,,,,,,,,,,,,,,,,,,,,,,,,,,,,,,,,,,,,,,,,,,,244.46361709700432,None,2,0.7970557880180422,244.46361709700432,None,245.31154253799468,None,1,1,1.0525677000114229,245.31154253799468,None,246.36190595998778,None,,,,,,,,,,,,,,,,,,,,,,,,,,14,001,2023_Jan_20_1054,searchDisc5,2021.2.3,59.98123930357988,
Practice arrays/exp1a_trial_18_colour1_distractors19_l.png,l,1,,,,0,8,8,8,,,,,,,,,,,,,,,,,,,,,,,,,,,,,,,,,,,,,,,,,,,,,,,248.36201579400222,None,2,1.4161689640022814,248.36201579400222,None,249.8286379869969,None,1,1,1.6502589989977423,249.8286379869969,None,251.47882234799908,None,,,,,,,,,,,,,,,,,,,,,,,,,,14,001,2023_Jan_20_1054,searchDisc5,2021.2.3,59.98123930357988,
Practice arrays/exp1a_trial_30_colour0_distractors0_r.png,r,3,,,,0,9,9,14,,,,,,,,,,,,,,,,,,,,,,,,,,,,,,,,,,,,,,,,,,,,,,,253.48032908700407,None,2,2.147098716988694,253.48032908700407,None,255.68097933600075,None,3,1,0.9049848440045025,255.68097933600075,None,256.5787929939979,None,,,,,,,,,,,,,,,,,,,,,,,,,,14,001,2023_Jan_20_1054,searchDisc5,2021.2.3,59.98123930357988,
Practice arrays/exp1a_trial_27_colour3_distractors9_l.png,l,1,,,,0,10,10,12,,,,,,,,,,,,,,,,,,,,,,,,,,,,,,,,,,,,,,,,,,,,,,,258.5804246029875,None,2,0.9985143059748225,258.5804246029875,None,259.62845107598696,None,1,1,0.9868372260243632,259.62845107598696,None,260.6115416759858,None,,,,,,,,,,,,,,,,,,,,,,,,,,14,001,2023_Jan_20_1054,searchDisc5,2021.2.3,59.98123930357988,
Practice arrays/exp1a_trial_8_colour2_distractors19_r.png,r,3,,,,0,11,11,3,,,,,,,,,,,,,,,,,,,,,,,,,,,,,,,,,,,,,,,,,,,,,,,262.61432339498424,None,2,0.8140502340102103,262.61432339498424,None,263.47902503301157,None,3,1,0.9662429409800097,263.47902503301157,None,264.44549533800455,None,,,,,,,,,,,,,,,,,,,,,,,,,,14,001,2023_Jan_20_1054,searchDisc5,2021.2.3,59.98123930357988,
Practice arrays/exp1a_trial_23_colour2_distractors19_l.png,l,1,,,,0,12,12,10,,,,,,,,,,,,,,,,,,,,,,,,,,,,,,,,,,,,,,,,,,,,,,,266.44762992000324,None,2,0.780219312000554,266.44762992000324,None,267.2790718420001,None,1,1,1.1858841840003151,267.2790718420001,None,268.462344931002,None,,,,,,,,,,,,,,,,,,,,,,,,,,14,001,2023_Jan_20_1054,searchDisc5,2021.2.3,59.98123930357988,
Practice arrays/exp1a_trial_16_colour1_distractors4_l.png,l,1,,,,0,13,13,13,,,,,,,,,,,,,,,,,,,,,,,,,,,,,,,,,,,,,,,,,,,,,,,270.4640502189868,None,2,3.648570807010401,270.4640502189868,None,274.16496037799516,None,1,1,1.2713081799738575,274.16496037799516,None,275.42927782799234,None,,,,,,,,,,,,,,,,,,,,,,,,,,14,001,2023_Jan_20_1054,searchDisc5,2021.2.3,59.98123930357988,
Practice arrays/exp1a_trial_25_colour3_distractors1_l.png,l,1,,,,0,14,14,11,,,,,,,,,,,,,,,,,,,,,,,,,,,,,,,,,,,,,,,,,,,,,,,277.43133427598514,None,2,1.4304919100250117,277.43133427598514,None,278.915146438987,None,1,1,0.9235215109947603,278.915146438987,None,279.829432419996,None,,,,,,,,,,,,,,,,,,,,,,,,,,14,001,2023_Jan_20_1054,searchDisc5,2021.2.3,59.98123930357988,
Practice arrays/exp1a_trial_21_colour2_distractors4_l.png,l,1,,,,0,15,15,9,,,,,,,,,,,,,,,,,,,,,,,,,,,,,,,,,,,,,,,,,,,,,,,281.8315950309916,None,2,1.1306649369944353,281.8315950309916,None,283.0131260519847,None,1,1,1.0534319989965297,283.0131260519847,None,284.06281534099253,None,,,,,,,,,,,,,,,,,,,,,,,,,,14,001,2023_Jan_20_1054,searchDisc5,2021.2.3,59.98123930357988,
,,,,,,,,,,,,,,,,,,,,,,,,,,,,,,,,,,,,,,,,,,,,,,,,,,,,,,,,,,,,,,,,,,,,,,,286.1481991909968,None,2,27.165049501985777,287.1317106630013,None,,,,,,,,,,,,,,,,,,,,14,001,2023_Jan_20_1054,searchDisc5,2021.2.3,59.98123930357988,
images/exp2c_trial_164_colour1_distractors31_r.png,r,3,1,31,0,,,,,0,0,0,0,,,,,,,,,,,,,,,,,,,,,,,,,,,,,,,,,,,,,,,,,,,330.08277282401104,None,2,1.444685157010099,330.08277282401104,None,,,,,,,,,,,,,,,,314.8992393499939,None,2,13.215102538000792,316.86563933998696,None,331.59302536200266,None,3,1,1.6105533469817601,331.59302536200266,None,333.21355011179116,None,None,None,None,,14,001,2023_Jan_20_1054,searchDisc5,2021.2.3,59.98123930357988,
images/exp2b_trial_130_colour1_distractors9_r.png,r,3,1,9,0,,,,,0,1,1,1,,,,,,,,,,,,,,,,,,,,,,,,,,,,,,,,,,,,,,,,,,,333.23067175698816,None,2,2.154530396015616,333.23067175698816,None,,,,,,,,,,,,,,,,None,None,None,,None,None,335.43076027400093,None,3,1,1.9003334580047522,335.43076027400093,None,337.33064810488725,None,None,None,None,,14,001,2023_Jan_20_1054,searchDisc5,2021.2.3,59.98123930357988,
images/exp2c_trial_263_colour2_distractors9_r.png,r,3,2,9,0,,,,,0,2,2,2,,,,,,,,,,,,,,,,,,,,,,,,,,,,,,,,,,,,,,,,,,,337.3473891429894,None,2,2.2525510719860904,337.3473891429894,None,,,,,,,,,,,,,,,,None,None,None,,None,None,339.6493888699915,None,3,1,1.3036960279860068,339.6493888699915,None,340.94753572690536,None,None,None,None,,14,001,2023_Jan_20_1054,searchDisc5,2021.2.3,59.98123930357988,
images/exp2b_trial_290_colour1_distractors9_r.png,r,3,1,9,0,,,,,0,3,3,3,,,,,,,,,,,,,,,,,,,,,,,,,,,,,,,,,,,,,,,,,,,340.96364165100385,None,2,1.9869360779994167,340.96364165100385,None,,,,,,,,,,,,,,,,None,None,None,,None,None,342.99764453899115,None,3,1,1.0366512809996493,342.99764453899115,None,344.0308142938826,None,None,None,None,,14,001,2023_Jan_20_1054,searchDisc5,2021.2.3,59.98123930357988,
images/exp1a_trial_35_colour1_distractors19_r.png,r,3,1,19,0,,,,,0,4,4,4,,,,,,,,,,,,,,,,,,,,,,,,,,,,,,,,,,,,,,,,,,,344.04724565098877,None,2,3.486933072010288,344.04724565098877,None,,,,,,,,,,,,,,,,None,None,None,,None,None,347.5834144339897,None,3,1,4.615070600004401,347.5834144339897,None,352.19766976188987,None,None,None,None,,14,001,2023_Jan_20_1054,searchDisc5,2021.2.3,59.98123930357988,
images/exp1a_trial_246_colour2_distractors9_l.png,l,1,2,9,0,,,,,0,5,5,5,,,,,,,,,,,,,,,,,,,,,,,,,,,,,,,,,,,,,,,,,,,352.2141754309996,None,2,1.9224538340058643,352.2141754309996,None,,,,,,,,,,,,,,,,None,None,None,,None,None,354.18361296798685,None,1,1,1.9997800900018774,354.18361296798685,None,356.1811572328967,None,None,None,None,,14,001,2023_Jan_20_1054,searchDisc5,2021.2.3,59.98123930357988,
images/exp2a_trial_47_colour1_distractors1_l.png,l,1,1,1,0,,,,,0,6,6,6,,,,,,,,,,,,,,,,,,,,,,,,,,,,,,,,,,,,,,,,,,,356.1982701290108,None,2,1.7701202640018892,356.1982701290108,None,,,,,,,,,,,,,,,,None,None,None,,None,None,358.0145607710001,None,1,1,1.5044129630259704,358.0145607710001,None,359.51456738690615,None,None,None,None,,14,001,2023_Jan_20_1054,searchDisc5,2021.2.3,59.98123930357988,
images/exp2b_trial_68_colour1_distractors31_r.png,r,3,1,31,0,,,,,0,7,7,7,,,,,,,,,,,,,,,,,,,,,,,,,,,,,,,,,,,,,,,,,,,359.53098344500177,None,2,2.4568527860101312,359.53098344500177,None,,,,,,,,,,,,,,,,None,None,None,,None,None,362.0316957719915,None,3,1,2.181335709989071,362.0316957719915,None,364.21430365289564,None,None,None,None,,14,001,2023_Jan_20_1054,searchDisc5,2021.2.3,59.98123930357988,
images/exp2b_trial_81_colour1_distractors9_l.png,l,1,1,9,0,,,,,0,8,8,8,,,,,,,,,,,,,,,,,,,,,,,,,,,,,,,,,,,,,,,,,,,364.2315808899875,None,2,2.171635740000056,364.2315808899875,None,,,,,,,,,,,,,,,,None,None,None,,None,None,366.44847670098534,None,1,1,1.1532020530139562,366.44847670098534,None,367.5984428799071,None,None,None,None,,14,001,2023_Jan_20_1054,searchDisc5,2021.2.3,59.98123930357988,
images/exp2a_trial_44_colour3_distractors9_r.png,r,3,3,9,0,,,,,0,9,9,9,,,,,,,,,,,,,,,,,,,,,,,,,,,,,,,,,,,,,,,,,,,367.61561986399465,None,2,1.9892085639876314,367.61561986399465,None,,,,,,,,,,,,,,,,None,None,None,,None,None,369.65076620300533,None,3,1,1.0646115269919392,369.65076620300533,None,370.7150551539031,None,None,None,None,,14,001,2023_Jan_20_1054,searchDisc5,2021.2.3,59.98123930357988,
images/exp2c_trial_256_colour1_distractors1_r.png,r,3,1,1,0,,,,,0,10,10,10,,,,,,,,,,,,,,,,,,,,,,,,,,,,,,,,,,,,,,,,,,,370.7328012659855,None,2,1.9563500390213449,370.7328012659855,None,,,,,,,,,,,,,,,,None,None,None,,None,None,372.73485099500977,None,3,1,1.0692350519821048,372.73485099500977,None,373.79844279388783,None,None,None,None,,14,001,2023_Jan_20_1054,searchDisc5,2021.2.3,59.98123930357988,
images/exp2a_trial_281_colour3_distractors1_l.png,l,1,3,1,0,,,,,0,11,11,11,,,,,,,,,,,,,,,,,,,,,,,,,,,,,,,,,,,,,,,,,,,373.8155116979906,None,2,1.939773652004078,373.8155116979906,None,,,,,,,,,,,,,,,,None,None,None,,None,None,375.80166841699975,None,1,1,2.969246887980262,375.80166841699975,None,378.7653444769036,None,None,None,None,,14,001,2023_Jan_20_1054,searchDisc5,2021.2.3,59.98123930357988,
images/exp1a_trial_276_colour2_distractors1_l.png,l,1,2,1,0,,,,,0,12,12,12,,,,,,,,,,,,,,,,,,,,,,,,,,,,,,,,,,,,,,,,,,,378.78290503501194,None,2,2.4054749729984906,378.78290503501194,None,,,,,,,,,,,,,,,,None,None,None,,None,None,381.2326350240037,None,1,1,1.1544537539884914,381.2326350240037,None,382.38313003689984,None,None,None,None,,14,001,2023_Jan_20_1054,searchDisc5,2021.2.3,59.98123930357988,
images/exp2a_trial_198_colour2_distractors4_r.png,r,3,2,4,0,,,,,0,13,13,13,,,,,,,,,,,,,,,,,,,,,,,,,,,,,,,,,,,,,,,,,,,382.3994733940053,None,2,2.3053893239994068,382.3994733940053,None,,,,,,,,,,,,,,,,None,None,None,,None,None,384.75164439401124,None,3,1,0.9675878470006865,384.75164439401124,None,385.71543230790996,None,None,None,None,,14,001,2023_Jan_20_1054,searchDisc5,2021.2.3,59.98123930357988,
images/exp1a_trial_295_colour2_distractors9_r.png,r,3,2,9,0,,,,,0,14,14,14,,,,,,,,,,,,,,,,,,,,,,,,,,,,,,,,,,,,,,,,,,,385.7313544260105,None,2,2.522460840991698,385.7313544260105,None,,,,,,,,,,,,,,,,None,None,None,,None,None,388.3002918699931,None,3,1,1.0989505189936608,388.3002918699931,None,389.3986626799102,None,None,None,None,,14,001,2023_Jan_20_1054,searchDisc5,2021.2.3,59.98123930357988,
images/exp2a_trial_60_colour3_distractors19_l.png,l,1,3,19,0,,,,,0,15,15,15,,,,,,,,,,,,,,,,,,,,,,,,,,,,,,,,,,,,,,,,,,,389.41640842400375,None,2,2.454626605991507,389.41640842400375,None,,,,,,,,,,,,,,,,None,None,None,,None,None,391.9186560009839,None,1,1,1.2330728789966088,391.9186560009839,None,393.14910295788434,None,None,None,None,,14,001,2023_Jan_20_1054,searchDisc5,2021.2.3,59.98123930357988,
images/exp2b_trial_16_colour1_distractors4_l.png,l,1,1,4,0,,,,,0,16,16,16,,,,,,,,,,,,,,,,,,,,,,,,,,,,,,,,,,,,,,,,,,,393.16671372699784,None,2,2.0541803459927905,393.16671372699784,None,,,,,,,,,,,,,,,,None,None,None,,None,None,395.26682512799744,None,1,1,1.0379939659906086,395.26682512799744,None,396.29925114189393,None,None,None,None,,14,001,2023_Jan_20_1054,searchDisc5,2021.2.3,59.98123930357988,
images/exp2b_trial_208_colour1_distractors4_l.png,l,1,1,4,0,,,,,0,17,17,17,,,,,,,,,,,,,,,,,,,,,,,,,,,,,,,,,,,,,,,,,,,396.3168953389977,None,2,2.272970911988523,396.3168953389977,None,,,,,,,,,,,,,,,,None,None,None,,None,None,398.63557640099316,None,1,1,1.0859904699900653,398.63557640099316,None,399.7158360159025,None,None,None,None,,14,001,2023_Jan_20_1054,searchDisc5,2021.2.3,59.98123930357988,
images/exp2a_trial_210_colour1_distractors19_l.png,l,1,1,19,0,,,,,0,18,18,18,,,,,,,,,,,,,,,,,,,,,,,,,,,,,,,,,,,,,,,,,,,399.7338298819959,None,2,2.0071162050007842,399.7338298819959,None,,,,,,,,,,,,,,,,None,None,None,,None,None,401.78377304799506,None,1,1,0.8836921419715509,401.78377304799506,None,402.66704816390995,None,None,None,None,,14,001,2023_Jan_20_1054,searchDisc5,2021.2.3,59.98123930357988,
images/exp1a_trial_221_colour3_distractors31_l.png,l,1,3,31,0,,,,,0,19,19,19,,,,,,,,,,,,,,,,,,,,,,,,,,,,,,,,,,,,,,,,,,,402.6828327580006,None,2,2.403585527994437,402.6828327580006,None,,,,,,,,,,,,,,,,None,None,None,,None,None,405.1356142029981,None,1,1,1.1150603240239434,405.1356142029981,None,406.24940226689216,None,None,None,None,,14,001,2023_Jan_20_1054,searchDisc5,2021.2.3,59.98123930357988,
images/exp1a_trial_187_colour3_distractors9_l.png,l,1,3,9,0,,,,,0,20,20,20,,,,,,,,,,,,,,,,,,,,,,,,,,,,,,,,,,,,,,,,,,,406.2663058959879,None,2,2.022992503014393,406.2663058959879,None,,,,,,,,,,,,,,,,None,None,None,,None,None,408.33429157501087,None,1,1,0.8000353310198989,408.33429157501087,None,409.13270180188704,None,None,None,None,,14,001,2023_Jan_20_1054,searchDisc5,2021.2.3,59.98123930357988,
images/exp2c_trial_133_colour2_distractors1_r.png,r,3,2,1,0,,,,,0,21,21,21,,,,,,,,,,,,,,,,,,,,,,,,,,,,,,,,,,,,,,,,,,,409.1505582710088,None,2,1.6228790440072771,409.1505582710088,None,,,,,,,,,,,,,,,,None,None,None,,None,None,410.81648635299644,None,3,1,0.9363321260025259,410.81648635299644,None,411.7494194218831,None,None,None,None,,14,001,2023_Jan_20_1054,searchDisc5,2021.2.3,59.98123930357988,
images/exp2c_trial_71_colour2_distractors9_r.png,r,3,2,9,0,,,,,0,22,22,22,,,,,,,,,,,,,,,,,,,,,,,,,,,,,,,,,,,,,,,,,,,411.7674103099853,None,2,1.6531405720161274,411.7674103099853,None,,,,,,,,,,,,,,,,None,None,None,,None,None,413.466532949009,None,3,1,1.0192679990141187,413.466532949009,None,414.4828758329037,None,None,None,None,,14,001,2023_Jan_20_1054,searchDisc5,2021.2.3,59.98123930357988,
images/exp2b_trial_17_colour1_distractors9_l.png,l,1,1,9,0,,,,,0,23,23,23,,,,,,,,,,,,,,,,,,,,,,,,,,,,,,,,,,,,,,,,,,,414.50250464098644,None,2,1.7888249640236609,414.50250464098644,None,,,,,,,,,,,,,,,,None,None,None,,None,None,416.3364504450001,None,1,1,1.8355310970218852,416.3364504450001,None,418.1663701038866,None,None,None,None,,14,001,2023_Jan_20_1054,searchDisc5,2021.2.3,59.98123930357988,
images/exp2a_trial_19_colour1_distractors31_l.png,l,1,1,31,0,,,,,0,24,24,24,,,,,,,,,,,,,,,,,,,,,,,,,,,,,,,,,,,,,,,,,,,418.1832798389951,None,2,1.9899809589842334,418.1832798389951,None,,,,,,,,,,,,,,,,None,None,None,,None,None,420.2185472919955,None,1,1,1.0502205829834566,420.2185472919955,None,421.267600068904,None,None,None,None,,14,001,2023_Jan_20_1054,searchDisc5,2021.2.3,59.98123930357988,
images/exp1a_trial_203_colour3_distractors4_r.png,r,3,3,4,0,,,,,0,25,25,25,,,,,,,,,,,,,,,,,,,,,,,,,,,,,,,,,,,,,,,,,,,421.2831680639938,None,2,2.3365630019980017,421.2831680639938,None,,,,,,,,,,,,,,,,None,None,None,,None,None,423.6700763599947,None,3,1,0.9054427570081316,423.6700763599947,None,424.5665810308943,None,None,None,None,,14,001,2023_Jan_20_1054,searchDisc5,2021.2.3,59.98123930357988,
images/exp1a_trial_219_colour3_distractors9_l.png,l,1,3,9,0,,,,,0,26,26,26,,,,,,,,,,,,,,,,,,,,,,,,,,,,,,,,,,,,,,,,,,,424.5826909010066,None,2,1.8385576870059595,424.5826909010066,None,,,,,,,,,,,,,,,,None,None,None,,None,None,426.46938842200325,None,1,1,1.0335034180025104,426.46938842200325,None,427.49930162590465,None,None,None,None,,14,001,2023_Jan_20_1054,searchDisc5,2021.2.3,59.98123930357988,
images/exp2a_trial_101_colour2_distractors1_r.png,r,3,2,1,0,,,,,0,27,27,27,,,,,,,,,,,,,,,,,,,,,,,,,,,,,,,,,,,,,,,,,,,427.5178935510048,None,2,1.8885210150037892,427.5178935510048,None,,,,,,,,,,,,,,,,None,None,None,,None,None,429.4515411389875,None,3,1,1.0539376309898216,429.4515411389875,None,430.4998842939036,None,None,None,None,,14,001,2023_Jan_20_1054,searchDisc5,2021.2.3,59.98123930357988,
images/exp1a_trial_210_colour1_distractors19_l.png,l,1,1,19,0,,,,,0,28,28,28,,,,,,,,,,,,,,,,,,,,,,,,,,,,,,,,,,,,,,,,,,,430.5174754949985,None,2,1.68889211199712,430.5174754949985,None,,,,,,,,,,,,,,,,None,None,None,,None,None,432.2516115769977,None,1,1,1.1501778770179953,432.2516115769977,None,433.40023284890924,None,None,None,None,,14,001,2023_Jan_20_1054,searchDisc5,2021.2.3,59.98123930357988,
images/exp1a_trial_185_colour3_distractors1_l.png,l,1,3,1,0,,,,,0,29,29,29,,,,,,,,,,,,,,,,,,,,,,,,,,,,,,,,,,,,,,,,,,,433.4180739810108,None,2,1.7041022459743544,433.4180739810108,None,,,,,,,,,,,,,,,,None,None,None,,None,None,435.16738468100084,None,1,1,0.9049057880183682,435.16738468100084,None,436.0667477778858,None,None,None,None,,14,001,2023_Jan_20_1054,searchDisc5,2021.2.3,59.98123930357988,
images/exp2a_trial_133_colour2_distractors1_r.png,r,3,2,1,0,,,,,0,30,30,30,,,,,,,,,,,,,,,,,,,,,,,,,,,,,,,,,,,,,,,,,,,436.0842619180039,None,2,1.9255967320059426,436.0842619180039,None,,,,,,,,,,,,,,,,None,None,None,,None,None,438.0501003509853,None,3,1,0.9527275419968646,438.0501003509853,None,439.001302738901,None,None,None,None,,14,001,2023_Jan_20_1054,searchDisc5,2021.2.3,59.98123930357988,
images/exp1a_trial_229_colour2_distractors1_r.png,r,3,2,1,0,,,,,0,31,31,31,,,,,,,,,,,,,,,,,,,,,,,,,,,,,,,,,,,,,,,,,,,439.0179040929943,None,2,1.7687821419967804,439.0179040929943,None,,,,,,,,,,,,,,,,None,None,None,,None,None,440.8363429789897,None,3,1,0.9699427129817195,440.8363429789897,None,441.80035673090026,None,None,None,None,,14,001,2023_Jan_20_1054,searchDisc5,2021.2.3,59.98123930357988,
images/exp1a_trial_126_colour0_distractors0_r.png,r,3,0,0,0,,,,,0,32,32,32,,,,,,,,,,,,,,,,,,,,,,,,,,,,,,,,,,,,,,,,,,,441.81712254398735,None,2,1.673713244003011,441.81712254398735,None,,,,,,,,,,,,,,,,None,None,None,,None,None,443.5343602109933,None,3,1,0.9352984110009857,443.5343602109933,None,444.4670509948861,None,None,None,None,,14,001,2023_Jan_20_1054,searchDisc5,2021.2.3,59.98123930357988,
images/exp2a_trial_132_colour1_distractors31_r.png,r,3,1,31,0,,,,,0,33,33,33,,,,,,,,,,,,,,,,,,,,,,,,,,,,,,,,,,,,,,,,,,,444.4846231669944,None,2,1.6888346259947866,444.4846231669944,None,,,,,,,,,,,,,,,,None,None,None,,None,None,446.21741150299204,None,3,1,0.8167380500235595,446.21741150299204,None,447.03368280289,None,None,None,None,,14,001,2023_Jan_20_1054,searchDisc5,2021.2.3,59.98123930357988,
images/exp2a_trial_264_colour2_distractors19_r.png,r,3,2,19,0,,,,,0,34,34,34,,,,,,,,,,,,,,,,,,,,,,,,,,,,,,,,,,,,,,,,,,,447.05070411998895,None,2,1.9370526449929457,447.05070411998895,None,,,,,,,,,,,,,,,,None,None,None,,None,None,449.03764997198596,None,3,1,1.1142715570167638,449.03764997198596,None,450.15147815888633,None,None,None,None,,14,001,2023_Jan_20_1054,searchDisc5,2021.2.3,59.98123930357988,
images/exp2c_trial_167_colour2_distractors9_r.png,r,3,2,9,0,,,,,0,35,35,35,,,,,,,,,,,,,,,,,,,,,,,,,,,,,,,,,,,,,,,,,,,450.16765753700747,None,2,1.8034739379945677,450.16765753700747,None,,,,,,,,,,,,,,,,None,None,None,,None,None,452.02063739899313,None,3,1,0.8867434169806074,452.02063739899313,None,452.9007136039087,None,None,None,None,,14,001,2023_Jan_20_1054,searchDisc5,2021.2.3,59.98123930357988,
images/exp2b_trial_298_colour3_distractors1_r.png,r,3,3,1,0,,,,,0,36,36,36,,,,,,,,,,,,,,,,,,,,,,,,,,,,,,,,,,,,,,,,,,,452.91736151999794,None,2,1.9552165979985148,452.91736151999794,None,,,,,,,,,,,,,,,,None,None,None,,None,None,454.92059987800894,None,3,1,0.8035682849877048,454.92059987800894,None,455.71734926188367,None,None,None,None,,14,001,2023_Jan_20_1054,searchDisc5,2021.2.3,59.98123930357988,
images/exp1a_trial_259_colour1_distractors19_r.png,r,3,1,19,0,,,,,0,37,37,37,,,,,,,,,,,,,,,,,,,,,,,,,,,,,,,,,,,,,,,,,,,455.7349943589943,None,2,1.455521741998382,455.7349943589943,None,,,,,,,,,,,,,,,,None,None,None,,None,None,457.23657759299385,None,3,1,1.166617856011726,457.23657759299385,None,458.4010584668955,None,None,None,None,,14,001,2023_Jan_20_1054,searchDisc5,2021.2.3,59.98123930357988,
images/exp2c_trial_200_colour2_distractors19_r.png,r,3,2,19,0,,,,,0,38,38,38,,,,,,,,,,,,,,,,,,,,,,,,,,,,,,,,,,,,,,,,,,,458.4184428000008,None,2,1.9559775899979286,458.4184428000008,None,,,,,,,,,,,,,,,,None,None,None,,None,None,460.4207426889916,None,3,1,1.0671369140036404,460.4207426889916,None,461.48426956889455,None,None,None,None,,14,001,2023_Jan_20_1054,searchDisc5,2021.2.3,59.98123930357988,
images/exp2a_trial_179_colour1_distractors31_l.png,l,1,1,31,0,,,,,0,39,39,39,,,,,,,,,,,,,,,,,,,,,,,,,,,,,,,,,,,,,,,,,,,461.5011284300126,None,2,2.0710795070044696,461.5011284300126,None,,,,,,,,,,,,,,,,None,None,None,,None,None,463.61905425900477,None,1,1,0.8850594719988294,463.61905425900477,None,464.50059836988805,None,None,None,None,,14,001,2023_Jan_20_1054,searchDisc5,2021.2.3,59.98123930357988,
images/exp2a_trial_158_colour0_distractors0_r.png,r,3,0,0,0,,,,,0,40,40,40,,,,,,,,,,,,,,,,,,,,,,,,,,,,,,,,,,,,,,,,,,,464.5178812230006,None,2,4.204954986984376,464.5178812230006,None,,,,,,,,,,,,,,,,None,None,None,,None,None,468.77129447399057,None,3,1,0.9541378380090464,468.77129447399057,None,469.71765854389525,None,None,None,None,,14,001,2023_Jan_20_1054,searchDisc5,2021.2.3,59.98123930357988,
images/exp2a_trial_139_colour3_distractors4_r.png,r,3,3,4,0,,,,,0,41,41,41,,,,,,,,,,,,,,,,,,,,,,,,,,,,,,,,,,,,,,,,,,,469.7354381149926,None,2,1.65660588798346,469.7354381149926,None,,,,,,,,,,,,,,,,None,None,None,,None,None,471.4349301290058,None,3,1,0.9037642949842848,471.4349301290058,None,472.33555841989585,None,None,None,None,,14,001,2023_Jan_20_1054,searchDisc5,2021.2.3,59.98123930357988,
images/exp2b_trial_141_colour3_distractors19_r.png,r,3,3,19,0,,,,,0,42,42,42,,,,,,,,,,,,,,,,,,,,,,,,,,,,,,,,,,,,,,,,,,,472.3512335809937,None,2,2.0873831269855145,472.3512335809937,None,,,,,,,,,,,,,,,,None,None,None,,None,None,474.48727544400026,None,3,1,0.8841188309888821,474.48727544400026,None,475.3678088938992,None,None,None,None,,14,001,2023_Jan_20_1054,searchDisc5,2021.2.3,59.98123930357988,
images/exp2c_trial_241_colour1_distractors9_l.png,l,1,1,9,0,,,,,0,43,43,43,,,,,,,,,,,,,,,,,,,,,,,,,,,,,,,,,,,,,,,,,,,475.3855922310031,None,2,1.9889195029973052,475.3855922310031,None,,,,,,,,,,,,,,,,None,None,None,,None,None,477.4191791990015,None,1,1,1.0194507419946603,477.4191791990015,None,478.4345861148846,None,None,None,None,,14,001,2023_Jan_20_1054,searchDisc5,2021.2.3,59.98123930357988,
images/exp1a_trial_235_colour3_distractors4_r.png,r,3,3,4,0,,,,,0,44,44,44,,,,,,,,,,,,,,,,,,,,,,,,,,,,,,,,,,,,,,,,,,,478.45258010399994,None,2,2.423600548005197,478.45258010399994,None,,,,,,,,,,,,,,,,None,None,None,,None,None,480.91842936800094,None,3,1,0.8340822310128715,480.91842936800094,None,481.75152122190923,None,None,None,None,,14,001,2023_Jan_20_1054,searchDisc5,2021.2.3,59.98123930357988,
images/exp2a_trial_302_colour3_distractors31_r.png,r,3,3,31,0,,,,,0,45,45,45,,,,,,,,,,,,,,,,,,,,,,,,,,,,,,,,,,,,,,,,,,,481.76893848500913,None,2,2.156375057005789,481.76893848500913,None,,,,,,,,,,,,,,,,None,None,None,,None,None,483.97067438199883,None,3,1,1.1153775179991499,483.97067438199883,None,485.0845977808873,None,None,None,None,,14,001,2023_Jan_20_1054,searchDisc5,2021.2.3,59.98123930357988,
images/exp2b_trial_7_colour2_distractors9_r.png,r,3,2,9,0,,,,,0,46,46,46,,,,,,,,,,,,,,,,,,,,,,,,,,,,,,,,,,,,,,,,,,,485.10232508101035,None,2,1.9221350429870654,485.10232508101035,None,,,,,,,,,,,,,,,,None,None,None,,None,None,487.06804862999707,None,3,1,1.452216284989845,487.06804862999707,None,488.51830469990966,None,None,None,None,,14,001,2023_Jan_20_1054,searchDisc5,2021.2.3,59.98123930357988,
images/exp2c_trial_293_colour2_distractors1_r.png,r,3,2,1,0,,,,,0,47,47,47,,,,,,,,,,,,,,,,,,,,,,,,,,,,,,,,,,,,,,,,,,,488.5360083520063,None,2,2.9046908740128856,488.5360083520063,None,,,,,,,,,,,,,,,,None,None,None,,None,None,491.4855699740001,None,3,1,0.854101155011449,491.4855699740001,None,492.3350311148912,None,None,None,None,,14,001,2023_Jan_20_1054,searchDisc5,2021.2.3,59.98123930357988,
images/exp1a_trial_123_colour3_distractors9_l.png,l,1,3,9,0,,,,,0,48,48,48,,,,,,,,,,,,,,,,,,,,,,,,,,,,,,,,,,,,,,,,,,,492.3526628619875,None,2,2.5887632530066185,492.3526628619875,None,,,,,,,,,,,,,,,,None,None,None,,None,None,494.98661974299466,None,1,1,1.1019261940091383,494.98661974299466,None,496.0850817699044,None,None,None,None,,14,001,2023_Jan_20_1054,searchDisc5,2021.2.3,59.98123930357988,
images/exp2a_trial_243_colour1_distractors31_l.png,l,1,1,31,0,,,,,0,49,49,49,,,,,,,,,,,,,,,,,,,,,,,,,,,,,,,,,,,,,,,,,,,496.10195001299144,None,2,3.0045595340197906,496.10195001299144,None,,,,,,,,,,,,,,,,None,None,None,,None,None,499.15525130400783,None,1,1,1.0346562899940182,499.15525130400783,None,500.1852911809052,None,None,None,None,,14,001,2023_Jan_20_1054,searchDisc5,2021.2.3,59.98123930357988,
images/exp1a_trial_297_colour2_distractors31_r.png,r,3,2,31,0,,,,,0,50,50,50,,,,,,,,,,,,,,,,,,,,,,,,,,,,,,,,,,,,,,,,,,,500.2030679130112,None,2,2.1384182180045173,500.2030679130112,None,,,,,,,,,,,,,,,,None,None,None,,None,None,502.38856670999667,None,3,1,1.2640909000183456,502.38856670999667,None,503.6512979528867,None,None,None,None,,14,001,2023_Jan_20_1054,searchDisc5,2021.2.3,59.98123930357988,
images/exp2b_trial_165_colour2_distractors1_r.png,r,3,2,1,0,,,,,0,51,51,51,,,,,,,,,,,,,,,,,,,,,,,,,,,,,,,,,,,,,,,,,,,503.6688794440124,None,2,1.621591339004226,503.6688794440124,None,,,,,,,,,,,,,,,,None,None,None,,None,None,505.33787948900135,None,3,1,0.9388909540139139,505.33787948900135,None,506.26962858688205,None,None,None,None,,14,001,2023_Jan_20_1054,searchDisc5,2021.2.3,59.98123930357988,
images/exp2c_trial_189_colour3_distractors31_l.png,l,1,3,31,0,,,,,0,52,52,52,,,,,,,,,,,,,,,,,,,,,,,,,,,,,,,,,,,,,,,,,,,506.2856657860102,None,2,1.7708637999894563,506.2856657860102,None,,,,,,,,,,,,,,,,None,None,None,,None,None,508.1031327719975,None,1,1,1.3679399770044256,508.1031327719975,None,509.4690648278862,None,None,None,None,,14,001,2023_Jan_20_1054,searchDisc5,2021.2.3,59.98123930357988,
images/exp2b_trial_46_colour3_distractors31_r.png,r,3,3,31,0,,,,,0,53,53,53,,,,,,,,,,,,,,,,,,,,,,,,,,,,,,,,,,,,,,,,,,,509.4868536219874,None,2,1.9370103080000263,509.4868536219874,None,,,,,,,,,,,,,,,,None,None,None,,None,None,511.47214346099645,None,3,1,1.1359455530182458,511.47214346099645,None,512.6033696499013,None,None,None,None,,14,001,2023_Jan_20_1054,searchDisc5,2021.2.3,59.98123930357988,
images/exp2c_trial_303_colour1_distractors1_l.png,l,1,1,1,0,,,,,0,54,54,54,,,,,,,,,,,,,,,,,,,,,,,,,,,,,,,,,,,,,,,,,,,512.6222662660002,None,2,2.1218832030135673,512.6222662660002,None,,,,,,,,,,,,,,,,None,None,None,,None,None,514.7869382170029,None,1,1,1.2536254640144762,514.7869382170029,None,516.0358565059083,None,None,None,None,,14,001,2023_Jan_20_1054,searchDisc5,2021.2.3,59.98123930357988,
images/exp2a_trial_315_colour3_distractors9_l.png,l,1,3,9,0,,,,,0,55,55,55,,,,,,,,,,,,,,,,,,,,,,,,,,,,,,,,,,,,,,,,,,,516.0523563399911,None,2,2.5882807509915438,516.0523563399911,None,,,,,,,,,,,,,,,,None,None,None,,None,None,518.6893299490039,None,1,1,0.9017349750210997,518.6893299490039,None,519.5849309428828,None,None,None,None,,14,001,2023_Jan_20_1054,searchDisc5,2021.2.3,59.98123930357988,
images/exp2b_trial_318_colour0_distractors0_r.png,r,3,0,0,0,,,,,0,56,56,56,,,,,,,,,,,,,,,,,,,,,,,,,,,,,,,,,,,,,,,,,,,519.6025689119997,None,2,3.2377928239875473,519.6025689119997,None,,,,,,,,,,,,,,,,None,None,None,,None,None,522.8887266500096,None,3,1,1.704753818019526,522.8887266500096,None,524.5859400659043,None,None,None,None,,14,001,2023_Jan_20_1054,searchDisc5,2021.2.3,59.98123930357988,
images/exp1a_trial_165_colour2_distractors1_r.png,r,3,2,1,0,,,,,0,57,57,57,,,,,,,,,,,,,,,,,,,,,,,,,,,,,,,,,,,,,,,,,,,524.6039528890105,None,2,1.5042591950041242,524.6039528890105,None,,,,,,,,,,,,,,,,None,None,None,,None,None,526.1541399080015,None,3,1,0.9061692529940046,526.1541399080015,None,527.0526653208887,None,None,None,None,,14,001,2023_Jan_20_1054,searchDisc5,2021.2.3,59.98123930357988,
images/exp2c_trial_102_colour2_distractors4_r.png,r,3,2,4,0,,,,,0,58,58,58,,,,,,,,,,,,,,,,,,,,,,,,,,,,,,,,,,,,,,,,,,,527.0696153749886,None,2,1.2368842890136875,527.0696153749886,None,,,,,,,,,,,,,,,,None,None,None,,None,None,528.3539089399856,None,3,1,0.7870057539839763,528.3539089399856,None,529.1353751138901,None,None,None,None,,14,001,2023_Jan_20_1054,searchDisc5,2021.2.3,59.98123930357988,
images/exp2c_trial_130_colour1_distractors9_r.png,r,3,1,9,0,,,,,0,59,59,59,,,,,,,,,,,,,,,,,,,,,,,,,,,,,,,,,,,,,,,,,,,529.1551711579959,None,2,1.388433755026199,529.1551711579959,None,,,,,,,,,,,,,,,,None,None,None,,None,None,530.5894361700048,None,3,1,0.8022546469874214,530.5894361700048,None,531.3861377139052,None,None,None,None,,14,001,2023_Jan_20_1054,searchDisc5,2021.2.3,59.98123930357988,
images/exp2b_trial_174_colour3_distractors31_r.png,r,3,3,31,0,,,,,0,60,60,60,,,,,,,,,,,,,,,,,,,,,,,,,,,,,,,,,,,,,,,,,,,531.4036680310091,None,2,1.3887752209848259,531.4036680310091,None,,,,,,,,,,,,,,,,None,None,None,,None,None,532.8370338979876,None,3,1,0.8198513300158083,532.8370338979876,None,533.6553061169049,None,None,None,None,,14,001,2023_Jan_20_1054,searchDisc5,2021.2.3,59.98123930357988,
images/exp2a_trial_50_colour1_distractors19_l.png,l,1,1,19,0,,,,,0,61,61,61,,,,,,,,,,,,,,,,,,,,,,,,,,,,,,,,,,,,,,,,,,,533.6726822729979,None,2,1.534733457985567,533.6726822729979,None,,,,,,,,,,,,,,,,None,None,None,,None,None,535.2533708600095,None,1,1,0.9995024829986505,535.2533708600095,None,536.2527846629033,None,None,None,None,,14,001,2023_Jan_20_1054,searchDisc5,2021.2.3,59.98123930357988,
images/exp1a_trial_230_colour2_distractors4_r.png,r,3,2,4,0,,,,,0,62,62,62,,,,,,,,,,,,,,,,,,,,,,,,,,,,,,,,,,,,,,,,,,,536.2707369849959,None,2,1.4060127999982797,536.2707369849959,None,,,,,,,,,,,,,,,,None,None,None,,None,None,537.7206434590044,None,3,1,1.0181088570097927,537.7206434590044,None,538.7361838848971,None,None,None,None,,14,001,2023_Jan_20_1054,searchDisc5,2021.2.3,59.98123930357988,
images/exp2c_trial_288_colour1_distractors1_r.png,r,3,1,1,0,,,,,0,63,63,63,,,,,,,,,,,,,,,,,,,,,,,,,,,,,,,,,,,,,,,,,,,538.7535452670127,None,2,1.6401191530167125,538.7535452670127,None,,,,,,,,,,,,,,,,None,None,None,,None,None,540.4389811930014,None,3,1,0.7869265600165818,540.4389811930014,None,541.2205826188962,None,None,None,None,,14,001,2023_Jan_20_1054,searchDisc5,2021.2.3,59.98123930357988,
images/exp2a_trial_276_colour2_distractors1_l.png,l,1,2,1,0,,,,,0,64,64,64,,,,,,,,,,,,,,,,,,,,,,,,,,,,,,,,,,,,,,,,,,,541.2372511769936,None,2,1.7371066520281602,541.2372511769936,None,,,,,,,,,,,,,,,,None,None,None,,None,None,543.0206682700082,None,1,1,0.9368856319924816,543.0206682700082,None,543.9530143798853,None,None,None,None,,14,001,2023_Jan_20_1054,searchDisc5,2021.2.3,59.98123930357988,
images/exp2b_trial_60_colour3_distractors19_l.png,l,1,3,19,0,,,,,0,65,65,65,,,,,,,,,,,,,,,,,,,,,,,,,,,,,,,,,,,,,,,,,,,543.9707891609869,None,2,1.5871160030073952,543.9707891609869,None,,,,,,,,,,,,,,,,None,None,None,,None,None,545.6056991170044,None,1,1,0.853115339006763,545.6056991170044,None,546.4533544578823,None,None,None,None,,14,001,2023_Jan_20_1054,searchDisc5,2021.2.3,59.98123930357988,
images/exp1a_trial_182_colour2_distractors9_l.png,l,1,2,9,0,,,,,0,66,66,66,,,,,,,,,,,,,,,,,,,,,,,,,,,,,,,,,,,,,,,,,,,546.4722109480062,None,2,1.3044928300078027,546.4722109480062,None,,,,,,,,,,,,,,,,None,None,None,,None,None,547.8206751910038,None,1,1,0.8352793630037922,547.8206751910038,None,548.6532581018924,None,None,None,None,,14,001,2023_Jan_20_1054,searchDisc5,2021.2.3,59.98123930357988,
images/exp2c_trial_318_colour0_distractors0_r.png,r,3,0,0,0,,,,,0,67,67,67,,,,,,,,,,,,,,,,,,,,,,,,,,,,,,,,,,,,,,,,,,,548.6701698009856,None,2,1.554010006977478,548.6701698009856,None,,,,,,,,,,,,,,,,None,None,None,,None,None,550.2725529359886,None,3,1,0.8239361669984646,550.2725529359886,None,551.0867177938868,None,None,None,None,,14,001,2023_Jan_20_1054,searchDisc5,2021.2.3,59.98123930357988,
images/exp2c_trial_66_colour1_distractors9_r.png,r,3,1,9,0,,,,,0,68,68,68,,,,,,,,,,,,,,,,,,,,,,,,,,,,,,,,,,,,,,,,,,,551.1027792090026,None,2,1.9573623559845146,551.1027792090026,None,,,,,,,,,,,,,,,,None,None,None,,None,None,553.1048361579888,None,3,1,0.8157148589962162,553.1048361579888,None,553.9198676639004,None,None,None,None,,14,001,2023_Jan_20_1054,searchDisc5,2021.2.3,59.98123930357988,
images/exp2c_trial_212_colour2_distractors1_l.png,l,1,2,1,0,,,,,0,69,69,69,,,,,,,,,,,,,,,,,,,,,,,,,,,,,,,,,,,,,,,,,,,553.9369161640061,None,2,1.689863705978496,553.9369161640061,None,,,,,,,,,,,,,,,,None,None,None,,None,None,555.6711655500112,None,1,1,0.7688346310169436,555.6711655500112,None,556.4365201758861,None,None,None,None,,14,001,2023_Jan_20_1054,searchDisc5,2021.2.3,59.98123930357988,
images/exp2b_trial_8_colour2_distractors19_r.png,r,3,2,19,0,,,,,0,70,70,70,,,,,,,,,,,,,,,,,,,,,,,,,,,,,,,,,,,,,,,,,,,556.4539612010121,None,2,1.5390473250008654,556.4539612010121,None,,,,,,,,,,,,,,,,None,None,None,,None,None,558.0402050179837,None,3,1,0.8511327060114127,558.0402050179837,None,558.8868795908871,None,None,None,None,,14,001,2023_Jan_20_1054,searchDisc5,2021.2.3,59.98123930357988,
images/exp1a_trial_238_colour3_distractors31_r.png,r,3,3,31,0,,,,,0,71,71,71,,,,,,,,,,,,,,,,,,,,,,,,,,,,,,,,,,,,,,,,,,,558.9037509390037,None,2,1.7233772779873107,558.9037509390037,None,,,,,,,,,,,,,,,,None,None,None,,None,None,560.6698513499869,None,3,1,1.1124633669969626,560.6698513499869,None,561.7867369758839,None,None,None,None,,14,001,2023_Jan_20_1054,searchDisc5,2021.2.3,59.98123930357988,
images/exp1a_trial_107_colour3_distractors4_r.png,r,3,3,4,0,,,,,0,72,72,72,,,,,,,,,,,,,,,,,,,,,,,,,,,,,,,,,,,,,,,,,,,561.8058783769957,None,2,1.4873801830108277,561.8058783769957,None,,,,,,,,,,,,,,,,None,None,None,,None,None,563.3374321839947,None,3,1,0.9535506659885868,563.3374321839947,None,564.2868884809083,None,None,None,None,,14,001,2023_Jan_20_1054,searchDisc5,2021.2.3,59.98123930357988,
images/exp2c_trial_123_colour3_distractors9_l.png,l,1,3,9,0,,,,,0,73,73,73,,,,,,,,,,,,,,,,,,,,,,,,,,,,,,,,,,,,,,,,,,,564.3068907170091,None,2,1.4887317619868554,564.3068907170091,None,,,,,,,,,,,,,,,,None,None,None,,None,None,565.8404829860083,None,1,1,0.9189069609856233,565.8404829860083,None,566.7539045368845,None,None,None,None,,14,001,2023_Jan_20_1054,searchDisc5,2021.2.3,59.98123930357988,
images/exp2a_trial_128_colour1_distractors1_r.png,r,3,1,1,0,,,,,0,74,74,74,,,,,,,,,,,,,,,,,,,,,,,,,,,,,,,,,,,,,,,,,,,566.7706077320036,None,2,1.487790077982936,566.7706077320036,None,,,,,,,,,,,,,,,,None,None,None,,None,None,568.3053695450071,None,3,1,0.8052692939818371,568.3053695450071,None,569.1037693759077,None,None,None,None,,14,001,2023_Jan_20_1054,searchDisc5,2021.2.3,59.98123930357988,
images/exp2c_trial_156_colour3_distractors19_l.png,l,1,3,19,0,,,,,0,75,75,75,,,,,,,,,,,,,,,,,,,,,,,,,,,,,,,,,,,,,,,,,,,569.1214775079861,None,2,1.8718799890193623,569.1214775079861,None,,,,,,,,,,,,,,,,None,None,None,,None,None,571.0378809350077,None,1,1,1.1679510970134288,571.0378809350077,None,572.2038861148991,None,None,None,None,,14,001,2023_Jan_20_1054,searchDisc5,2021.2.3,59.98123930357988,
images/exp2c_trial_215_colour2_distractors19_l.png,l,1,2,19,0,,,,,0,76,76,76,,,,,,,,,,,,,,,,,,,,,,,,,,,,,,,,,,,,,,,,,,,572.223800332984,None,2,1.5876371540070977,572.223800332984,None,,,,,,,,,,,,,,,,None,None,None,,None,None,573.8553181950119,None,1,1,0.9020289210020564,573.8553181950119,None,574.7537123938906,None,None,None,None,,14,001,2023_Jan_20_1054,searchDisc5,2021.2.3,59.98123930357988,
images/exp2b_trial_315_colour3_distractors9_l.png,l,1,3,9,0,,,,,0,77,77,77,,,,,,,,,,,,,,,,,,,,,,,,,,,,,,,,,,,,,,,,,,,574.7713207950001,None,2,1.7562804479966871,574.7713207950001,None,,,,,,,,,,,,,,,,None,None,None,,None,None,576.5733062750078,None,1,1,0.8687241360021289,576.5733062750078,None,577.43738726491,None,None,None,None,,14,001,2023_Jan_20_1054,searchDisc5,2021.2.3,59.98123930357988,
images/exp1a_trial_158_colour0_distractors0_r.png,r,3,0,0,0,,,,,0,78,78,78,,,,,,,,,,,,,,,,,,,,,,,,,,,,,,,,,,,,,,,,,,,577.4549484349845,None,2,1.8044814250024501,577.4549484349845,None,,,,,,,,,,,,,,,,None,None,None,,None,None,579.3069017840025,None,3,1,0.8391538260038942,579.3069017840025,None,580.1384084538964,None,None,None,None,,14,001,2023_Jan_20_1054,searchDisc5,2021.2.3,59.98123930357988,
images/exp2c_trial_18_colour1_distractors19_l.png,l,1,1,19,0,,,,,0,79,79,79,,,,,,,,,,,,,,,,,,,,,,,,,,,,,,,,,,,,,,,,,,,580.155151709012,None,2,1.7699611830175854,580.155151709012,None,,,,,,,,,,,,,,,,None,None,None,,None,None,581.9712893260003,None,1,1,0.8691956409893464,581.9712893260003,None,582.8385646948824,None,None,None,None,,14,001,2023_Jan_20_1054,searchDisc5,2021.2.3,59.98123930357988,
images/exp2c_trial_226_colour1_distractors9_r.png,r,3,1,9,0,,,,,0,80,80,80,,,,,,,,,,,,,,,,,,,,,,,,,,,,,,,,,,,,,,,,,,,582.8549647509935,None,2,1.7367918209929485,582.8549647509935,None,,,,,,,,,,,,,,,,None,None,None,,None,None,584.6411099169927,None,3,1,0.8526654609886464,584.6411099169927,None,585.4871538999083,None,None,None,None,,14,001,2023_Jan_20_1054,searchDisc5,2021.2.3,59.98123930357988,
images/exp2b_trial_96_colour1_distractors1_r.png,r,3,1,1,0,,,,,0,81,81,81,,,,,,,,,,,,,,,,,,,,,,,,,,,,,,,,,,,,,,,,,,,585.504814719985,None,2,1.6412834910152014,585.504814719985,None,,,,,,,,,,,,,,,,None,None,None,,None,None,587.1906597079942,None,3,1,0.8370974019926507,587.1906597079942,None,588.0208989948966,None,None,None,None,,14,001,2023_Jan_20_1054,searchDisc5,2021.2.3,59.98123930357988,
images/exp2c_trial_244_colour2_distractors1_l.png,l,1,2,1,0,,,,,0,82,82,82,,,,,,,,,,,,,,,,,,,,,,,,,,,,,,,,,,,,,,,,,,,588.0388773409941,None,2,2.035541249002563,588.0388773409941,None,,,,,,,,,,,,,,,,None,None,None,,None,None,590.1226007179939,None,1,1,0.8727358720207121,590.1226007179939,None,590.9877761838958,None,None,None,None,,14,001,2023_Jan_20_1054,searchDisc5,2021.2.3,59.98123930357988,
images/exp2a_trial_288_colour1_distractors1_r.png,r,3,1,1,0,,,,,0,83,83,83,,,,,,,,,,,,,,,,,,,,,,,,,,,,,,,,,,,,,,,,,,,591.0046928389929,None,2,1.7696814659866504,591.0046928389929,None,,,,,,,,,,,,,,,,None,None,None,,None,None,592.8223988219979,None,3,1,0.821886227990035,592.8223988219979,None,593.6378500559018,None,None,None,None,,14,001,2023_Jan_20_1054,searchDisc5,2021.2.3,59.98123930357988,
images/exp2a_trial_142_colour3_distractors31_r.png,r,3,3,31,0,,,,,0,84,84,84,,,,,,,,,,,,,,,,,,,,,,,,,,,,,,,,,,,,,,,,,,,593.6559278049972,None,2,1.573276454990264,593.6559278049972,None,,,,,,,,,,,,,,,,None,None,None,,None,None,595.2714892569929,None,3,1,0.9988657750072889,595.2714892569929,None,596.271263462893,None,None,None,None,,14,001,2023_Jan_20_1054,searchDisc5,2021.2.3,59.98123930357988,
images/exp2a_trial_108_colour3_distractors9_r.png,r,3,3,9,0,,,,,0,85,85,85,,,,,,,,,,,,,,,,,,,,,,,,,,,,,,,,,,,,,,,,,,,596.2883050509845,None,2,1.6885534050234128,596.2883050509845,None,,,,,,,,,,,,,,,,None,None,None,,None,None,598.0221571740112,None,3,1,0.8187075159803499,598.0221571740112,None,598.8381469788961,None,None,None,None,,14,001,2023_Jan_20_1054,searchDisc5,2021.2.3,59.98123930357988,
images/exp2b_trial_198_colour2_distractors4_r.png,r,3,2,4,0,,,,,0,86,86,86,,,,,,,,,,,,,,,,,,,,,,,,,,,,,,,,,,,,,,,,,,,598.8568912580085,None,2,1.6543866970168892,598.8568912580085,None,,,,,,,,,,,,,,,,None,None,None,,None,None,600.5559199760028,None,3,1,0.8867725449963473,600.5559199760028,None,601.4379897589039,None,None,None,None,,14,001,2023_Jan_20_1054,searchDisc5,2021.2.3,59.98123930357988,
images/exp2a_trial_31_colour0_distractors0_l.png,l,1,0,0,0,,,,,0,87,87,87,,,,,,,,,,,,,,,,,,,,,,,,,,,,,,,,,,,,,,,,,,,601.4549448140024,None,2,1.8074498579953797,601.4549448140024,None,,,,,,,,,,,,,,,,None,None,None,,None,None,603.3075390279992,None,1,1,0.9352446580014657,603.3075390279992,None,604.2381666008965,None,None,None,None,,14,001,2023_Jan_20_1054,searchDisc5,2021.2.3,59.98123930357988,
images/exp2b_trial_101_colour2_distractors1_r.png,r,3,2,1,0,,,,,0,88,88,88,,,,,,,,,,,,,,,,,,,,,,,,,,,,,,,,,,,,,,,,,,,604.2560606400075,None,2,1.6250589870032854,604.2560606400075,None,,,,,,,,,,,,,,,,None,None,None,,None,None,605.9213688680029,None,3,1,0.8328020389890298,605.9213688680029,None,606.7540585269104,None,None,None,None,,14,001,2023_Jan_20_1054,searchDisc5,2021.2.3,59.98123930357988,
images/exp2c_trial_23_colour2_distractors19_l.png,l,1,2,19,0,,,,,0,89,89,89,,,,,,,,,,,,,,,,,,,,,,,,,,,,,,,,,,,,,,,,,,,606.7726649940014,None,2,1.5049897030112334,606.7726649940014,None,,,,,,,,,,,,,,,,None,None,None,,None,None,608.3223543550121,None,1,1,0.9059234099986497,608.3223543550121,None,609.2226241508848,None,None,None,None,,14,001,2023_Jan_20_1054,searchDisc5,2021.2.3,59.98123930357988,
images/exp2c_trial_191_colour0_distractors0_l.png,l,1,0,0,0,,,,,0,90,90,90,,,,,,,,,,,,,,,,,,,,,,,,,,,,,,,,,,,,,,,,,,,609.2412767180067,None,2,1.8702729099895805,609.2412767180067,None,,,,,,,,,,,,,,,,None,None,None,,None,None,611.1582732189854,None,1,1,0.8856875970086548,611.1582732189854,None,612.0384270568844,None,None,None,None,,14,001,2023_Jan_20_1054,searchDisc5,2021.2.3,59.98123930357988,
images/exp2a_trial_165_colour2_distractors1_r.png,r,3,2,1,0,,,,,0,91,91,91,,,,,,,,,,,,,,,,,,,,,,,,,,,,,,,,,,,,,,,,,,,612.0561731380003,None,2,1.8043177200015634,612.0561731380003,None,,,,,,,,,,,,,,,,None,None,None,,None,None,613.908640728012,None,3,1,0.8208457569999155,613.908640728012,None,614.7218667888898,None,None,None,None,,14,001,2023_Jan_20_1054,searchDisc5,2021.2.3,59.98123930357988,
images/exp2a_trial_14_colour3_distractors31_r.png,r,3,3,31,0,,,,,0,92,92,92,,,,,,,,,,,,,,,,,,,,,,,,,,,,,,,,,,,,,,,,,,,614.7385639410059,None,2,1.8389476620068308,614.7385639410059,None,,,,,,,,,,,,,,,,None,None,None,,None,None,616.6249312509899,None,3,1,0.8512156539945863,616.6249312509899,None,617.4717920258933,None,None,None,None,,14,001,2023_Jan_20_1054,searchDisc5,2021.2.3,59.98123930357988,
images/exp2c_trial_267_colour3_distractors4_r.png,r,3,3,4,0,,,,,0,93,93,93,,,,,,,,,,,,,,,,,,,,,,,,,,,,,,,,,,,,,,,,,,,617.4886037989927,None,2,1.769565449008951,617.4886037989927,None,,,,,,,,,,,,,,,,None,None,None,,None,None,619.3079870640067,None,3,1,1.2550039830093738,619.3079870640067,None,620.5552694358863,None,None,None,None,,14,001,2023_Jan_20_1054,searchDisc5,2021.2.3,59.98123930357988,
images/exp2c_trial_230_colour2_distractors4_r.png,r,3,2,4,0,,,,,0,94,94,94,,,,,,,,,,,,,,,,,,,,,,,,,,,,,,,,,,,,,,,,,,,620.572928034002,None,2,1.5386514670099132,620.572928034002,None,,,,,,,,,,,,,,,,None,None,None,,None,None,622.1583051449852,None,3,1,0.8205610580043867,622.1583051449852,None,622.9720278858964,None,None,None,None,,14,001,2023_Jan_20_1054,searchDisc5,2021.2.3,59.98123930357988,
images/exp2b_trial_299_colour3_distractors4_r.png,r,3,3,4,0,,,,,0,95,95,95,,,,,,,,,,,,,,,,,,,,,,,,,,,,,,,,,,,,,,,,,,,622.9881626660062,None,2,1.7399904199992307,622.9881626660062,None,,,,,,,,,,,,,,,,None,None,None,,None,None,624.7730517029995,None,3,1,0.8192095030099154,624.7730517029995,None,625.5896327109018,None,None,None,None,,14,001,2023_Jan_20_1054,searchDisc5,2021.2.3,59.98123930357988,
images/exp2b_trial_162_colour1_distractors9_r.png,r,3,1,9,0,,,,,0,96,96,96,,,,,,,,,,,,,,,,,,,,,,,,,,,,,,,,,,,,,,,,,,,625.6056129439967,None,2,1.7036168669874314,625.6056129439967,None,,,,,,,,,,,,,,,,None,None,None,,None,None,627.355742099986,None,3,1,1.1194349059951492,627.355742099986,None,628.4723592278839,None,None,None,None,,14,001,2023_Jan_20_1054,searchDisc5,2021.2.3,59.98123930357988,
images/exp2a_trial_219_colour3_distractors9_l.png,l,1,3,9,0,,,,,0,97,97,97,,,,,,,,,,,,,,,,,,,,,,,,,,,,,,,,,,,,,,,,,,,628.4890889250091,None,2,1.3707216879993211,628.4890889250091,None,,,,,,,,,,,,,,,,None,None,None,,None,None,629.9060358960123,None,1,1,0.9368417870136909,629.9060358960123,None,630.8387722799031,None,None,None,None,,14,001,2023_Jan_20_1054,searchDisc5,2021.2.3,59.98123930357988,
images/exp2a_trial_100_colour1_distractors31_r.png,r,3,1,31,0,,,,,0,98,98,98,,,,,,,,,,,,,,,,,,,,,,,,,,,,,,,,,,,,,,,,,,,630.8555686739855,None,2,1.5539663580129854,630.8555686739855,None,,,,,,,,,,,,,,,,None,None,None,,None,None,632.4579695920111,None,3,1,0.8853138799895532,632.4579695920111,None,633.3400367468945,None,None,None,None,,14,001,2023_Jan_20_1054,searchDisc5,2021.2.3,59.98123930357988,
images/exp2a_trial_254_colour0_distractors0_r.png,r,3,0,0,0,,,,,0,99,99,99,,,,,,,,,,,,,,,,,,,,,,,,,,,,,,,,,,,,,,,,,,,633.356311615993,None,2,1.6054891569947358,633.356311615993,None,,,,,,,,,,,,,,,,None,None,None,,None,None,635.0083714979992,None,3,1,0.8195291069860104,635.0083714979992,None,635.8222529659048,None,None,None,None,,14,001,2023_Jan_20_1054,searchDisc5,2021.2.3,59.98123930357988,
images/exp2a_trial_191_colour0_distractors0_l.png,l,1,0,0,0,,,,,0,100,100,100,,,,,,,,,,,,,,,,,,,,,,,,,,,,,,,,,,,,,,,,,,,635.8419771199988,None,2,1.4563608880271204,635.8419771199988,None,,,,,,,,,,,,,,,,None,None,None,,None,None,637.3400592360122,None,1,1,0.9212575940182433,637.3400592360122,None,638.2567771098926,None,None,None,None,,14,001,2023_Jan_20_1054,searchDisc5,2021.2.3,59.98123930357988,
images/exp2c_trial_233_colour2_distractors31_r.png,r,3,2,31,0,,,,,0,101,101,101,,,,,,,,,,,,,,,,,,,,,,,,,,,,,,,,,,,,,,,,,,,638.2724812050001,None,2,1.53717690097983,638.2724812050001,None,,,,,,,,,,,,,,,,None,None,None,,None,None,639.8589165490121,None,3,1,0.9328090519993566,639.8589165490121,None,640.789138107904,None,None,None,None,,14,001,2023_Jan_20_1054,searchDisc5,2021.2.3,59.98123930357988,
images/exp1a_trial_281_colour3_distractors1_l.png,l,1,3,1,0,,,,,0,102,102,102,,,,,,,,,,,,,,,,,,,,,,,,,,,,,,,,,,,,,,,,,,,640.8068884469976,None,2,1.6041315110051073,640.8068884469976,None,,,,,,,,,,,,,,,,None,None,None,,None,None,642.4567319900088,None,1,1,0.9054535139875952,642.4567319900088,None,643.3558714408952,None,None,None,None,,14,001,2023_Jan_20_1054,searchDisc5,2021.2.3,59.98123930357988,
images/exp1a_trial_160_colour1_distractors1_r.png,r,3,1,1,0,,,,,0,103,103,103,,,,,,,,,,,,,,,,,,,,,,,,,,,,,,,,,,,,,,,,,,,643.372478225996,None,2,1.588896526984172,643.372478225996,None,,,,,,,,,,,,,,,,None,None,None,,None,None,645.0084062689857,None,3,1,0.8535165019857232,645.0084062689857,None,645.8569878209033,None,None,None,None,,14,001,2023_Jan_20_1054,searchDisc5,2021.2.3,59.98123930357988,
images/exp2a_trial_113_colour1_distractors9_l.png,l,1,1,9,0,,,,,0,104,104,104,,,,,,,,,,,,,,,,,,,,,,,,,,,,,,,,,,,,,,,,,,,645.8735744380101,None,2,1.637340529996436,645.8735744380101,None,,,,,,,,,,,,,,,,None,None,None,,None,None,647.559341256012,None,1,1,1.2363825110078324,647.559341256012,None,648.7892898399092,None,None,None,None,,14,001,2023_Jan_20_1054,searchDisc5,2021.2.3,59.98123930357988,
images/exp1a_trial_142_colour3_distractors31_r.png,r,3,3,31,0,,,,,0,105,105,105,,,,,,,,,,,,,,,,,,,,,,,,,,,,,,,,,,,,,,,,,,,648.806853793998,None,2,1.5065709300106391,648.806853793998,None,,,,,,,,,,,,,,,,None,None,None,,None,None,650.356345267006,None,3,1,0.8298134740034584,650.356345267006,None,651.1894115428964,None,None,None,None,,14,001,2023_Jan_20_1054,searchDisc5,2021.2.3,59.98123930357988,
images/exp1a_trial_30_colour0_distractors0_r.png,r,3,0,0,0,,,,,0,106,106,106,,,,,,,,,,,,,,,,,,,,,,,,,,,,,,,,,,,,,,,,,,,651.2071483419859,None,2,1.587638261000393,651.2071483419859,None,,,,,,,,,,,,,,,,None,None,None,,None,None,652.8398814139946,None,3,1,1.022651121020317,652.8398814139946,None,653.8565635929059,None,None,None,None,,14,001,2023_Jan_20_1054,searchDisc5,2021.2.3,59.98123930357988,
images/exp2a_trial_115_colour1_distractors31_l.png,l,1,1,31,0,,,,,0,107,107,107,,,,,,,,,,,,,,,,,,,,,,,,,,,,,,,,,,,,,,,,,,,653.8742246830079,None,2,1.7385466910200194,653.8742246830079,None,,,,,,,,,,,,,,,,None,None,None,,None,None,655.6573597110109,None,1,1,0.9666225300170481,655.6573597110109,None,656.6231120779063,None,None,None,None,,14,001,2023_Jan_20_1054,searchDisc5,2021.2.3,59.98123930357988,
images/exp2b_trial_172_colour3_distractors9_r.png,r,3,3,9,0,,,,,0,108,108,108,,,,,,,,,,,,,,,,,,,,,,,,,,,,,,,,,,,,,,,,,,,656.6397303139966,None,2,1.7538757959846407,656.6397303139966,None,,,,,,,,,,,,,,,,None,None,None,,None,None,658.4426070229965,None,3,1,1.054968105017906,658.4426070229965,None,659.4908235078852,None,None,None,None,,14,001,2023_Jan_20_1054,searchDisc5,2021.2.3,59.98123930357988,
images/exp2c_trial_264_colour2_distractors19_r.png,r,3,2,19,0,,,,,0,109,109,109,,,,,,,,,,,,,,,,,,,,,,,,,,,,,,,,,,,,,,,,,,,659.5076954929973,None,2,1.7202512990043033,659.5076954929973,None,,,,,,,,,,,,,,,,None,None,None,,None,None,661.2760707820125,None,3,1,1.0019284860172775,661.2760707820125,None,662.273304547905,None,None,None,None,,14,001,2023_Jan_20_1054,searchDisc5,2021.2.3,59.98123930357988,
images/exp2c_trial_63_colour0_distractors0_l.png,l,1,0,0,0,,,,,0,110,110,110,,,,,,,,,,,,,,,,,,,,,,,,,,,,,,,,,,,,,,,,,,,662.2907828880125,None,2,1.5718888099945616,662.2907828880125,None,,,,,,,,,,,,,,,,None,None,None,,None,None,663.908981206012,None,1,1,0.838990999996895,663.908981206012,None,664.7398105488916,None,None,None,None,,14,001,2023_Jan_20_1054,searchDisc5,2021.2.3,59.98123930357988,
images/exp2b_trial_103_colour2_distractors9_r.png,r,3,2,9,0,,,,,0,111,111,111,,,,,,,,,,,,,,,,,,,,,,,,,,,,,,,,,,,,,,,,,,,664.7563068020099,None,2,1.6379160340002272,664.7563068020099,None,,,,,,,,,,,,,,,,None,None,None,,None,None,666.4424490180099,None,3,1,1.569246294995537,666.4424490180099,None,668.0076930538868,None,None,None,None,,14,001,2023_Jan_20_1054,searchDisc5,2021.2.3,59.98123930357988,
images/exp2a_trial_227_colour1_distractors19_r.png,r,3,1,19,0,,,,,0,112,112,112,,,,,,,,,,,,,,,,,,,,,,,,,,,,,,,,,,,,,,,,,,,668.0244721269992,None,2,1.6699130540073384,668.0244721269992,None,,,,,,,,,,,,,,,,None,None,None,,None,None,669.7403992849868,None,3,1,0.8683586250117514,669.7403992849868,None,670.6068007368827,None,None,None,None,,14,001,2023_Jan_20_1054,searchDisc5,2021.2.3,59.98123930357988,
images/exp1a_trial_73_colour2_distractors31_r.png,r,3,2,31,0,,,,,0,113,113,113,,,,,,,,,,,,,,,,,,,,,,,,,,,,,,,,,,,,,,,,,,,670.6241424820037,None,2,1.8409519959823228,670.6241424820037,None,,,,,,,,,,,,,,,,None,None,None,,None,None,672.5124916629866,None,3,1,0.8446148649964016,672.5124916629866,None,673.3567745129054,None,None,None,None,,14,001,2023_Jan_20_1054,searchDisc5,2021.2.3,59.98123930357988,
images/exp2a_trial_135_colour2_distractors9_r.png,r,3,2,9,0,,,,,0,114,114,114,,,,,,,,,,,,,,,,,,,,,,,,,,,,,,,,,,,,,,,,,,,673.3736808449903,None,2,1.6713410920056049,673.3736808449903,None,,,,,,,,,,,,,,,,None,None,None,,None,None,675.0936209119973,None,3,1,0.7991973879979923,675.0936209119973,None,675.8903286438959,None,None,None,None,,14,001,2023_Jan_20_1054,searchDisc5,2021.2.3,59.98123930357988,
images/exp2a_trial_21_colour2_distractors4_l.png,l,1,2,4,0,,,,,0,115,115,115,,,,,,,,,,,,,,,,,,,,,,,,,,,,,,,,,,,,,,,,,,,675.9071379159868,None,2,1.6059387440036517,675.9071379159868,None,,,,,,,,,,,,,,,,None,None,None,,None,None,677.5587523329887,None,1,1,0.8514669430151116,677.5587523329887,None,678.4079713878979,None,None,None,None,,14,001,2023_Jan_20_1054,searchDisc5,2021.2.3,59.98123930357988,
images/exp1a_trial_92_colour3_distractors19_l.png,l,1,3,19,0,,,,,0,116,116,116,,,,,,,,,,,,,,,,,,,,,,,,,,,,,,,,,,,,,,,,,,,678.4236862520047,None,2,1.6878495659912005,678.4236862520047,None,,,,,,,,,,,,,,,,None,None,None,,None,None,680.1582578129892,None,1,1,0.9001527749933302,680.1582578129892,None,681.0569021858915,None,None,None,None,,14,001,2023_Jan_20_1054,searchDisc5,2021.2.3,59.98123930357988,
images/exp2c_trial_178_colour1_distractors19_l.png,l,1,1,19,0,,,,,0,117,117,117,,,,,,,,,,,,,,,,,,,,,,,,,,,,,,,,,,,,,,,,,,,681.0738826940069,None,2,1.8535095359839033,681.0738826940069,None,,,,,,,,,,,,,,,,None,None,None,,None,None,682.9733925749897,None,1,1,0.9523600130050909,682.9733925749897,None,683.9237569768972,None,None,None,None,,14,001,2023_Jan_20_1054,searchDisc5,2021.2.3,59.98123930357988,
images/exp2b_trial_119_colour2_distractors19_l.png,l,1,2,19,0,,,,,0,118,118,118,,,,,,,,,,,,,,,,,,,,,,,,,,,,,,,,,,,,,,,,,,,683.9413503549877,None,2,1.7237618649960496,683.9413503549877,None,,,,,,,,,,,,,,,,None,None,None,,None,None,685.7075971000013,None,1,1,0.9156598919944372,685.7075971000013,None,686.6239371128846,None,None,None,None,,14,001,2023_Jan_20_1054,searchDisc5,2021.2.3,59.98123930357988,
images/exp2b_trial_192_colour1_distractors1_r.png,r,3,1,1,0,,,,,0,119,119,119,,,,,,,,,,,,,,,,,,,,,,,,,,,,,,,,,,,,,,,,,,,686.6412880079879,None,2,1.704029659013031,686.6412880079879,None,,,,,,,,,,,,,,,,None,None,None,,None,None,688.391068736004,None,3,1,0.9563025400275365,688.391068736004,None,689.341595360887,None,None,None,None,,14,001,2023_Jan_20_1054,searchDisc5,2021.2.3,59.98123930357988,
images/exp2c_trial_105_colour2_distractors31_r.png,r,3,2,31,0,,,,,0,120,120,120,,,,,,,,,,,,,,,,,,,,,,,,,,,,,,,,,,,,,,,,,,,689.3565331269929,None,2,1.5739409939851612,689.3565331269929,None,,,,,,,,,,,,,,,,None,None,None,,None,None,690.977361355006,None,3,1,0.9302076160092838,690.977361355006,None,691.9071021268843,None,None,None,None,,14,001,2023_Jan_20_1054,searchDisc5,2021.2.3,59.98123930357988,
images/exp2a_trial_103_colour2_distractors9_r.png,r,3,2,9,0,,,,,0,121,121,121,,,,,,,,,,,,,,,,,,,,,,,,,,,,,,,,,,,,,,,,,,,691.9268997320032,None,2,1.5573124210059177,691.9268997320032,None,,,,,,,,,,,,,,,,None,None,None,,None,None,693.5278987129859,None,3,1,0.8474681759835221,693.5278987129859,None,694.3750216468994,None,None,None,None,,14,001,2023_Jan_20_1054,searchDisc5,2021.2.3,59.98123930357988,
images/exp2b_trial_205_colour3_distractors19_r.png,r,3,3,19,0,,,,,0,122,122,122,,,,,,,,,,,,,,,,,,,,,,,,,,,,,,,,,,,,,,,,,,,694.3927014959918,None,2,1.5543384250195231,694.3927014959918,None,,,,,,,,,,,,,,,,None,None,None,,None,None,695.9912671220081,None,3,1,0.8183723879919853,695.9912671220081,None,696.8075702138827,None,None,None,None,,14,001,2023_Jan_20_1054,searchDisc5,2021.2.3,59.98123930357988,
images/exp2c_trial_243_colour1_distractors31_l.png,l,1,1,31,0,,,,,0,123,123,123,,,,,,,,,,,,,,,,,,,,,,,,,,,,,,,,,,,,,,,,,,,696.8251576499897,None,2,1.7386137089924887,696.8251576499897,None,,,,,,,,,,,,,,,,None,None,None,,None,None,698.6087241710047,None,1,1,1.1845499410119373,698.6087241710047,None,699.7907711568929,None,None,None,None,,14,001,2023_Jan_20_1054,searchDisc5,2021.2.3,59.98123930357988,
images/exp1a_trial_58_colour3_distractors4_l.png,l,1,3,4,0,,,,,0,124,124,124,,,,,,,,,,,,,,,,,,,,,,,,,,,,,,,,,,,,,,,,,,,699.8104270799959,None,2,1.2719050790183246,699.8104270799959,None,,,,,,,,,,,,,,,,None,None,None,,None,None,701.1246928990004,None,1,1,1.036344961001305,701.1246928990004,None,702.1575774848985,None,None,None,None,,14,001,2023_Jan_20_1054,searchDisc5,2021.2.3,59.98123930357988,
images/exp2c_trial_299_colour3_distractors4_r.png,r,3,3,4,0,,,,,0,125,125,125,,,,,,,,,,,,,,,,,,,,,,,,,,,,,,,,,,,,,,,,,,,702.1744481789938,None,2,1.5211368879827205,702.1744481789938,None,,,,,,,,,,,,,,,,None,None,None,,None,None,703.7445679680095,None,3,1,1.0206975380133372,703.7445679680095,None,704.7576385018998,None,None,None,None,,14,001,2023_Jan_20_1054,searchDisc5,2021.2.3,59.98123930357988,
images/exp2c_trial_115_colour1_distractors31_l.png,l,1,1,31,0,,,,,0,126,126,126,,,,,,,,,,,,,,,,,,,,,,,,,,,,,,,,,,,,,,,,,,,704.7757752719917,None,2,1.4573833209869917,704.7757752719917,None,,,,,,,,,,,,,,,,None,None,None,,None,None,706.2769357080106,None,1,1,0.8997377089981455,706.2769357080106,None,707.1762495508825,None,None,None,None,,14,001,2023_Jan_20_1054,searchDisc5,2021.2.3,59.98123930357988,
images/exp2a_trial_252_colour3_distractors19_l.png,l,1,3,19,0,,,,,0,127,127,127,,,,,,,,,,,,,,,,,,,,,,,,,,,,,,,,,,,,,,,,,,,707.1932357680053,None,2,1.3200942389958072,707.1932357680053,None,,,,,,,,,,,,,,,,None,None,None,,None,None,708.5573788819893,None,1,1,1.0178015660203528,708.5573788819893,None,709.5744370979024,None,None,None,None,,14,001,2023_Jan_20_1054,searchDisc5,2021.2.3,59.98123930357988,
images/exp2c_trial_85_colour2_distractors4_l.png,l,1,2,4,0,,,,,0,128,128,128,,,,,,,,,,,,,,,,,,,,,,,,,,,,,,,,,,,,,,,,,,,709.5934994019917,None,2,1.4543082760064863,709.5934994019917,None,,,,,,,,,,,,,,,,None,None,None,,None,None,711.091592140001,None,1,1,1.0207300889887847,711.091592140001,None,712.1077607748972,None,None,None,None,,14,001,2023_Jan_20_1054,searchDisc5,2021.2.3,59.98123930357988,
images/exp1a_trial_5_colour2_distractors1_r.png,r,3,2,1,0,,,,,0,129,129,129,,,,,,,,,,,,,,,,,,,,,,,,,,,,,,,,,,,,,,,,,,,712.125430688,None,2,1.638958169001853,712.125430688,None,,,,,,,,,,,,,,,,None,None,None,,None,None,713.8091654810123,None,3,1,0.8867389390070457,713.8091654810123,None,714.6912440858956,None,None,None,None,,14,001,2023_Jan_20_1054,searchDisc5,2021.2.3,59.98123930357988,
images/exp2c_trial_79_colour1_distractors1_l.png,l,1,1,1,0,,,,,0,130,130,130,,,,,,,,,,,,,,,,,,,,,,,,,,,,,,,,,,,,,,,,,,,714.7111084479839,None,2,1.4709133509895764,714.7111084479839,None,,,,,,,,,,,,,,,,None,None,None,,None,None,716.2247113049962,None,1,1,0.8724103910208214,716.2247113049962,None,717.0912849488901,None,None,None,None,,14,001,2023_Jan_20_1054,searchDisc5,2021.2.3,59.98123930357988,
images/exp2c_trial_201_colour2_distractors31_r.png,r,3,2,31,0,,,,,0,131,131,131,,,,,,,,,,,,,,,,,,,,,,,,,,,,,,,,,,,,,,,,,,,717.1090807459841,None,2,1.6229184590047225,717.1090807459841,None,,,,,,,,,,,,,,,,None,None,None,,None,None,718.7772939169954,None,3,1,1.0338316400011536,718.7772939169954,None,719.8090012989065,None,None,None,None,,14,001,2023_Jan_20_1054,searchDisc5,2021.2.3,59.98123930357988,
images/exp2a_trial_76_colour3_distractors9_r.png,r,3,3,9,0,,,,,0,132,132,132,,,,,,,,,,,,,,,,,,,,,,,,,,,,,,,,,,,,,,,,,,,719.82494825701,None,2,1.437935836991528,719.82494825701,None,,,,,,,,,,,,,,,,None,None,None,,None,None,721.3094608399842,None,3,1,0.9689056790084578,721.3094608399842,None,722.2748165388999,None,None,None,None,,14,001,2023_Jan_20_1054,searchDisc5,2021.2.3,59.98123930357988,
images/exp2b_trial_285_colour3_distractors31_l.png,l,1,3,31,0,,,,,0,133,133,133,,,,,,,,,,,,,,,,,,,,,,,,,,,,,,,,,,,,,,,,,,,722.2924261050066,None,2,1.505221300991252,722.2924261050066,None,,,,,,,,,,,,,,,,None,None,None,,None,None,723.8432727809995,None,1,1,1.018050704995403,723.8432727809995,None,724.8591290519049,None,None,None,None,,14,001,2023_Jan_20_1054,searchDisc5,2021.2.3,59.98123930357988,
images/exp2b_trial_277_colour2_distractors4_l.png,l,1,2,4,0,,,,,0,134,134,134,,,,,,,,,,,,,,,,,,,,,,,,,,,,,,,,,,,,,,,,,,,724.8780773949984,None,2,1.622141127998475,724.8780773949984,None,,,,,,,,,,,,,,,,None,None,None,,None,None,726.5423229509906,None,1,1,0.9187375509936828,726.5423229509906,None,727.4584373359045,None,None,None,None,,14,001,2023_Jan_20_1054,searchDisc5,2021.2.3,59.98123930357988,
images/exp1a_trial_29_colour3_distractors31_l.png,l,1,3,31,0,,,,,0,135,135,135,,,,,,,,,,,,,,,,,,,,,,,,,,,,,,,,,,,,,,,,,,,727.4760213019908,None,2,1.5060589720087592,727.4760213019908,None,,,,,,,,,,,,,,,,None,None,None,,None,None,729.0253778809856,None,1,1,0.9654976419988088,729.0253778809856,None,729.991684102884,None,None,None,None,,14,001,2023_Jan_20_1054,searchDisc5,2021.2.3,59.98123930357988,
images/exp2a_trial_170_colour3_distractors1_r.png,r,3,3,1,0,,,,,0,136,136,136,,,,,,,,,,,,,,,,,,,,,,,,,,,,,,,,,,,,,,,,,,,730.009520978987,None,2,1.4898349129944108,730.009520978987,None,,,,,,,,,,,,,,,,None,None,None,,None,None,731.5431658379966,None,3,1,0.9345557869819459,731.5431658379966,None,732.4751680669084,None,None,None,None,,14,001,2023_Jan_20_1054,searchDisc5,2021.2.3,59.98123930357988,
images/exp2c_trial_174_colour3_distractors31_r.png,r,3,3,31,0,,,,,0,137,137,137,,,,,,,,,,,,,,,,,,,,,,,,,,,,,,,,,,,,,,,,,,,732.4919267359946,None,2,1.62235635399702,732.4919267359946,None,,,,,,,,,,,,,,,,None,None,None,,None,None,734.1615122770017,None,3,1,1.0317752010014374,734.1615122770017,None,735.1918989648926,None,None,None,None,,14,001,2023_Jan_20_1054,searchDisc5,2021.2.3,59.98123930357988,
images/exp2b_trial_295_colour2_distractors9_r.png,r,3,2,9,0,,,,,0,138,138,138,,,,,,,,,,,,,,,,,,,,,,,,,,,,,,,,,,,,,,,,,,,735.2096471289988,None,2,1.4042899379855953,735.2096471289988,None,,,,,,,,,,,,,,,,None,None,None,,None,None,736.6590425139875,None,3,1,1.0197806009964552,736.6590425139875,None,737.6754574068997,None,None,None,None,,14,001,2023_Jan_20_1054,searchDisc5,2021.2.3,59.98123930357988,
images/exp2a_trial_163_colour1_distractors19_r.png,r,3,1,19,0,,,,,0,139,139,139,,,,,,,,,,,,,,,,,,,,,,,,,,,,,,,,,,,,,,,,,,,737.6950785240042,None,2,1.5067708079877775,737.6950785240042,None,,,,,,,,,,,,,,,,None,None,None,,None,None,739.2444889849867,None,3,1,0.968744317011442,739.2444889849867,None,740.2086826318933,None,None,None,None,,14,001,2023_Jan_20_1054,searchDisc5,2021.2.3,59.98123930357988,
images/exp1a_trial_308_colour2_distractors1_l.png,l,1,2,1,0,,,,,0,140,140,140,,,,,,,,,,,,,,,,,,,,,,,,,,,,,,,,,,,,,,,,,,,740.2264412989898,None,2,1.5206038360192906,740.2264412989898,None,,,,,,,,,,,,,,,,None,None,None,,None,None,741.7929075080028,None,1,1,0.9698102170077618,741.7929075080028,None,742.7588379608875,None,None,None,None,,14,001,2023_Jan_20_1054,searchDisc5,2021.2.3,59.98123930357988,
images/exp2b_trial_94_colour0_distractors0_r.png,r,3,0,0,0,,,,,0,141,141,141,,,,,,,,,,,,,,,,,,,,,,,,,,,,,,,,,,,,,,,,,,,742.7755806829955,None,2,1.3716341820254456,742.7755806829955,None,,,,,,,,,,,,,,,,None,None,None,,None,None,744.192463438987,None,3,1,0.904895587998908,744.192463438987,None,745.0921166398854,None,None,None,None,,14,001,2023_Jan_20_1054,searchDisc5,2021.2.3,59.98123930357988,
images/exp2c_trial_104_colour2_distractors19_r.png,r,3,2,19,0,,,,,0,142,142,142,,,,,,,,,,,,,,,,,,,,,,,,,,,,,,,,,,,,,,,,,,,745.111008323991,None,2,1.407493581995368,745.111008323991,None,,,,,,,,,,,,,,,,None,None,None,,None,None,746.5620955810009,None,3,1,0.8981188879988622,746.5620955810009,None,747.4588940158952,None,None,None,None,,14,001,2023_Jan_20_1054,searchDisc5,2021.2.3,59.98123930357988,
images/exp2a_trial_54_colour2_distractors9_l.png,l,1,2,9,0,,,,,0,143,143,143,,,,,,,,,,,,,,,,,,,,,,,,,,,,,,,,,,,,,,,,,,,747.476688152994,None,2,1.420892397989519,747.476688152994,None,,,,,,,,,,,,,,,,None,None,None,,None,None,748.945556724997,None,1,1,0.9326343860011548,748.945556724997,None,749.8756029859011,None,None,None,None,,14,001,2023_Jan_20_1054,searchDisc5,2021.2.3,59.98123930357988,
images/exp2b_trial_110_colour3_distractors31_r.png,r,3,3,31,0,,,,,0,144,144,144,,,,,,,,,,,,,,,,,,,,,,,,,,,,,,,,,,,,,,,,,,,749.8932120109966,None,2,1.5569023980060592,749.8932120109966,None,,,,,,,,,,,,,,,,None,None,None,,None,None,751.4953162769962,None,3,1,0.8827224210253917,751.4953162769962,None,752.3756351068965,None,None,None,None,,14,001,2023_Jan_20_1054,searchDisc5,2021.2.3,59.98123930357988,
images/exp2b_trial_284_colour3_distractors19_l.png,l,1,3,19,0,,,,,0,145,145,145,,,,,,,,,,,,,,,,,,,,,,,,,,,,,,,,,,,,,,,,,,,752.3933335710026,None,2,1.5209554680041037,752.3933335710026,None,,,,,,,,,,,,,,,,None,None,None,,None,None,753.9594488150033,None,1,1,1.0358903809974436,753.9594488150033,None,754.9923232548987,None,None,None,None,,14,001,2023_Jan_20_1054,searchDisc5,2021.2.3,59.98123930357988,
images/exp1a_trial_90_colour3_distractors4_l.png,l,1,3,4,0,,,,,0,146,146,146,,,,,,,,,,,,,,,,,,,,,,,,,,,,,,,,,,,,,,,,,,,755.0103296169837,None,2,1.4571382059948519,755.0103296169837,None,,,,,,,,,,,,,,,,None,None,None,,None,None,756.5121344930085,None,1,1,0.9016598549787886,756.5121344930085,None,757.4091235829052,None,None,None,None,,14,001,2023_Jan_20_1054,searchDisc5,2021.2.3,59.98123930357988,
images/exp2b_trial_237_colour3_distractors19_r.png,r,3,3,19,0,,,,,0,147,147,147,,,,,,,,,,,,,,,,,,,,,,,,,,,,,,,,,,,,,,,,,,,757.4260621310095,None,2,1.3194075640058145,757.4260621310095,None,,,,,,,,,,,,,,,,None,None,None,,None,None,758.7934593879909,None,3,1,1.1519967560016084,758.7934593879909,None,759.9418099038827,None,None,None,None,,14,001,2023_Jan_20_1054,searchDisc5,2021.2.3,59.98123930357988,
images/exp2c_trial_214_colour2_distractors9_l.png,l,1,2,9,0,,,,,0,148,148,148,,,,,,,,,,,,,,,,,,,,,,,,,,,,,,,,,,,,,,,,,,,759.9605173720047,None,2,1.291008353990037,759.9605173720047,None,,,,,,,,,,,,,,,,None,None,None,,None,None,761.2930327079957,None,1,1,1.0341270019998774,761.2930327079957,None,762.3258780449047,None,None,None,None,,14,001,2023_Jan_20_1054,searchDisc5,2021.2.3,59.98123930357988,
images/exp1a_trial_118_colour2_distractors9_l.png,l,1,2,9,0,,,,,0,149,149,149,,,,,,,,,,,,,,,,,,,,,,,,,,,,,,,,,,,,,,,,,,,762.3448858679913,None,2,1.4066514179867227,762.3448858679913,None,,,,,,,,,,,,,,,,None,None,None,,None,None,763.7957450019894,None,1,1,0.9010391249903478,763.7957450019894,None,764.6926472388965,None,None,None,None,,14,001,2023_Jan_20_1054,searchDisc5,2021.2.3,59.98123930357988,
images/exp1a_trial_2_colour1_distractors9_r.png,r,3,1,9,0,,,,,0,150,150,150,,,,,,,,,,,,,,,,,,,,,,,,,,,,,,,,,,,,,,,,,,,764.7096043780039,None,2,1.4543135410058312,764.7096043780039,None,,,,,,,,,,,,,,,,None,None,None,,None,None,766.2128829910071,None,3,1,1.020632789004594,766.2128829910071,None,767.2260712468939,None,None,None,None,,14,001,2023_Jan_20_1054,searchDisc5,2021.2.3,59.98123930357988,
images/exp2c_trial_99_colour1_distractors19_r.png,r,3,1,19,0,,,,,0,151,151,151,,,,,,,,,,,,,,,,,,,,,,,,,,,,,,,,,,,,,,,,,,,767.2448694350023,None,2,1.3187587610154878,767.2448694350023,None,,,,,,,,,,,,,,,,None,None,None,,None,None,768.6103309989849,None,3,1,0.9535545590042602,768.6103309989849,None,769.5593328138872,None,None,None,None,,14,001,2023_Jan_20_1054,searchDisc5,2021.2.3,59.98123930357988,
images/exp1a_trial_9_colour2_distractors31_r.png,r,3,2,31,0,,,,,0,152,152,152,,,,,,,,,,,,,,,,,,,,,,,,,,,,,,,,,,,,,,,,,,,769.5771140819998,None,2,1.4891572589986026,769.5771140819998,None,,,,,,,,,,,,,,,,None,None,None,,None,None,771.1129616030084,None,3,1,1.0138661990058608,771.1129616030084,None,772.1261988269049,None,None,None,None,,14,001,2023_Jan_20_1054,searchDisc5,2021.2.3,59.98123930357988,
images/exp2b_trial_163_colour1_distractors19_r.png,r,3,1,19,0,,,,,0,153,153,153,,,,,,,,,,,,,,,,,,,,,,,,,,,,,,,,,,,,,,,,,,,772.1456604039995,None,2,1.740662266005529,772.1456604039995,None,,,,,,,,,,,,,,,,None,None,None,,None,None,773.9266784609936,None,3,1,0.9485253969905898,773.9266784609936,None,774.8761787989002,None,None,None,None,,14,001,2023_Jan_20_1054,searchDisc5,2021.2.3,59.98123930357988,
images/exp2b_trial_201_colour2_distractors31_r.png,r,3,2,31,0,,,,,0,154,154,154,,,,,,,,,,,,,,,,,,,,,,,,,,,,,,,,,,,,,,,,,,,774.8931303629943,None,2,1.5573789030022454,774.8931303629943,None,,,,,,,,,,,,,,,,None,None,None,,None,None,776.4964270649944,None,3,1,0.8991717380122282,776.4964270649944,None,777.3931844088889,None,None,None,None,,14,001,2023_Jan_20_1054,searchDisc5,2021.2.3,59.98123930357988,
images/exp2c_trial_153_colour3_distractors1_l.png,l,1,3,1,0,,,,,0,155,155,155,,,,,,,,,,,,,,,,,,,,,,,,,,,,,,,,,,,,,,,,,,,777.4122520980018,None,2,1.6552562690048944,777.4122520980018,None,,,,,,,,,,,,,,,,None,None,None,,None,None,779.1100382989971,None,1,1,1.0382861139951274,779.1100382989971,None,780.1441933948896,None,None,None,None,,14,001,2023_Jan_20_1054,searchDisc5,2021.2.3,59.98123930357988,
images/exp2c_trial_148_colour2_distractors1_l.png,l,1,2,1,0,,,,,0,156,156,156,,,,,,,,,,,,,,,,,,,,,,,,,,,,,,,,,,,,,,,,,,,780.1595269819954,None,2,1.4562332769855857,780.1595269819954,None,,,,,,,,,,,,,,,,None,None,None,,None,None,781.6621832620003,None,1,1,0.9686266899807379,781.6621832620003,None,782.6265787609096,None,None,None,None,,14,001,2023_Jan_20_1054,searchDisc5,2021.2.3,59.98123930357988,
images/exp2c_trial_302_colour3_distractors31_r.png,r,3,3,31,0,,,,,0,157,157,157,,,,,,,,,,,,,,,,,,,,,,,,,,,,,,,,,,,,,,,,,,,782.6441233129881,None,2,1.4406253909983207,782.6441233129881,None,,,,,,,,,,,,,,,,None,None,None,,None,None,784.1296531109838,None,3,1,1.06502301900764,784.1296531109838,None,785.1933187548944,None,None,None,None,,14,001,2023_Jan_20_1054,searchDisc5,2021.2.3,59.98123930357988,
images/exp2a_trial_57_colour3_distractors1_l.png,l,1,3,1,0,,,,,0,158,158,158,,,,,,,,,,,,,,,,,,,,,,,,,,,,,,,,,,,,,,,,,,,785.2100416919857,None,2,1.3572997630108148,785.2100416919857,None,,,,,,,,,,,,,,,,None,None,None,,None,None,786.6122917050088,None,1,1,0.9348678899987135,786.6122917050088,None,787.5432063779095,None,None,None,None,,14,001,2023_Jan_20_1054,searchDisc5,2021.2.3,59.98123930357988,
images/exp2b_trial_30_colour0_distractors0_r.png,r,3,0,0,0,,,,,0,159,159,159,,,,,,,,,,,,,,,,,,,,,,,,,,,,,,,,,,,,,,,,,,,787.5627328690025,None,2,1.305446832004236,787.5627328690025,None,,,,,,,,,,,,,,,,None,None,None,,None,None,788.9109263950086,None,3,1,0.9873469180020038,788.9109263950086,None,789.8936518029019,None,None,None,None,,14,001,2023_Jan_20_1054,searchDisc5,2021.2.3,59.98123930357988,
images/exp2b_trial_175_colour1_distractors1_l.png,l,1,1,1,0,,,,,0,160,160,160,,,,,,,,,,,,,,,,,,,,,,,,,,,,,,,,,,,,,,,,,,,789.9111451669887,None,2,1.2720396849908866,789.9111451669887,None,,,,,,,,,,,,,,,,None,None,None,,None,None,791.2292551450082,None,1,1,0.9701066929847002,791.2292551450082,None,792.1931001699064,None,None,None,None,,14,001,2023_Jan_20_1054,searchDisc5,2021.2.3,59.98123930357988,
images/exp1a_trial_48_colour1_distractors4_l.png,l,1,1,4,0,,,,,0,161,161,161,,,,,,,,,,,,,,,,,,,,,,,,,,,,,,,,,,,,,,,,,,,792.2106192320061,None,2,1.304866721999133,792.2106192320061,None,,,,,,,,,,,,,,,,None,None,None,,None,None,793.5614891650039,None,1,1,0.9358006590045989,793.5614891650039,None,794.4926935688942,None,None,None,None,,14,001,2023_Jan_20_1054,searchDisc5,2021.2.3,59.98123930357988,
images/exp1a_trial_14_colour3_distractors31_r.png,r,3,3,31,0,,,,,0,162,162,162,,,,,,,,,,,,,,,,,,,,,,,,,,,,,,,,,,,,,,,,,,,794.5103697940067,None,2,1.1884136220032815,794.5103697940067,None,,,,,,,,,,,,,,,,None,None,None,,None,None,795.7459552749933,None,3,1,0.8647333690023515,795.7459552749933,None,796.6102690148924,None,None,None,None,,14,001,2023_Jan_20_1054,searchDisc5,2021.2.3,59.98123930357988,
images/exp2b_trial_263_colour2_distractors9_r.png,r,3,2,9,0,,,,,0,163,163,163,,,,,,,,,,,,,,,,,,,,,,,,,,,,,,,,,,,,,,,,,,,796.6270905369893,None,2,1.355163445987273,796.6270905369893,None,,,,,,,,,,,,,,,,None,None,None,,None,None,798.0269738269853,None,3,1,0.9353979960142169,798.0269738269853,None,798.9604305089102,None,None,None,None,,14,001,2023_Jan_20_1054,searchDisc5,2021.2.3,59.98123930357988,
images/exp2a_trial_206_colour3_distractors31_r.png,r,3,3,31,0,,,,,0,164,164,164,,,,,,,,,,,,,,,,,,,,,,,,,,,,,,,,,,,,,,,,,,,798.9763999650022,None,2,1.1719713729980867,798.9763999650022,None,,,,,,,,,,,,,,,,None,None,None,,None,None,800.1940657520026,None,3,1,0.9499307060032152,800.1940657520026,None,801.1428670618858,None,None,None,None,,14,001,2023_Jan_20_1054,searchDisc5,2021.2.3,59.98123930357988,
images/exp2c_trial_140_colour3_distractors9_r.png,r,3,3,9,0,,,,,0,165,165,165,,,,,,,,,,,,,,,,,,,,,,,,,,,,,,,,,,,,,,,,,,,801.1614593630075,None,2,1.1895014109904878,801.1614593630075,None,,,,,,,,,,,,,,,,None,None,None,,None,None,802.3946601279895,None,3,1,1.0517982000019401,802.3946601279895,None,803.4437852328934,None,None,None,None,,14,001,2023_Jan_20_1054,searchDisc5,2021.2.3,59.98123930357988,
images/exp2c_trial_258_colour1_distractors9_r.png,r,3,1,9,0,,,,,0,166,166,166,,,,,,,,,,,,,,,,,,,,,,,,,,,,,,,,,,,,,,,,,,,803.4613898000098,None,2,1.1711648739874363,803.4613898000098,None,,,,,,,,,,,,,,,,None,None,None,,None,None,804.6799516280007,None,3,1,1.0350702209980227,804.6799516280007,None,805.7103857239068,None,None,None,None,,14,001,2023_Jan_20_1054,searchDisc5,2021.2.3,59.98123930357988,
images/exp2a_trial_93_colour3_distractors31_l.png,l,1,3,31,0,,,,,0,167,167,167,,,,,,,,,,,,,,,,,,,,,,,,,,,,,,,,,,,,,,,,,,,805.7273217180045,None,2,1.1873206430173013,805.7273217180045,None,,,,,,,,,,,,,,,,None,None,None,,None,None,806.9632763899863,None,1,1,1.069665607996285,806.9632763899863,None,808.0273555018881,None,None,None,None,,14,001,2023_Jan_20_1054,searchDisc5,2021.2.3,59.98123930357988,
images/exp2b_trial_193_colour1_distractors4_r.png,r,3,1,4,0,,,,,0,168,168,168,,,,,,,,,,,,,,,,,,,,,,,,,,,,,,,,,,,,,,,,,,,808.0464506960125,None,2,1.154202025005361,808.0464506960125,None,,,,,,,,,,,,,,,,None,None,None,,None,None,809.2442465049971,None,3,1,1.020172721997369,809.2442465049971,None,810.2601514499053,None,None,None,None,,14,001,2023_Jan_20_1054,searchDisc5,2021.2.3,59.98123930357988,
images/exp1a_trial_114_colour1_distractors19_l.png,l,1,1,19,0,,,,,0,169,169,169,,,,,,,,,,,,,,,,,,,,,,,,,,,,,,,,,,,,,,,,,,,810.2774835700111,None,2,1.17527341801906,810.2774835700111,None,,,,,,,,,,,,,,,,None,None,None,,None,None,811.4938750370056,None,1,1,1.09715617398615,811.4938750370056,None,812.5941490679048,None,None,None,None,,14,001,2023_Jan_20_1054,searchDisc5,2021.2.3,59.98123930357988,
images/exp2b_trial_231_colour2_distractors9_r.png,r,3,2,9,0,,,,,0,170,170,170,,,,,,,,,,,,,,,,,,,,,,,,,,,,,,,,,,,,,,,,,,,812.6136919200071,None,2,1.2052606389916036,812.6136919200071,None,,,,,,,,,,,,,,,,None,None,None,,None,None,813.8632226400077,None,3,1,1.0048479859833606,813.8632226400077,None,814.8608585699054,None,None,None,None,,14,001,2023_Jan_20_1054,searchDisc5,2021.2.3,59.98123930357988,
images/exp1a_trial_317_colour3_distractors31_l.png,l,1,3,31,0,,,,,0,171,171,171,,,,,,,,,,,,,,,,,,,,,,,,,,,,,,,,,,,,,,,,,,,814.8785904189863,None,2,1.235537999018561,814.8785904189863,None,,,,,,,,,,,,,,,,None,None,None,,None,None,816.1633726659929,None,1,1,0.9993335070030298,816.1633726659929,None,817.1609948028869,None,None,None,None,,14,001,2023_Jan_20_1054,searchDisc5,2021.2.3,59.98123930357988,
images/exp2a_trial_153_colour3_distractors1_l.png,l,1,3,1,0,,,,,0,172,172,172,,,,,,,,,,,,,,,,,,,,,,,,,,,,,,,,,,,,,,,,,,,817.1786236400076,None,2,1.1541535379947163,817.1786236400076,None,,,,,,,,,,,,,,,,None,None,None,,None,None,818.3789579150034,None,1,1,1.0050484090170357,818.3789579150034,None,819.3774729579105,None,None,None,None,,14,001,2023_Jan_20_1054,searchDisc5,2021.2.3,59.98123930357988,
images/exp2b_trial_32_colour1_distractors1_r.png,r,3,1,1,0,,,,,0,173,173,173,,,,,,,,,,,,,,,,,,,,,,,,,,,,,,,,,,,,,,,,,,,819.3943566420057,None,2,1.124176465003984,819.3943566420057,None,,,,,,,,,,,,,,,,None,None,None,,None,None,820.5633457560034,None,3,1,0.9687737459898926,820.5633457560034,None,821.5276981579024,None,None,None,None,,14,001,2023_Jan_20_1054,searchDisc5,2021.2.3,59.98123930357988,
images/exp1a_trial_168_colour2_distractors19_r.png,r,3,2,19,0,,,,,0,174,174,174,,,,,,,,,,,,,,,,,,,,,,,,,,,,,,,,,,,,,,,,,,,821.544824526005,None,2,1.1247865530021954,821.544824526005,None,,,,,,,,,,,,,,,,None,None,None,,None,None,822.7148466549988,None,3,1,1.0130025600083172,822.7148466549988,None,823.727452001907,None,None,None,None,,14,001,2023_Jan_20_1054,searchDisc5,2021.2.3,59.98123930357988,
images/exp2a_trial_291_colour1_distractors19_r.png,r,3,1,19,0,,,,,0,175,175,175,,,,,,,,,,,,,,,,,,,,,,,,,,,,,,,,,,,,,,,,,,,823.7444089229975,None,2,1.1233417850162368,823.7444089229975,None,,,,,,,,,,,,,,,,None,None,None,,None,None,824.9117309589928,None,3,1,1.0331882880127523,824.9117309589928,None,825.94453269589,None,None,None,None,,14,001,2023_Jan_20_1054,searchDisc5,2021.2.3,59.98123930357988,
images/exp2b_trial_84_colour2_distractors1_l.png,l,1,2,1,0,,,,,0,176,176,176,,,,,,,,,,,,,,,,,,,,,,,,,,,,,,,,,,,,,,,,,,,825.9624184799904,None,2,1.0706860570062418,825.9624184799904,None,,,,,,,,,,,,,,,,None,None,None,,None,None,827.078856098,None,1,1,1.0052277909999248,827.078856098,None,828.0778074518836,None,None,None,None,,14,001,2023_Jan_20_1054,searchDisc5,2021.2.3,59.98123930357988,
images/exp1a_trial_94_colour0_distractors0_r.png,r,3,0,0,0,,,,,0,177,177,177,,,,,,,,,,,,,,,,,,,,,,,,,,,,,,,,,,,,,,,,,,,828.0952574010007,None,2,1.1246643170015886,828.0952574010007,None,,,,,,,,,,,,,,,,None,None,None,,None,None,829.2643995310063,None,3,1,0.9346037119976245,829.2643995310063,None,830.1942934028863,None,None,None,None,,14,001,2023_Jan_20_1054,searchDisc5,2021.2.3,59.98123930357988,
images/exp2b_trial_225_colour1_distractors4_r.png,r,3,1,4,0,,,,,0,178,178,178,,,,,,,,,,,,,,,,,,,,,,,,,,,,,,,,,,,,,,,,,,,830.2114051220124,None,2,0.9874628959805705,830.2114051220124,None,,,,,,,,,,,,,,,,None,None,None,,None,None,831.2461732770025,None,3,1,0.9222948030219413,831.2461732770025,None,832.1612259859045,None,None,None,None,,14,001,2023_Jan_20_1054,searchDisc5,2021.2.3,59.98123930357988,
images/exp1a_trial_66_colour1_distractors9_r.png,r,3,1,9,0,,,,,0,179,179,179,,,,,,,,,,,,,,,,,,,,,,,,,,,,,,,,,,,,,,,,,,,832.1794904689887,None,2,1.119637641008012,832.1794904689887,None,,,,,,,,,,,,,,,,None,None,None,,None,None,833.3459054740088,None,3,1,2.0866124099993613,833.3459054740088,None,835.4288816598943,None,None,None,None,,14,001,2023_Jan_20_1054,searchDisc5,2021.2.3,59.98123930357988,
images/exp1a_trial_291_colour1_distractors19_r.png,r,3,1,19,0,,,,,0,180,180,180,,,,,,,,,,,,,,,,,,,,,,,,,,,,,,,,,,,,,,,,,,,835.4456590909977,None,2,0.8364391709910706,835.4456590909977,None,,,,,,,,,,,,,,,,None,None,None,,None,None,836.331242752989,None,3,1,1.034062010992784,836.331242752989,None,837.3613572209084,None,None,None,None,,14,001,2023_Jan_20_1054,searchDisc5,2021.2.3,59.98123930357988,
images/exp2b_trial_26_colour3_distractors4_l.png,l,1,3,4,0,,,,,0,181,181,181,,,,,,,,,,,,,,,,,,,,,,,,,,,,,,,,,,,,,,,,,,,837.3790755170048,None,2,1.1718716750037856,837.3790755170048,None,,,,,,,,,,,,,,,,None,None,None,,None,None,838.5958870910108,None,1,1,1.0871239289990626,838.5958870910108,None,839.6782285569003,None,None,None,None,,14,001,2023_Jan_20_1054,searchDisc5,2021.2.3,59.98123930357988,
images/exp1a_trial_117_colour2_distractors4_l.png,l,1,2,4,0,,,,,0,182,182,182,,,,,,,,,,,,,,,,,,,,,,,,,,,,,,,,,,,,,,,,,,,839.6957696659956,None,2,1.0711021659953985,839.6957696659956,None,,,,,,,,,,,,,,,,None,None,None,,None,None,840.8140833259968,None,1,1,1.2371140480099712,840.8140833259968,None,842.044819032884,None,None,None,None,,14,001,2023_Jan_20_1054,searchDisc5,2021.2.3,59.98123930357988,
images/exp2a_trial_52_colour2_distractors1_l.png,l,1,2,1,0,,,,,0,183,183,183,,,,,,,,,,,,,,,,,,,,,,,,,,,,,,,,,,,,,,,,,,,842.0646144789935,None,2,1.0731436290079728,842.0646144789935,None,,,,,,,,,,,,,,,,None,None,None,,None,None,843.1814898400044,None,1,1,1.067974317993503,843.1814898400044,None,844.2449198008923,None,None,None,None,,14,001,2023_Jan_20_1054,searchDisc5,2021.2.3,59.98123930357988,
images/exp2a_trial_222_colour0_distractors0_r.png,r,3,0,0,0,,,,,0,184,184,184,,,,,,,,,,,,,,,,,,,,,,,,,,,,,,,,,,,,,,,,,,,844.2627659839927,None,2,1.2884618930111174,844.2627659839927,None,,,,,,,,,,,,,,,,None,None,None,,None,None,845.5946287729894,None,3,1,0.9707486249972135,845.5946287729894,None,846.5616415668861,None,None,None,None,,14,001,2023_Jan_20_1054,searchDisc5,2021.2.3,59.98123930357988,
images/exp2b_trial_311_colour2_distractors19_l.png,l,1,2,19,0,,,,,0,185,185,185,,,,,,,,,,,,,,,,,,,,,,,,,,,,,,,,,,,,,,,,,,,846.5784793880011,None,2,1.088794251991203,846.5784793880011,None,,,,,,,,,,,,,,,,None,None,None,,None,None,847.7142370479996,None,1,1,0.9980006520054303,847.7142370479996,None,848.7110929508868,None,None,None,None,,14,001,2023_Jan_20_1054,searchDisc5,2021.2.3,59.98123930357988,
images/exp2b_trial_266_colour3_distractors1_r.png,r,3,3,1,0,,,,,0,186,186,186,,,,,,,,,,,,,,,,,,,,,,,,,,,,,,,,,,,,,,,,,,,848.7289290030021,None,2,1.087673147994792,848.7289290030021,None,,,,,,,,,,,,,,,,None,None,None,,None,None,849.8652494320122,None,3,1,0.9719327320053708,849.8652494320122,None,850.8285140708846,None,None,None,None,,14,001,2023_Jan_20_1054,searchDisc5,2021.2.3,59.98123930357988,
images/exp2a_trial_161_colour1_distractors4_r.png,r,3,1,4,0,,,,,0,187,187,187,,,,,,,,,,,,,,,,,,,,,,,,,,,,,,,,,,,,,,,,,,,850.8452373660111,None,2,1.1553154579887632,850.8452373660111,None,,,,,,,,,,,,,,,,None,None,None,,None,None,852.0478533649875,None,3,1,0.9363374509848654,852.0478533649875,None,852.9785072109022,None,None,None,None,,14,001,2023_Jan_20_1054,searchDisc5,2021.2.3,59.98123930357988,
images/exp2b_trial_57_colour3_distractors1_l.png,l,1,3,1,0,,,,,0,188,188,188,,,,,,,,,,,,,,,,,,,,,,,,,,,,,,,,,,,,,,,,,,,852.9960391790082,None,2,1.1218212789972313,852.9960391790082,None,,,,,,,,,,,,,,,,None,None,None,,None,None,854.1626057449903,None,1,1,0.9712708180013578,854.1626057449903,None,855.128542189888,None,None,None,None,,14,001,2023_Jan_20_1054,searchDisc5,2021.2.3,59.98123930357988,
images/exp2b_trial_145_colour1_distractors9_l.png,l,1,1,9,0,,,,,0,189,189,189,,,,,,,,,,,,,,,,,,,,,,,,,,,,,,,,,,,,,,,,,,,855.1460794179875,None,2,1.0878384019888472,855.1460794179875,None,,,,,,,,,,,,,,,,None,None,None,,None,None,856.2797904789913,None,1,1,1.0035096339997835,856.2797904789913,None,857.2785702939087,None,None,None,None,,14,001,2023_Jan_20_1054,searchDisc5,2021.2.3,59.98123930357988,
images/exp2b_trial_122_colour3_distractors4_l.png,l,1,3,4,0,,,,,0,190,190,190,,,,,,,,,,,,,,,,,,,,,,,,,,,,,,,,,,,,,,,,,,,857.2963649599988,None,2,1.1572965679806657,857.2963649599988,None,,,,,,,,,,,,,,,,None,None,None,,None,None,858.4982098379987,None,1,1,1.118631956022,858.4982098379987,None,859.6121739098977,None,None,None,None,,14,001,2023_Jan_20_1054,searchDisc5,2021.2.3,59.98123930357988,
images/exp2a_trial_118_colour2_distractors9_l.png,l,1,2,9,0,,,,,0,191,191,191,,,,,,,,,,,,,,,,,,,,,,,,,,,,,,,,,,,,,,,,,,,859.6289974300016,None,2,1.1405602589948103,859.6289974300016,None,,,,,,,,,,,,,,,,None,None,None,,None,None,860.8153118059854,None,1,1,1.11330098300823,860.8153118059854,None,861.9282442158961,None,None,None,None,,14,001,2023_Jan_20_1054,searchDisc5,2021.2.3,59.98123930357988,
images/exp2c_trial_245_colour2_distractors4_l.png,l,1,2,4,0,,,,,0,192,192,192,,,,,,,,,,,,,,,,,,,,,,,,,,,,,,,,,,,,,,,,,,,861.9484943780117,None,2,1.0212539419881068,861.9484943780117,None,,,,,,,,,,,,,,,,None,None,None,,None,None,863.014665966999,None,1,1,1.0055440730066039,863.014665966999,None,864.0132908339089,None,None,None,None,,14,001,2023_Jan_20_1054,searchDisc5,2021.2.3,59.98123930357988,
images/exp2a_trial_137_colour2_distractors31_r.png,r,3,2,31,0,,,,,0,193,193,193,,,,,,,,,,,,,,,,,,,,,,,,,,,,,,,,,,,,,,,,,,,864.0298573200125,None,2,0.9698473869939335,864.0298573200125,None,,,,,,,,,,,,,,,,None,None,None,,None,None,865.0456803090055,None,3,1,1.4456766399962362,865.0456803090055,None,866.4956486709067,None,None,None,None,,14,001,2023_Jan_20_1054,searchDisc5,2021.2.3,59.98123930357988,
images/exp2c_trial_16_colour1_distractors4_l.png,l,1,1,4,0,,,,,0,194,194,194,,,,,,,,,,,,,,,,,,,,,,,,,,,,,,,,,,,,,,,,,,,866.5133791230037,None,2,0.9091552820173092,866.5133791230037,None,,,,,,,,,,,,,,,,None,None,None,,None,None,867.4646819820045,None,1,1,0.8820966540079098,867.4646819820045,None,868.3454151709099,None,None,None,None,,14,001,2023_Jan_20_1054,searchDisc5,2021.2.3,59.98123930357988,
images/exp2b_trial_62_colour0_distractors0_r.png,r,3,0,0,0,,,,,0,195,195,195,,,,,,,,,,,,,,,,,,,,,,,,,,,,,,,,,,,,,,,,,,,868.3631333299854,None,2,1.0563370019954164,868.3631333299854,None,,,,,,,,,,,,,,,,None,None,None,,None,None,869.4627141169913,None,3,1,1.0028743150178343,869.4627141169913,None,870.4623944188876,None,None,None,None,,14,001,2023_Jan_20_1054,searchDisc5,2021.2.3,59.98123930357988,
images/exp2a_trial_192_colour1_distractors1_r.png,r,3,1,1,0,,,,,0,196,196,196,,,,,,,,,,,,,,,,,,,,,,,,,,,,,,,,,,,,,,,,,,,870.4785592379922,None,2,1.0062776280101389,870.4785592379922,None,,,,,,,,,,,,,,,,None,None,None,,None,None,871.5293982349976,None,3,1,1.1026942140015308,871.5293982349976,None,872.629010656901,None,None,None,None,,14,001,2023_Jan_20_1054,searchDisc5,2021.2.3,59.98123930357988,
images/exp2a_trial_238_colour3_distractors31_r.png,r,3,3,31,0,,,,,0,197,197,197,,,,,,,,,,,,,,,,,,,,,,,,,,,,,,,,,,,,,,,,,,,872.648765994003,None,2,0.9718266949930694,872.648765994003,None,,,,,,,,,,,,,,,,None,None,None,,None,None,873.6631358099985,None,3,1,1.083642106008483,873.6631358099985,None,874.745160721906,None,None,None,None,,14,001,2023_Jan_20_1054,searchDisc5,2021.2.3,59.98123930357988,
images/exp2a_trial_215_colour2_distractors19_l.png,l,1,2,19,0,,,,,0,198,198,198,,,,,,,,,,,,,,,,,,,,,,,,,,,,,,,,,,,,,,,,,,,874.7626170899894,None,2,1.0049935989954975,874.7626170899894,None,,,,,,,,,,,,,,,,None,None,None,,None,None,875.8133360820066,None,1,1,1.3472230100014713,875.8133360820066,None,877.1626169588941,None,None,None,None,,14,001,2023_Jan_20_1054,searchDisc5,2021.2.3,59.98123930357988,
images/exp1a_trial_288_colour1_distractors1_r.png,r,3,1,1,0,,,,,0,199,199,199,,,,,,,,,,,,,,,,,,,,,,,,,,,,,,,,,,,,,,,,,,,877.1802010079846,None,2,0.9877844720031135,877.1802010079846,None,,,,,,,,,,,,,,,,None,None,None,,None,None,878.2135995329882,None,3,1,1.0049866430053953,878.2135995329882,None,879.2130186129012,None,None,None,None,,14,001,2023_Jan_20_1054,searchDisc5,2021.2.3,59.98123930357988,
images/exp1a_trial_228_colour1_distractors31_r.png,r,3,1,31,0,,,,,0,200,200,200,,,,,,,,,,,,,,,,,,,,,,,,,,,,,,,,,,,,,,,,,,,879.2298153199954,None,2,1.054747995978687,879.2298153199954,None,,,,,,,,,,,,,,,,None,None,None,,None,None,880.3353926730051,None,3,1,1.4275213890068699,880.3353926730051,None,881.762649711885,None,None,None,None,,14,001,2023_Jan_20_1054,searchDisc5,2021.2.3,59.98123930357988,
images/exp2c_trial_311_colour2_distractors19_l.png,l,1,2,19,0,,,,,0,201,201,201,,,,,,,,,,,,,,,,,,,,,,,,,,,,,,,,,,,,,,,,,,,881.7794260800001,None,2,0.9560717490094248,881.7794260800001,None,,,,,,,,,,,,,,,,None,None,None,,None,None,882.7798142250103,None,1,1,1.1842919040063862,882.7798142250103,None,883.9630054788955,None,None,None,None,,14,001,2023_Jan_20_1054,searchDisc5,2021.2.3,59.98123930357988,
images/exp2b_trial_100_colour1_distractors31_r.png,r,3,1,31,0,,,,,0,202,202,202,,,,,,,,,,,,,,,,,,,,,,,,,,,,,,,,,,,,,,,,,,,883.9799436769972,None,2,1.2540597219776828,883.9799436769972,None,,,,,,,,,,,,,,,,None,None,None,,None,None,885.2799644740007,None,3,1,1.2682269939978141,885.2799644740007,None,886.5461630818842,None,None,None,None,,14,001,2023_Jan_20_1054,searchDisc5,2021.2.3,59.98123930357988,
images/exp2c_trial_47_colour1_distractors1_l.png,l,1,1,1,0,,,,,0,203,203,203,,,,,,,,,,,,,,,,,,,,,,,,,,,,,,,,,,,,,,,,,,,886.566033399984,None,2,1.2042973180068657,886.566033399984,None,,,,,,,,,,,,,,,,None,None,None,,None,None,887.8160662380105,None,1,1,1.1054552630230319,887.8160662380105,None,888.9128033808898,None,None,None,None,,14,001,2023_Jan_20_1054,searchDisc5,2021.2.3,59.98123930357988,
images/exp2a_trial_58_colour3_distractors4_l.png,l,1,3,4,0,,,,,0,204,204,204,,,,,,,,,,,,,,,,,,,,,,,,,,,,,,,,,,,,,,,,,,,888.9305369879876,None,2,1.1405399509822018,888.9305369879876,None,,,,,,,,,,,,,,,,None,None,None,,None,None,890.1154072879872,None,1,1,1.0183230700204149,890.1154072879872,None,891.1296035858919,None,None,None,None,,14,001,2023_Jan_20_1054,searchDisc5,2021.2.3,59.98123930357988,
images/exp1a_trial_309_colour2_distractors4_l.png,l,1,2,4,0,,,,,0,205,205,205,,,,,,,,,,,,,,,,,,,,,,,,,,,,,,,,,,,,,,,,,,,891.1484170850017,None,2,1.1898684519983362,891.1484170850017,None,,,,,,,,,,,,,,,,None,None,None,,None,None,892.379772507993,None,1,1,0.9517047280096449,892.379772507993,None,893.3296448758862,None,None,None,None,,14,001,2023_Jan_20_1054,searchDisc5,2021.2.3,59.98123930357988,
images/exp2a_trial_95_colour0_distractors0_l.png,l,1,0,0,0,,,,,0,206,206,206,,,,,,,,,,,,,,,,,,,,,,,,,,,,,,,,,,,,,,,,,,,893.3492999669979,None,2,1.2231577420025133,893.3492999669979,None,,,,,,,,,,,,,,,,None,None,None,,None,None,894.615508916002,None,1,1,1.7191690299951006,894.615508916002,None,896.3296363759088,None,None,None,None,,14,001,2023_Jan_20_1054,searchDisc5,2021.2.3,59.98123930357988,
images/exp1a_trial_102_colour2_distractors4_r.png,r,3,2,4,0,,,,,0,207,207,207,,,,,,,,,,,,,,,,,,,,,,,,,,,,,,,,,,,,,,,,,,,896.347523820994,None,2,1.1054843599849846,896.347523820994,None,,,,,,,,,,,,,,,,None,None,None,,None,None,897.4979483470088,None,3,1,1.0030522430024575,897.4979483470088,None,898.4964506119082,None,None,None,None,,14,001,2023_Jan_20_1054,searchDisc5,2021.2.3,59.98123930357988,
images/exp2a_trial_75_colour3_distractors4_r.png,r,3,3,4,0,,,,,0,208,208,208,,,,,,,,,,,,,,,,,,,,,,,,,,,,,,,,,,,,,,,,,,,898.5133334310085,None,2,1.0534636449883692,898.5133334310085,None,,,,,,,,,,,,,,,,None,None,None,,None,None,899.6155756530061,None,3,1,0.9720015829952899,899.6155756530061,None,900.5796749438974,None,None,None,None,,14,001,2023_Jan_20_1054,searchDisc5,2021.2.3,59.98123930357988,
images/exp1a_trial_26_colour3_distractors4_l.png,l,1,3,4,0,,,,,0,209,209,209,,,,,,,,,,,,,,,,,,,,,,,,,,,,,,,,,,,,,,,,,,,900.5973155009851,None,2,1.1707844630000181,900.5973155009851,None,,,,,,,,,,,,,,,,None,None,None,,None,None,901.8145011960005,None,1,1,1.0204867350112181,901.8145011960005,None,902.8294780098892,None,None,None,None,,14,001,2023_Jan_20_1054,searchDisc5,2021.2.3,59.98123930357988,
images/exp1a_trial_122_colour3_distractors4_l.png,l,1,3,4,0,,,,,0,210,210,210,,,,,,,,,,,,,,,,,,,,,,,,,,,,,,,,,,,,,,,,,,,902.8472907280084,None,2,1.1890089160006028,902.8472907280084,None,,,,,,,,,,,,,,,,None,None,None,,None,None,904.0811537429981,None,1,1,1.9025424539868254,904.0811537429981,None,905.9792067549075,None,None,None,None,,14,001,2023_Jan_20_1054,searchDisc5,2021.2.3,59.98123930357988,
images/exp1a_trial_307_colour1_distractors31_l.png,l,1,1,31,0,,,,,0,211,211,211,,,,,,,,,,,,,,,,,,,,,,,,,,,,,,,,,,,,,,,,,,,905.997730158997,None,2,0.9720222499745432,905.997730158997,None,,,,,,,,,,,,,,,,None,None,None,,None,None,907.0148089469876,None,1,1,1.0490964590280782,907.0148089469876,None,908.0634026889107,None,None,None,None,,14,001,2023_Jan_20_1054,searchDisc5,2021.2.3,59.98123930357988,
images/exp2c_trial_72_colour2_distractors19_r.png,r,3,2,19,0,,,,,0,212,212,212,,,,,,,,,,,,,,,,,,,,,,,,,,,,,,,,,,,,,,,,,,,908.0797221660032,None,2,1.039081194991013,908.0797221660032,None,,,,,,,,,,,,,,,,None,None,None,,None,None,909.1644877519866,None,3,1,1.0172691760235466,909.1644877519866,None,910.1801668938948,None,None,None,None,,14,001,2023_Jan_20_1054,searchDisc5,2021.2.3,59.98123930357988,
images/exp2b_trial_54_colour2_distractors9_l.png,l,1,2,9,0,,,,,0,213,213,213,,,,,,,,,,,,,,,,,,,,,,,,,,,,,,,,,,,,,,,,,,,910.1976861709845,None,2,1.1232227040163707,910.1976861709845,None,,,,,,,,,,,,,,,,None,None,None,,None,None,911.3659565999988,None,1,1,1.0843250759935472,911.3659565999988,None,912.4463896109024,None,None,None,None,,14,001,2023_Jan_20_1054,searchDisc5,2021.2.3,59.98123930357988,
images/exp2a_trial_117_colour2_distractors4_l.png,l,1,2,4,0,,,,,0,214,214,214,,,,,,,,,,,,,,,,,,,,,,,,,,,,,,,,,,,,,,,,,,,912.4662634920096,None,2,1.1049697099952027,912.4662634920096,None,,,,,,,,,,,,,,,,None,None,None,,None,None,913.614709549991,None,1,1,1.0191434099979233,913.614709549991,None,914.6304062789073,None,None,None,None,,14,001,2023_Jan_20_1054,searchDisc5,2021.2.3,59.98123930357988,
images/exp2c_trial_289_colour1_distractors4_r.png,r,3,1,4,0,,,,,0,215,215,215,,,,,,,,,,,,,,,,,,,,,,,,,,,,,,,,,,,,,,,,,,,914.6478676929837,None,2,1.0377089329995215,914.6478676929837,None,,,,,,,,,,,,,,,,None,None,None,,None,None,915.732780463004,None,3,1,0.9705363340035547,915.732780463004,None,916.6970860648959,None,None,None,None,,14,001,2023_Jan_20_1054,searchDisc5,2021.2.3,59.98123930357988,
images/exp1a_trial_101_colour2_distractors1_r.png,r,3,2,1,0,,,,,0,216,216,216,,,,,,,,,,,,,,,,,,,,,,,,,,,,,,,,,,,,,,,,,,,916.7139161170053,None,2,1.004053570999531,916.7139161170053,None,,,,,,,,,,,,,,,,None,None,None,,None,None,917.7648837839952,None,3,1,0.9376822740014177,917.7648837839952,None,918.6970237418951,None,None,None,None,,14,001,2023_Jan_20_1054,searchDisc5,2021.2.3,59.98123930357988,
images/exp2b_trial_307_colour1_distractors31_l.png,l,1,1,31,0,,,,,0,217,217,217,,,,,,,,,,,,,,,,,,,,,,,,,,,,,,,,,,,,,,,,,,,918.7159924779844,None,2,1.038888761017006,918.7159924779844,None,,,,,,,,,,,,,,,,None,None,None,,None,None,919.7994295429962,None,1,1,0.9837195140135009,919.7994295429962,None,920.7815595298831,None,None,None,None,,14,001,2023_Jan_20_1054,searchDisc5,2021.2.3,59.98123930357988,
images/exp2a_trial_253_colour3_distractors31_l.png,l,1,3,31,0,,,,,0,218,218,218,,,,,,,,,,,,,,,,,,,,,,,,,,,,,,,,,,,,,,,,,,,920.7972698230005,None,2,1.0704948619822972,920.7972698230005,None,,,,,,,,,,,,,,,,None,None,None,,None,None,921.9142485439952,None,1,1,0.9493383120279759,921.9142485439952,None,922.8635335758969,None,None,None,None,,14,001,2023_Jan_20_1054,searchDisc5,2021.2.3,59.98123930357988,
images/exp2a_trial_224_colour1_distractors1_r.png,r,3,1,1,0,,,,,0,219,219,219,,,,,,,,,,,,,,,,,,,,,,,,,,,,,,,,,,,,,,,,,,,922.880716730986,None,2,1.0714189880236518,922.880716730986,None,,,,,,,,,,,,,,,,None,None,None,,None,None,924.0007498580089,None,3,1,1.0204467340081464,924.0007498580089,None,925.013604505884,None,None,None,None,,14,001,2023_Jan_20_1054,searchDisc5,2021.2.3,59.98123930357988,
images/exp1a_trial_108_colour3_distractors9_r.png,r,3,3,9,0,,,,,0,220,220,220,,,,,,,,,,,,,,,,,,,,,,,,,,,,,,,,,,,,,,,,,,,925.0314711380051,None,2,0.9572354310075752,925.0314711380051,None,,,,,,,,,,,,,,,,None,None,None,,None,None,926.0317060310044,None,3,1,0.9333358450094238,926.0317060310044,None,926.964585627889,None,None,None,None,,14,001,2023_Jan_20_1054,searchDisc5,2021.2.3,59.98123930357988,
images/exp2c_trial_271_colour1_distractors1_l.png,l,1,1,1,0,,,,,0,221,221,221,,,,,,,,,,,,,,,,,,,,,,,,,,,,,,,,,,,,,,,,,,,926.9813460439909,None,2,1.0039104289899115,926.9813460439909,None,,,,,,,,,,,,,,,,None,None,None,,None,None,928.0341162520053,None,1,1,0.9250121100049,928.0341162520053,None,928.9503666798934,None,None,None,None,,14,001,2023_Jan_20_1054,searchDisc5,2021.2.3,59.98123930357988,
images/exp1a_trial_67_colour1_distractors19_r.png,r,3,1,19,0,,,,,0,222,222,222,,,,,,,,,,,,,,,,,,,,,,,,,,,,,,,,,,,,,,,,,,,928.9669787629973,None,2,1.0522165409929585,928.9669787629973,None,,,,,,,,,,,,,,,,None,None,None,,None,None,930.0668224160036,None,3,1,0.984829298016848,930.0668224160036,None,931.0485535899003,None,None,None,None,,14,001,2023_Jan_20_1054,searchDisc5,2021.2.3,59.98123930357988,
images/exp2c_trial_208_colour1_distractors4_l.png,l,1,1,4,0,,,,,0,223,223,223,,,,,,,,,,,,,,,,,,,,,,,,,,,,,,,,,,,,,,,,,,,931.0664003670099,None,2,1.0198570079810452,931.0664003670099,None,,,,,,,,,,,,,,,,None,None,None,,None,None,932.1322107629967,None,1,1,0.9042463839869015,932.1322107629967,None,933.0307613038982,None,None,None,None,,14,001,2023_Jan_20_1054,searchDisc5,2021.2.3,59.98123930357988,
images/exp2c_trial_304_colour1_distractors4_l.png,l,1,1,4,0,,,,,0,224,224,224,,,,,,,,,,,,,,,,,,,,,,,,,,,,,,,,,,,,,,,,,,,933.0487849059864,None,2,0.9868585270014592,933.0487849059864,None,,,,,,,,,,,,,,,,None,None,None,,None,None,934.0813262849988,None,1,1,0.9391535579925403,934.0813262849988,None,935.0152929188858,None,None,None,None,,14,001,2023_Jan_20_1054,searchDisc5,2021.2.3,59.98123930357988,
images/exp1a_trial_192_colour1_distractors1_r.png,r,3,1,1,0,,,,,0,225,225,225,,,,,,,,,,,,,,,,,,,,,,,,,,,,,,,,,,,,,,,,,,,935.0317504559935,None,2,0.9710794029815588,935.0317504559935,None,,,,,,,,,,,,,,,,None,None,None,,None,None,936.0482134420017,None,3,1,0.9709449939837214,936.0482134420017,None,937.0143444449001,None,None,None,None,,14,001,2023_Jan_20_1054,searchDisc5,2021.2.3,59.98123930357988,
images/exp1a_trial_313_colour3_distractors1_l.png,l,1,3,1,0,,,,,0,226,226,226,,,,,,,,,,,,,,,,,,,,,,,,,,,,,,,,,,,,,,,,,,,937.0319901799958,None,2,1.0208260260114912,937.0319901799958,None,,,,,,,,,,,,,,,,None,None,None,,None,None,938.1001234540017,None,1,1,0.9716343200125266,938.1001234540017,None,939.0644394349016,None,None,None,None,,14,001,2023_Jan_20_1054,searchDisc5,2021.2.3,59.98123930357988,
