ImageFile,targ_side,correctAnswer,colour,distNo,targetType,trials_2.thisRepN,trials_2.thisTrialN,trials_2.thisN,trials_2.thisIndex,trials.thisRepN,trials.thisTrialN,trials.thisN,trials.thisIndex,text_6.started,text_6.stopped,buttonBox.keys,buttonBox.rt,buttonBox.started,buttonBox.stopped,text_7.started,text_7.stopped,buttonBox_3.keys,buttonBox_3.rt,buttonBox_3.started,buttonBox_3.stopped,text_8.started,text_8.stopped,buttonBox_4.keys,buttonBox_4.rt,buttonBox_4.started,buttonBox_4.stopped,text_9.started,text_9.stopped,buttonBox_5.keys,buttonBox_5.rt,buttonBox_5.started,buttonBox_5.stopped,text_2.started,text_2.stopped,buttonBox_6.keys,buttonBox_6.rt,buttonBox_6.started,buttonBox_6.stopped,text_5.started,text_5.stopped,buttonBox_7.keys,buttonBox_7.rt,image_2.started,image_2.stopped,image_3.started,image_3.stopped,buttonBox_8.keys,buttonBox_8.rt,buttonBox_8.started,buttonBox_8.stopped,polygon.started,polygon.stopped,buttonBox_9.keys,buttonBox_9.rt,buttonBox_9.started,buttonBox_9.stopped,image.started,image.stopped,buttonBox_10.keys,buttonBox_10.corr,buttonBox_10.rt,buttonBox_10.started,buttonBox_10.stopped,text_4.started,text_4.stopped,text.started,text.stopped,buttonBox_11.keys,buttonBox_11.rt,buttonBox_11.started,buttonBox_11.stopped,targetTypeInstruction.started,targetTypeInstruction.stopped,buttonBox_2.keys,buttonBox_2.rt,buttonBox_2.started,buttonBox_2.stopped,dispStimuli.started,dispStimuli.stopped,buttonBox_12.keys,buttonBox_12.corr,buttonBox_12.rt,buttonBox_12.started,buttonBox_12.stopped,breakMessage.started,breakMessage.stopped,buttonBox_13.keys,buttonBox_13.started,buttonBox_13.stopped,buttonBox_13.rt,participant,session,date,expName,psychopyVersion,frameRate,
,,,,,,,,,,,,,,26.653154399013147,None,2,51.66620418702951,26.653154399013147,None,,,,,,,,,,,,,,,,,,,,,,,,,,,,,,,,,,,,,,,,,,,,,,,,,,,,,,,,,,,,,,,,,,,,,,,,,,,,,16,001,2023_Jan_20_1346,searchDisc5,2021.2.3,59.969231354277575,
,,,,,,,,,,,,,,,,,,,,78.31930226401892,None,2,26.198344318021554,78.31930226401892,None,,,,,,,,,,,,,,,,,,,,,,,,,,,,,,,,,,,,,,,,,,,,,,,,,,,,,,,,,,,,,,,,,,,,,,,16,001,2023_Jan_20_1346,searchDisc5,2021.2.3,59.969231354277575,
,,,,,,,,,,,,,,,,,,,,,,,,,,104.52013453602558,None,2,5.197872827004176,104.52013453602558,None,,,,,,,,,,,,,,,,,,,,,,,,,,,,,,,,,,,,,,,,,,,,,,,,,,,,,,,,,,,,,,,,,16,001,2023_Jan_20_1346,searchDisc5,2021.2.3,59.969231354277575,
,,,,,,,,,,,,,,,,,,,,,,,,,,,,,,,,109.72015392198227,None,2,2.816655370988883,109.72015392198227,None,,,,,,,,,,,,,,,,,,,,,,,,,,,,,,,,,,,,,,,,,,,,,,,,,,,,,,,,,,,16,001,2023_Jan_20_1346,searchDisc5,2021.2.3,59.969231354277575,
,,,,,,,,,,,,,,,,,,,,,,,,,,,,,,,,,,,,,,112.53899146802723,None,2,5.31443946500076,113.52256993099581,None,,,,,,,,,,,,,,,,,,,,,,,,,,,,,,,,,,,,,,,,,,,,,,,,,,,,,16,001,2023_Jan_20_1346,searchDisc5,2021.2.3,59.969231354277575,
,,,,,,,,,,,,,,,,,,,,,,,,,,,,,,,,,,,,,,,,,,,,118.83702759299194,None,2,7.850306175998412,,,,,,,,,,,,,,,,,,,,,,,,,,,,,,,,,,,,,,,,,,,,,,,,,16,001,2023_Jan_20_1346,searchDisc5,2021.2.3,59.969231354277575,
,,,,,,,,,,,,,,,,,,,,,,,,,,,,,,,,,,,,,,,,,,,,,,,,129.6870212170179,None,129.6870212170179,None,2,12.478531050030142,129.6870212170179,None,,,,,,,,,,,,,,,,,,,,,,,,,,,,,,,,,,,,,,,,,16,001,2023_Jan_20_1346,searchDisc5,2021.2.3,59.969231354277575,
Practice arrays/exp1a_trial_1_colour1_distractors4_r.png,r,3,,,,0,0,0,1,,,,,,,,,,,,,,,,,,,,,,,,,,,,,,,,,,,,,,,,,,,,,,,142.18703681597253,None,2,2.3697775110485964,142.18703681597253,None,144.62330826197285,None,3,1,3.2231161880190484,144.62330826197285,None,147.83755803800886,None,,,,,,,,,,,,,,,,,,,,,,,,,,16,001,2023_Jan_20_1346,searchDisc5,2021.2.3,59.969231354277575,
Practice arrays/exp1a_trial_30_colour0_distractors0_r.png,r,3,,,,0,1,1,14,,,,,,,,,,,,,,,,,,,,,,,,,,,,,,,,,,,,,,,,,,,,,,,149.83977841801243,None,2,1.2658745109802112,149.83977841801243,None,151.15488768398063,None,3,1,0.8010686819907278,151.15488768398063,None,151.95475027698558,None,,,,,,,,,,,,,,,,,,,,,,,,,,16,001,2023_Jan_20_1346,searchDisc5,2021.2.3,59.969231354277575,
Practice arrays/exp1a_trial_8_colour2_distractors19_r.png,r,3,,,,0,2,2,3,,,,,,,,,,,,,,,,,,,,,,,,,,,,,,,,,,,,,,,,,,,,,,,153.95654012000887,None,2,0.5637054269900545,153.95654012000887,None,154.5716066660243,None,3,1,0.6515904209809378,154.5716066660243,None,155.2214012509794,None,,,,,,,,,,,,,,,,,,,,,,,,,,16,001,2023_Jan_20_1346,searchDisc5,2021.2.3,59.969231354277575,
Practice arrays/exp1a_trial_27_colour3_distractors9_l.png,l,1,,,,0,3,3,12,,,,,,,,,,,,,,,,,,,,,,,,,,,,,,,,,,,,,,,,,,,,,,,157.22307674301555,None,2,0.8818854379933327,157.22307674301555,None,158.15440299001057,None,1,1,0.6693940859986469,158.15440299001057,None,158.82136761699803,None,,,,,,,,,,,,,,,,,,,,,,,,,,16,001,2023_Jan_20_1346,searchDisc5,2021.2.3,59.969231354277575,
Practice arrays/exp1a_trial_0_colour1_distractors1_r.png,r,3,,,,0,4,4,0,,,,,,,,,,,,,,,,,,,,,,,,,,,,,,,,,,,,,,,,,,,,,,,160.82306019897806,None,2,0.5469132409780286,160.82306019897806,None,161.42119661299512,None,3,1,0.9725393599946983,161.42119661299512,None,162.38835100497818,None,,,,,,,,,,,,,,,,,,,,,,,,,,16,001,2023_Jan_20_1346,searchDisc5,2021.2.3,59.969231354277575,
Practice arrays/exp1a_trial_21_colour2_distractors4_l.png,l,1,,,,0,5,5,9,,,,,,,,,,,,,,,,,,,,,,,,,,,,,,,,,,,,,,,,,,,,,,,164.39038615801837,None,2,1.0144364750012755,164.39038615801837,None,165.45733087998815,None,1,1,0.7071262290119193,165.45733087998815,None,166.15516371501144,None,,,,,,,,,,,,,,,,,,,,,,,,,,16,001,2023_Jan_20_1346,searchDisc5,2021.2.3,59.969231354277575,
Practice arrays/exp1a_trial_12_colour3_distractors9_r.png,r,3,,,,0,6,6,5,,,,,,,,,,,,,,,,,,,,,,,,,,,,,,,,,,,,,,,,,,,,,,,168.1572941400227,None,2,0.4993540109717287,168.1572941400227,None,168.7073947309982,None,3,1,0.5704775630147196,168.7073947309982,None,169.27178894897224,None,,,,,,,,,,,,,,,,,,,,,,,,,,16,001,2023_Jan_20_1346,searchDisc5,2021.2.3,59.969231354277575,
Practice arrays/exp1a_trial_14_colour3_distractors31_r.png,r,3,,,,0,7,7,6,,,,,,,,,,,,,,,,,,,,,,,,,,,,,,,,,,,,,,,,,,,,,,,171.27353717398364,None,2,0.8992678030044772,171.27353717398364,None,172.22218372800853,None,3,1,0.5842260309727862,172.22218372800853,None,172.8051380040124,None,,,,,,,,,,,,,,,,,,,,,,,,,,16,001,2023_Jan_20_1346,searchDisc5,2021.2.3,59.969231354277575,
Practice arrays/exp1a_trial_18_colour1_distractors19_l.png,l,1,,,,0,8,8,8,,,,,,,,,,,,,,,,,,,,,,,,,,,,,,,,,,,,,,,,,,,,,,,174.80734949099133,None,2,0.5810105929849669,174.80734949099133,None,175.43825369601836,None,1,1,0.7184006920433603,175.43825369601836,None,176.1553728649742,None,,,,,,,,,,,,,,,,,,,,,,,,,,16,001,2023_Jan_20_1346,searchDisc5,2021.2.3,59.969231354277575,
Practice arrays/exp1a_trial_7_colour2_distractors9_r.png,r,3,,,,0,9,9,2,,,,,,,,,,,,,,,,,,,,,,,,,,,,,,,,,,,,,,,,,,,,,,,178.15748755802633,None,2,0.847132180002518,178.15748755802633,None,179.057327935996,None,3,1,0.9706576519529335,179.057327935996,None,180.0221826150082,None,,,,,,,,,,,,,,,,,,,,,,,,,,16,001,2023_Jan_20_1346,searchDisc5,2021.2.3,59.969231354277575,
Practice arrays/exp1a_trial_31_colour0_distractors0_l.png,l,1,,,,0,10,10,15,,,,,,,,,,,,,,,,,,,,,,,,,,,,,,,,,,,,,,,,,,,,,,,182.02426481602015,None,2,0.5159450770006515,182.02426481602015,None,182.59102611802518,None,1,1,0.5049009619979188,182.59102611802518,None,183.08886564901331,None,,,,,,,,,,,,,,,,,,,,,,,,,,16,001,2023_Jan_20_1346,searchDisc5,2021.2.3,59.969231354277575,
Practice arrays/exp1a_trial_23_colour2_distractors19_l.png,l,1,,,,0,11,11,10,,,,,,,,,,,,,,,,,,,,,,,,,,,,,,,,,,,,,,,,,,,,,,,185.09095799102215,None,2,0.41405369399581105,185.09095799102215,None,185.5560727220145,None,1,1,0.8329441729583777,185.5560727220145,None,186.3889351899852,None,,,,,,,,,,,,,,,,,,,,,,,,,,16,001,2023_Jan_20_1346,searchDisc5,2021.2.3,59.969231354277575,
Practice arrays/exp1a_trial_16_colour1_distractors4_l.png,l,1,,,,0,12,12,13,,,,,,,,,,,,,,,,,,,,,,,,,,,,,,,,,,,,,,,,,,,,,,,188.3905850959709,None,2,3.213072923012078,188.3905850959709,None,191.65586842101766,None,1,1,0.7390411510132253,191.65586842101766,None,192.38914926699363,None,,,,,,,,,,,,,,,,,,,,,,,,,,16,001,2023_Jan_20_1346,searchDisc5,2021.2.3,59.969231354277575,
Practice arrays/exp1a_trial_17_colour1_distractors9_l.png,l,1,,,,0,13,13,7,,,,,,,,,,,,,,,,,,,,,,,,,,,,,,,,,,,,,,,,,,,,,,,194.39134043297963,None,2,0.7159644709900022,194.39134043297963,None,195.15767886198591,None,1,1,0.631512914027553,195.15767886198591,None,195.7892132200068,None,,,,,,,,,,,,,,,,,,,,,,,,,,16,001,2023_Jan_20_1346,searchDisc5,2021.2.3,59.969231354277575,
Practice arrays/exp1a_trial_10_colour3_distractors1_r.png,r,3,,,,0,14,14,4,,,,,,,,,,,,,,,,,,,,,,,,,,,,,,,,,,,,,,,,,,,,,,,197.7909937549848,None,2,0.3492236490128562,197.7909937549848,None,198.19145497499267,None,3,1,0.7040059620048851,198.19145497499267,None,198.88933507399634,None,,,,,,,,,,,,,,,,,,,,,,,,,,16,001,2023_Jan_20_1346,searchDisc5,2021.2.3,59.969231354277575,
Practice arrays/exp1a_trial_25_colour3_distractors1_l.png,l,1,,,,0,15,15,11,,,,,,,,,,,,,,,,,,,,,,,,,,,,,,,,,,,,,,,,,,,,,,,200.89135903399438,None,2,0.6645909870276228,200.89135903399438,None,201.6080053760088,None,1,1,0.6562999539892189,201.6080053760088,None,202.25611075002234,None,,,,,,,,,,,,,,,,,,,,,,,,,,16,001,2023_Jan_20_1346,searchDisc5,2021.2.3,59.969231354277575,
,,,,,,,,,,,,,,,,,,,,,,,,,,,,,,,,,,,,,,,,,,,,,,,,,,,,,,,,,,,,,,,,,,,,,,,204.3416527690133,None,2,5.331525899993721,205.32478280900978,None,,,,,,,,,,,,,,,,,,,,16,001,2023_Jan_20_1346,searchDisc5,2021.2.3,59.969231354277575,
images/exp1b_trial_263_colour2_distractors9_r.png,r,3,2,9,1,,,,,0,0,0,0,,,,,,,,,,,,,,,,,,,,,,,,,,,,,,,,,,,,,,,,,,,216.60596128797624,None,2,1.6621320659760386,216.60596128797624,None,,,,,,,,,,,,,,,,211.25786825700197,None,2,3.3503105479758233,213.25816715601832,None,218.3319259409909,None,1,0,0.9476596579770558,218.3319259409909,None,219.2900682102307,None,None,None,None,,16,001,2023_Jan_20_1346,searchDisc5,2021.2.3,59.969231354277575,
images/exp1b_trial_298_colour3_distractors1_r.png,r,3,3,1,1,,,,,0,1,1,1,,,,,,,,,,,,,,,,,,,,,,,,,,,,,,,,,,,,,,,,,,,219.30595630500466,None,2,2.5545887110056356,219.30595630500466,None,,,,,,,,,,,,,,,,None,None,None,,None,None,221.9062460970017,None,3,1,1.1548605790012516,221.9062460970017,None,223.0564164896263,None,None,None,None,,16,001,2023_Jan_20_1346,searchDisc5,2021.2.3,59.969231354277575,
images/exp1b_trial_30_colour0_distractors0_r.png,r,3,0,0,1,,,,,0,2,2,2,,,,,,,,,,,,,,,,,,,,,,,,,,,,,,,,,,,,,,,,,,,223.073087207973,None,2,1.8522762619541027,223.073087207973,None,,,,,,,,,,,,,,,,None,None,None,,None,None,224.97303549200296,None,3,1,0.6201322599663399,224.97303549200296,None,225.58985922262073,None,None,None,None,,16,001,2023_Jan_20_1346,searchDisc5,2021.2.3,59.969231354277575,
images/exp1b_trial_186_colour3_distractors4_l.png,l,1,3,4,1,,,,,0,3,3,3,,,,,,,,,,,,,,,,,,,,,,,,,,,,,,,,,,,,,,,,,,,225.60589748702478,None,2,1.7533328220015392,225.60589748702478,None,,,,,,,,,,,,,,,,None,None,None,,None,None,227.40669695899123,None,1,1,1.1722329659969546,227.40669695899123,None,228.57342988360907,None,None,None,None,,16,001,2023_Jan_20_1346,searchDisc5,2021.2.3,59.969231354277575,
images/exp1b_trial_208_colour1_distractors4_l.png,l,1,1,4,1,,,,,0,4,4,4,,,,,,,,,,,,,,,,,,,,,,,,,,,,,,,,,,,,,,,,,,,228.58995384402806,None,2,1.7530629090033472,228.58995384402806,None,,,,,,,,,,,,,,,,None,None,None,,None,None,230.3900579920155,None,1,1,0.8056128079770133,230.3900579920155,None,231.19032902157633,None,None,None,None,,16,001,2023_Jan_20_1346,searchDisc5,2021.2.3,59.969231354277575,
images/exp1b_trial_77_colour3_distractors19_r.png,r,3,3,19,1,,,,,0,5,5,5,,,,,,,,,,,,,,,,,,,,,,,,,,,,,,,,,,,,,,,,,,,231.20625028200448,None,2,1.7545789729920216,231.20625028200448,None,,,,,,,,,,,,,,,,None,None,None,,None,None,233.0073830980109,None,3,1,1.202074904984329,233.0073830980109,None,234.2069569976069,None,None,None,None,,16,001,2023_Jan_20_1346,searchDisc5,2021.2.3,59.969231354277575,
images/exp1b_trial_285_colour3_distractors31_l.png,l,1,3,31,1,,,,,0,6,6,6,,,,,,,,,,,,,,,,,,,,,,,,,,,,,,,,,,,,,,,,,,,234.22305864398368,None,2,1.9197043500025757,234.22305864398368,None,,,,,,,,,,,,,,,,None,None,None,,None,None,236.19001616997411,None,1,1,0.7704303160426207,236.19001616997411,None,236.95689893261297,None,None,None,None,,16,001,2023_Jan_20_1346,searchDisc5,2021.2.3,59.969231354277575,
images/exp1b_trial_113_colour1_distractors9_l.png,l,1,1,9,1,,,,,0,7,7,7,,,,,,,,,,,,,,,,,,,,,,,,,,,,,,,,,,,,,,,,,,,236.97367267502705,None,2,1.3390049670124426,236.97367267502705,None,,,,,,,,,,,,,,,,None,None,None,,None,None,238.35908776900033,None,1,1,0.7525532960426062,238.35908776900033,None,239.1072532165912,None,None,None,None,,16,001,2023_Jan_20_1346,searchDisc5,2021.2.3,59.969231354277575,
images/exp1b_trial_171_colour3_distractors4_r.png,r,3,3,4,1,,,,,0,8,8,8,,,,,,,,,,,,,,,,,,,,,,,,,,,,,,,,,,,,,,,,,,,239.12345514202025,None,2,1.1878312000189908,239.12345514202025,None,,,,,,,,,,,,,,,,None,None,None,,None,None,240.3571808959823,None,3,1,0.5881588089978322,240.3571808959823,None,240.94038879758446,None,None,None,None,,16,001,2023_Jan_20_1346,searchDisc5,2021.2.3,59.969231354277575,
images/exp1b_trial_48_colour1_distractors4_l.png,l,1,1,4,1,,,,,0,9,9,9,,,,,,,,,,,,,,,,,,,,,,,,,,,,,,,,,,,,,,,,,,,240.956953210989,None,2,1.2894322829670273,240.956953210989,None,,,,,,,,,,,,,,,,None,None,None,,None,None,242.29272209800547,None,1,1,1.2708594030118547,242.29272209800547,None,243.55718363958877,None,None,None,None,,16,001,2023_Jan_20_1346,searchDisc5,2021.2.3,59.969231354277575,
images/exp1b_trial_137_colour2_distractors31_r.png,r,3,2,31,1,,,,,0,10,10,10,,,,,,,,,,,,,,,,,,,,,,,,,,,,,,,,,,,,,,,,,,,243.57534446299542,None,2,1.4209331239690073,243.57534446299542,None,,,,,,,,,,,,,,,,None,None,None,,None,None,245.040684504027,None,3,1,0.9199765689554624,245.040684504027,None,245.9570705726277,None,None,None,None,,16,001,2023_Jan_20_1346,searchDisc5,2021.2.3,59.969231354277575,
images/exp1b_trial_176_colour1_distractors4_l.png,l,1,1,4,1,,,,,0,11,11,11,,,,,,,,,,,,,,,,,,,,,,,,,,,,,,,,,,,,,,,,,,,245.97384800901636,None,2,1.2375576180056669,245.97384800901636,None,,,,,,,,,,,,,,,,None,None,None,,None,None,247.2593471070286,None,1,1,0.6553546210052446,247.2593471070286,None,247.90658954062965,None,None,None,None,,16,001,2023_Jan_20_1346,searchDisc5,2021.2.3,59.969231354277575,
images/exp1b_trial_304_colour1_distractors4_l.png,l,1,1,4,1,,,,,0,12,12,12,,,,,,,,,,,,,,,,,,,,,,,,,,,,,,,,,,,,,,,,,,,247.9239696310251,None,2,1.138553311000578,247.9239696310251,None,,,,,,,,,,,,,,,,None,None,None,,None,None,249.10952617699513,None,1,1,0.6870720210135914,249.10952617699513,None,249.79074210060062,None,None,None,None,,16,001,2023_Jan_20_1346,searchDisc5,2021.2.3,59.969231354277575,
images/exp1b_trial_56_colour2_distractors31_l.png,l,1,2,31,1,,,,,0,13,13,13,,,,,,,,,,,,,,,,,,,,,,,,,,,,,,,,,,,,,,,,,,,249.80951400502818,None,2,1.0213336059823632,249.80951400502818,None,,,,,,,,,,,,,,,,None,None,None,,None,None,250.87412995001068,None,1,1,0.653675484994892,250.87412995001068,None,251.52390531762504,None,None,None,None,,16,001,2023_Jan_20_1346,searchDisc5,2021.2.3,59.969231354277575,
images/exp1b_trial_300_colour3_distractors9_r.png,r,3,3,9,1,,,,,0,14,14,14,,,,,,,,,,,,,,,,,,,,,,,,,,,,,,,,,,,,,,,,,,,251.54015649098437,None,2,1.0382962740259245,251.54015649098437,None,,,,,,,,,,,,,,,,None,None,None,,None,None,252.62421016499866,None,3,1,0.6376577700139023,252.62421016499866,None,253.25748950159178,None,None,None,None,,16,001,2023_Jan_20_1346,searchDisc5,2021.2.3,59.969231354277575,
images/exp1b_trial_213_colour2_distractors4_l.png,l,1,2,4,1,,,,,0,15,15,15,,,,,,,,,,,,,,,,,,,,,,,,,,,,,,,,,,,,,,,,,,,253.273626855982,None,2,1.1046091760508716,253.273626855982,None,,,,,,,,,,,,,,,,None,None,None,,None,None,254.42413583700545,None,1,1,0.7031685459660366,254.42413583700545,None,255.12401893360075,None,None,None,None,,16,001,2023_Jan_20_1346,searchDisc5,2021.2.3,59.969231354277575,
images/exp1b_trial_109_colour3_distractors19_r.png,r,3,3,19,1,,,,,0,16,16,16,,,,,,,,,,,,,,,,,,,,,,,,,,,,,,,,,,,,,,,,,,,255.14037796697812,None,2,0.9210487939999439,255.14037796697812,None,,,,,,,,,,,,,,,,None,None,None,,None,None,256.1100971099804,None,3,1,0.8861892699496821,256.1100971099804,None,256.99076686558544,None,None,None,None,,16,001,2023_Jan_20_1346,searchDisc5,2021.2.3,59.969231354277575,
images/exp1b_trial_167_colour2_distractors9_r.png,r,3,2,9,1,,,,,0,17,17,17,,,,,,,,,,,,,,,,,,,,,,,,,,,,,,,,,,,,,,,,,,,257.00743607699405,None,2,0.7047661420074292,257.00743607699405,None,,,,,,,,,,,,,,,,None,None,None,,None,None,257.75700602697907,None,3,1,0.8552922499948181,257.75700602697907,None,258.6079256866127,None,None,None,None,,16,001,2023_Jan_20_1346,searchDisc5,2021.2.3,59.969231354277575,
images/exp1b_trial_141_colour3_distractors19_r.png,r,3,3,19,1,,,,,0,18,18,18,,,,,,,,,,,,,,,,,,,,,,,,,,,,,,,,,,,,,,,,,,,258.6239377349848,None,2,0.7041020200122148,258.6239377349848,None,,,,,,,,,,,,,,,,None,None,None,,None,None,259.3741225859849,None,3,1,1.4702569150249474,259.3741225859849,None,260.8409982956131,None,None,None,None,,16,001,2023_Jan_20_1346,searchDisc5,2021.2.3,59.969231354277575,
images/exp1b_trial_100_colour1_distractors31_r.png,r,3,1,31,1,,,,,0,19,19,19,,,,,,,,,,,,,,,,,,,,,,,,,,,,,,,,,,,,,,,,,,,260.8571256949799,None,2,0.6877395519986749,260.8571256949799,None,,,,,,,,,,,,,,,,None,None,None,,None,None,261.59073257201817,None,3,1,0.5849605170078576,261.59073257201817,None,262.17441986859774,None,None,None,None,,16,001,2023_Jan_20_1346,searchDisc5,2021.2.3,59.969231354277575,
images/exp1b_trial_103_colour2_distractors9_r.png,r,3,2,9,1,,,,,0,20,20,20,,,,,,,,,,,,,,,,,,,,,,,,,,,,,,,,,,,,,,,,,,,262.1904319250025,None,2,0.49003364401869476,262.1904319250025,None,,,,,,,,,,,,,,,,None,None,None,,None,None,262.7241196790128,None,3,1,0.5534410679829307,262.7241196790128,None,263.2744043455808,None,None,None,None,,16,001,2023_Jan_20_1346,searchDisc5,2021.2.3,59.969231354277575,
images/exp1b_trial_230_colour2_distractors4_r.png,r,3,2,4,1,,,,,0,21,21,21,,,,,,,,,,,,,,,,,,,,,,,,,,,,,,,,,,,,,,,,,,,263.29091522999806,None,2,0.47350521199405193,263.29091522999806,None,,,,,,,,,,,,,,,,None,None,None,,None,None,263.8098829850205,None,3,1,0.5035459559876472,263.8098829850205,None,264.30772420261053,None,None,None,None,,16,001,2023_Jan_20_1346,searchDisc5,2021.2.3,59.969231354277575,
images/exp1b_trial_266_colour3_distractors1_r.png,r,3,3,1,1,,,,,0,22,22,22,,,,,,,,,,,,,,,,,,,,,,,,,,,,,,,,,,,,,,,,,,,264.324349320028,None,2,0.4898490740451962,264.324349320028,None,,,,,,,,,,,,,,,,None,None,None,,None,None,264.85950743901776,None,3,1,0.568442722025793,264.85950743901776,None,265.4236608395935,None,None,None,None,,16,001,2023_Jan_20_1346,searchDisc5,2021.2.3,59.969231354277575,
images/exp1b_trial_86_colour2_distractors9_l.png,l,1,2,9,1,,,,,0,23,23,23,,,,,,,,,,,,,,,,,,,,,,,,,,,,,,,,,,,,,,,,,,,265.4409100909834,None,2,0.8575256200274453,265.4409100909834,None,,,,,,,,,,,,,,,,None,None,None,,None,None,266.3410938649904,None,1,1,0.8023289350094274,266.3410938649904,None,267.14094975960904,None,None,None,None,,16,001,2023_Jan_20_1346,searchDisc5,2021.2.3,59.969231354277575,
images/exp1b_trial_315_colour3_distractors9_l.png,l,1,3,9,1,,,,,0,24,24,24,,,,,,,,,,,,,,,,,,,,,,,,,,,,,,,,,,,,,,,,,,,267.15778271202,None,2,0.538063081970904,267.15778271202,None,,,,,,,,,,,,,,,,None,None,None,,None,None,267.74343950499315,None,1,1,0.7678653679904528,267.74343950499315,None,268.50782426060175,None,None,None,None,,16,001,2023_Jan_20_1346,searchDisc5,2021.2.3,59.969231354277575,
images/exp1b_trial_23_colour2_distractors19_l.png,l,1,2,19,1,,,,,0,25,25,25,,,,,,,,,,,,,,,,,,,,,,,,,,,,,,,,,,,,,,,,,,,268.52646843902767,None,2,0.4706144739757292,268.52646843902767,None,,,,,,,,,,,,,,,,None,None,None,,None,None,269.041327007988,None,1,1,0.5542806289740838,269.041327007988,None,269.59131602562263,None,None,None,None,,16,001,2023_Jan_20_1346,searchDisc5,2021.2.3,59.969231354277575,
images/exp1b_trial_78_colour3_distractors31_r.png,r,3,3,31,1,,,,,0,26,26,26,,,,,,,,,,,,,,,,,,,,,,,,,,,,,,,,,,,,,,,,,,,269.6074454950285,None,2,0.4878336450201459,269.6074454950285,None,,,,,,,,,,,,,,,,None,None,None,,None,None,270.1415317989886,None,3,1,0.8185920109972358,270.1415317989886,None,270.9580034056329,None,None,None,None,,16,001,2023_Jan_20_1346,searchDisc5,2021.2.3,59.969231354277575,
images/exp1b_trial_241_colour1_distractors9_l.png,l,1,1,9,1,,,,,0,27,27,27,,,,,,,,,,,,,,,,,,,,,,,,,,,,,,,,,,,,,,,,,,,270.9747316609719,None,2,0.4900684009771794,270.9747316609719,None,,,,,,,,,,,,,,,,None,None,None,,None,None,271.51030565198744,None,1,1,0.7361318729817867,271.51030565198744,None,272.24084773663196,None,None,None,None,,16,001,2023_Jan_20_1346,searchDisc5,2021.2.3,59.969231354277575,
images/exp1b_trial_51_colour1_distractors31_l.png,l,1,1,31,1,,,,,0,28,28,28,,,,,,,,,,,,,,,,,,,,,,,,,,,,,,,,,,,,,,,,,,,272.25780424900586,None,2,0.4720487199956551,272.25780424900586,None,,,,,,,,,,,,,,,,None,None,None,,None,None,272.7745374829974,None,1,1,0.6347869950113818,272.7745374829974,None,273.40809397158444,None,None,None,None,,16,001,2023_Jan_20_1346,searchDisc5,2021.2.3,59.969231354277575,
images/exp1b_trial_42_colour3_distractors1_r.png,r,3,3,1,1,,,,,0,29,29,29,,,,,,,,,,,,,,,,,,,,,,,,,,,,,,,,,,,,,,,,,,,273.42442522902275,None,2,0.4538529679994099,273.42442522902275,None,,,,,,,,,,,,,,,,None,None,None,,None,None,273.9242944549769,None,3,1,1.1234737310442142,273.9242944549769,None,275.0413972895825,None,None,None,None,,16,001,2023_Jan_20_1346,searchDisc5,2021.2.3,59.969231354277575,
images/exp1b_trial_277_colour2_distractors4_l.png,l,1,2,4,1,,,,,0,30,30,30,,,,,,,,,,,,,,,,,,,,,,,,,,,,,,,,,,,,,,,,,,,275.0579202459776,None,2,0.4566132729523815,275.0579202459776,None,,,,,,,,,,,,,,,,None,None,None,,None,None,275.56019639701117,None,1,1,0.9871260979562066,275.56019639701117,None,276.54116082561666,None,None,None,None,,16,001,2023_Jan_20_1346,searchDisc5,2021.2.3,59.969231354277575,
images/exp1b_trial_52_colour2_distractors1_l.png,l,1,2,1,1,,,,,0,31,31,31,,,,,,,,,,,,,,,,,,,,,,,,,,,,,,,,,,,,,,,,,,,276.5578438519733,None,2,0.45703027304261923,276.5578438519733,None,,,,,,,,,,,,,,,,None,None,None,,None,None,277.05751669802703,None,1,1,0.7869555469951592,277.05751669802703,None,277.8409805166069,None,None,None,None,,16,001,2023_Jan_20_1346,searchDisc5,2021.2.3,59.969231354277575,
images/exp1b_trial_94_colour0_distractors0_r.png,r,3,0,0,1,,,,,0,32,32,32,,,,,,,,,,,,,,,,,,,,,,,,,,,,,,,,,,,,,,,,,,,277.86006803199416,None,2,0.5051113099907525,277.86006803199416,None,,,,,,,,,,,,,,,,None,None,None,,None,None,278.4102767750155,None,3,1,0.6400763739948161,278.4102767750155,None,279.04177183061836,None,None,None,None,,16,001,2023_Jan_20_1346,searchDisc5,2021.2.3,59.969231354277575,
images/exp1b_trial_228_colour1_distractors31_r.png,r,3,1,31,1,,,,,0,33,33,33,,,,,,,,,,,,,,,,,,,,,,,,,,,,,,,,,,,,,,,,,,,279.0582561260089,None,2,0.4041368299513124,279.0582561260089,None,,,,,,,,,,,,,,,,None,None,None,,None,None,279.50965446501505,None,3,1,1.052466330002062,279.50965446501505,None,280.5580058466061,None,None,None,None,,16,001,2023_Jan_20_1346,searchDisc5,2021.2.3,59.969231354277575,
images/exp1b_trial_175_colour1_distractors1_l.png,l,1,1,1,1,,,,,0,34,34,34,,,,,,,,,,,,,,,,,,,,,,,,,,,,,,,,,,,,,,,,,,,280.57429255597526,None,2,0.4213357960106805,280.57429255597526,None,,,,,,,,,,,,,,,,None,None,None,,None,None,281.0436273390078,None,1,1,0.7064204500056803,281.0436273390078,None,281.7417349755764,None,None,None,None,,16,001,2023_Jan_20_1346,searchDisc5,2021.2.3,59.969231354277575,
images/exp1b_trial_122_colour3_distractors4_l.png,l,1,3,4,1,,,,,0,35,35,35,,,,,,,,,,,,,,,,,,,,,,,,,,,,,,,,,,,,,,,,,,,281.75814379402436,None,2,0.42132694501196966,281.75814379402436,None,,,,,,,,,,,,,,,,None,None,None,,None,None,282.22726019099355,None,1,1,0.771876604994759,282.22726019099355,None,282.99169856359947,None,None,None,None,,16,001,2023_Jan_20_1346,searchDisc5,2021.2.3,59.969231354277575,
images/exp1b_trial_292_colour1_distractors31_r.png,r,3,1,31,1,,,,,0,36,36,36,,,,,,,,,,,,,,,,,,,,,,,,,,,,,,,,,,,,,,,,,,,283.0098617430194,None,2,0.3546245920006186,283.0098617430194,None,,,,,,,,,,,,,,,,None,None,None,,None,None,283.41065061901463,None,3,1,0.9520343559561297,283.41065061901463,None,284.3581920246128,None,None,None,None,,16,001,2023_Jan_20_1346,searchDisc5,2021.2.3,59.969231354277575,
images/exp1b_trial_281_colour3_distractors1_l.png,l,1,3,1,1,,,,,0,37,37,37,,,,,,,,,,,,,,,,,,,,,,,,,,,,,,,,,,,,,,,,,,,284.37483496702043,None,2,0.5564491199911572,284.37483496702043,None,,,,,,,,,,,,,,,,None,None,None,,None,None,284.97521646600217,None,1,1,0.8873225410352461,284.97521646600217,None,285.8578328646021,None,None,None,None,,16,001,2023_Jan_20_1346,searchDisc5,2021.2.3,59.969231354277575,
images/exp1b_trial_97_colour1_distractors4_r.png,r,3,1,4,1,,,,,0,38,38,38,,,,,,,,,,,,,,,,,,,,,,,,,,,,,,,,,,,,,,,,,,,285.87675206398126,None,2,0.3906038720160723,285.87675206398126,None,,,,,,,,,,,,,,,,None,None,None,,None,None,286.31023948302027,None,3,1,0.7031434070086107,286.31023948302027,None,287.0079910206026,None,None,None,None,,16,001,2023_Jan_20_1346,searchDisc5,2021.2.3,59.969231354277575,
images/exp1b_trial_90_colour3_distractors4_l.png,l,1,3,4,1,,,,,0,39,39,39,,,,,,,,,,,,,,,,,,,,,,,,,,,,,,,,,,,,,,,,,,,287.0250630470109,None,2,0.38820572901749983,287.0250630470109,None,,,,,,,,,,,,,,,,None,None,None,,None,None,287.4582210869994,None,1,1,0.6732696440303698,287.4582210869994,None,288.1251069496269,None,None,None,None,,16,001,2023_Jan_20_1346,searchDisc5,2021.2.3,59.969231354277575,
images/exp1b_trial_240_colour1_distractors4_l.png,l,1,1,4,1,,,,,0,40,40,40,,,,,,,,,,,,,,,,,,,,,,,,,,,,,,,,,,,,,,,,,,,288.14183190400945,None,2,0.33790450100786984,288.14183190400945,None,,,,,,,,,,,,,,,,None,None,None,,None,None,288.52513848402305,None,1,1,0.7053968739928678,288.52513848402305,None,289.224901827611,None,None,None,None,,16,001,2023_Jan_20_1346,searchDisc5,2021.2.3,59.969231354277575,
images/exp1b_trial_302_colour3_distractors31_r.png,r,3,3,31,1,,,,,0,41,41,41,,,,,,,,,,,,,,,,,,,,,,,,,,,,,,,,,,,,,,,,,,,289.2415890659904,None,2,0.2876514670206234,289.2415890659904,None,,,,,,,,,,,,,,,,None,None,None,,None,None,289.5753817699733,None,3,1,0.7857919550151564,289.5753817699733,None,290.3578026976087,None,None,None,None,,16,001,2023_Jan_20_1346,searchDisc5,2021.2.3,59.969231354277575,
images/exp1b_trial_8_colour2_distractors19_r.png,r,3,2,19,1,,,,,0,42,42,42,,,,,,,,,,,,,,,,,,,,,,,,,,,,,,,,,,,,,,,,,,,290.3749017660157,None,2,0.38800277799600735,290.3749017660157,None,,,,,,,,,,,,,,,,None,None,None,,None,None,290.8106725609978,None,3,1,1.0547428680001758,290.8106725609978,None,291.85832406257975,None,None,None,None,,16,001,2023_Jan_20_1346,searchDisc5,2021.2.3,59.969231354277575,
images/exp1b_trial_198_colour2_distractors4_r.png,r,3,2,4,1,,,,,0,43,43,43,,,,,,,,,,,,,,,,,,,,,,,,,,,,,,,,,,,,,,,,,,,291.87441237899475,None,2,0.37151731603080407,291.87441237899475,None,,,,,,,,,,,,,,,,None,None,None,,None,None,292.2921004460077,None,3,1,0.7220987289911136,292.2921004460077,None,293.00841241158776,None,None,None,None,,16,001,2023_Jan_20_1346,searchDisc5,2021.2.3,59.969231354277575,
images/exp1b_trial_132_colour1_distractors31_r.png,r,3,1,31,1,,,,,0,44,44,44,,,,,,,,,,,,,,,,,,,,,,,,,,,,,,,,,,,,,,,,,,,293.0271227249759,None,2,0.33805166295496747,293.0271227249759,None,,,,,,,,,,,,,,,,None,None,None,,None,None,293.41054248501314,None,3,1,0.9192325899493881,293.41054248501314,None,294.3253015965805,None,None,None,None,,16,001,2023_Jan_20_1346,searchDisc5,2021.2.3,59.969231354277575,
images/exp1b_trial_61_colour3_distractors31_l.png,l,1,3,31,1,,,,,0,45,45,45,,,,,,,,,,,,,,,,,,,,,,,,,,,,,,,,,,,,,,,,,,,294.3417801670148,None,2,0.32310650002909824,294.3417801670148,None,,,,,,,,,,,,,,,,None,None,None,,None,None,294.7086453710217,None,1,1,1.4173939229804091,294.7086453710217,None,296.1254066956229,None,None,None,None,,16,001,2023_Jan_20_1346,searchDisc5,2021.2.3,59.969231354277575,
images/exp1b_trial_2_colour1_distractors9_r.png,r,3,1,9,1,,,,,0,46,46,46,,,,,,,,,,,,,,,,,,,,,,,,,,,,,,,,,,,,,,,,,,,296.1419164260151,None,2,0.3042347290320322,296.1419164260151,None,,,,,,,,,,,,,,,,None,None,None,,None,None,296.49219184299,None,3,1,0.9380812130402774,296.49219184299,None,297.4250609606155,None,None,None,None,,16,001,2023_Jan_20_1346,searchDisc5,2021.2.3,59.969231354277575,
images/exp1b_trial_27_colour3_distractors9_l.png,l,1,3,9,1,,,,,0,47,47,47,,,,,,,,,,,,,,,,,,,,,,,,,,,,,,,,,,,,,,,,,,,297.44120343902614,None,2,0.30498615000396967,297.44120343902614,None,,,,,,,,,,,,,,,,None,None,None,,None,None,297.79204042599304,None,1,1,0.837409635016229,297.79204042599304,None,298.62481309261636,None,None,None,None,,16,001,2023_Jan_20_1346,searchDisc5,2021.2.3,59.969231354277575,
images/exp1b_trial_69_colour2_distractors1_r.png,r,3,2,1,1,,,,,0,48,48,48,,,,,,,,,,,,,,,,,,,,,,,,,,,,,,,,,,,,,,,,,,,298.64197645999957,None,2,0.2572479780064896,298.64197645999957,None,,,,,,,,,,,,,,,,None,None,None,,None,None,298.94217543001287,None,3,1,0.9374179480364546,298.94217543001287,None,299.8753107386059,None,None,None,None,,16,001,2023_Jan_20_1346,searchDisc5,2021.2.3,59.969231354277575,
images/exp1b_trial_280_colour2_distractors31_l.png,l,1,2,31,1,,,,,0,49,49,49,,,,,,,,,,,,,,,,,,,,,,,,,,,,,,,,,,,,,,,,,,,299.8913820920279,None,2,0.3380517630139366,299.8913820920279,None,,,,,,,,,,,,,,,,None,None,None,,None,None,300.274979771988,None,1,1,0.8537867580307648,300.274979771988,None,301.12538835258454,None,None,None,None,,16,001,2023_Jan_20_1346,searchDisc5,2021.2.3,59.969231354277575,
images/exp1b_trial_16_colour1_distractors4_l.png,l,1,1,4,1,,,,,0,50,50,50,,,,,,,,,,,,,,,,,,,,,,,,,,,,,,,,,,,,,,,,,,,301.1435375959845,None,2,0.2556482829968445,301.1435375959845,None,,,,,,,,,,,,,,,,None,None,None,,None,None,301.44219142902875,None,1,1,0.8373766500153579,301.44219142902875,None,302.27482838961294,None,None,None,None,,16,001,2023_Jan_20_1346,searchDisc5,2021.2.3,59.969231354277575,
images/exp1b_trial_138_colour3_distractors1_r.png,r,3,3,1,1,,,,,0,51,51,51,,,,,,,,,,,,,,,,,,,,,,,,,,,,,,,,,,,,,,,,,,,302.29453353001736,None,2,0.2550614450010471,302.29453353001736,None,,,,,,,,,,,,,,,,None,None,None,,None,None,302.5923343609902,None,3,1,0.9062951839878224,302.5923343609902,None,303.49185959358,None,None,None,None,,16,001,2023_Jan_20_1346,searchDisc5,2021.2.3,59.969231354277575,
images/exp1b_trial_81_colour1_distractors9_l.png,l,1,1,9,1,,,,,0,52,52,52,,,,,,,,,,,,,,,,,,,,,,,,,,,,,,,,,,,,,,,,,,,303.5106783009833,None,2,0.3043014829745516,303.5106783009833,None,,,,,,,,,,,,,,,,None,None,None,,None,None,303.8590330249863,None,1,1,0.7873470829799771,303.8590330249863,None,304.64212887661995,None,None,None,None,,16,001,2023_Jan_20_1346,searchDisc5,2021.2.3,59.969231354277575,
images/exp1b_trial_233_colour2_distractors31_r.png,r,3,2,31,1,,,,,0,53,53,53,,,,,,,,,,,,,,,,,,,,,,,,,,,,,,,,,,,,,,,,,,,304.65805328602437,None,2,0.24010728299617767,304.65805328602437,None,,,,,,,,,,,,,,,,None,None,None,,None,None,304.9435884829727,None,3,1,0.785111028002575,304.9435884829727,None,305.72558401260756,None,None,None,None,,16,001,2023_Jan_20_1346,searchDisc5,2021.2.3,59.969231354277575,
images/exp1b_trial_147_colour1_distractors31_l.png,l,1,1,31,1,,,,,0,54,54,54,,,,,,,,,,,,,,,,,,,,,,,,,,,,,,,,,,,,,,,,,,,305.74213461898034,None,2,0.23992046696366742,305.74213461898034,None,,,,,,,,,,,,,,,,None,None,None,,None,None,306.0276123349904,None,1,1,1.2003844139981084,306.0276123349904,None,307.2255890696309,None,None,None,None,,16,001,2023_Jan_20_1346,searchDisc5,2021.2.3,59.969231354277575,
images/exp1b_trial_7_colour2_distractors9_r.png,r,3,2,9,1,,,,,0,55,55,55,,,,,,,,,,,,,,,,,,,,,,,,,,,,,,,,,,,,,,,,,,,307.2419053610065,None,2,0.5546488639665768,307.2419053610065,None,,,,,,,,,,,,,,,,None,None,None,,None,None,307.84396693698363,None,3,1,1.6880265359650366,307.84396693698363,None,309.5255184576148,None,None,None,None,,16,001,2023_Jan_20_1346,searchDisc5,2021.2.3,59.969231354277575,
images/exp1b_trial_163_colour1_distractors19_r.png,r,3,1,19,1,,,,,0,56,56,56,,,,,,,,,,,,,,,,,,,,,,,,,,,,,,,,,,,,,,,,,,,309.54402344301343,None,2,0.3376411939971149,309.54402344301343,None,,,,,,,,,,,,,,,,None,None,None,,None,None,309.9279079749831,None,3,1,0.7198495189659297,309.9279079749831,None,310.64218584661137,None,None,None,None,,16,001,2023_Jan_20_1346,searchDisc5,2021.2.3,59.969231354277575,
images/exp1b_trial_80_colour1_distractors4_l.png,l,1,1,4,1,,,,,0,57,57,57,,,,,,,,,,,,,,,,,,,,,,,,,,,,,,,,,,,,,,,,,,,310.65881632402306,None,2,0.2547255869721994,310.65881632402306,None,,,,,,,,,,,,,,,,None,None,None,,None,None,310.95915113098454,None,1,1,0.7728151479968801,310.95915113098454,None,311.72580012863034,None,None,None,None,,16,001,2023_Jan_20_1346,searchDisc5,2021.2.3,59.969231354277575,
images/exp1b_trial_17_colour1_distractors9_l.png,l,1,1,9,1,,,,,0,58,58,58,,,,,,,,,,,,,,,,,,,,,,,,,,,,,,,,,,,,,,,,,,,311.7440244149766,None,2,0.2538729780353606,311.7440244149766,None,,,,,,,,,,,,,,,,None,None,None,,None,None,312.0421016450273,None,1,1,0.7052501199650578,312.0421016450273,None,312.74223635261876,None,None,None,None,,16,001,2023_Jan_20_1346,searchDisc5,2021.2.3,59.969231354277575,
images/exp1b_trial_232_colour2_distractors19_r.png,r,3,2,19,1,,,,,0,59,59,59,,,,,,,,,,,,,,,,,,,,,,,,,,,,,,,,,,,,,,,,,,,312.758958994993,None,2,0.17152752203401178,312.758958994993,None,,,,,,,,,,,,,,,,None,None,None,,None,None,312.97790650301613,None,3,1,0.7707619779976085,312.97790650301613,None,313.74236495860384,None,None,None,None,,16,001,2023_Jan_20_1346,searchDisc5,2021.2.3,59.969231354277575,
images/exp1b_trial_84_colour2_distractors1_l.png,l,1,2,1,1,,,,,0,60,60,60,,,,,,,,,,,,,,,,,,,,,,,,,,,,,,,,,,,,,,,,,,,313.7589693960035,None,2,0.23796607297845185,313.7589693960035,None,,,,,,,,,,,,,,,,None,None,None,,None,None,314.0425747560221,None,1,1,0.8229735409840941,314.0425747560221,None,314.85899551658656,None,None,None,None,,16,001,2023_Jan_20_1346,searchDisc5,2021.2.3,59.969231354277575,
images/exp1b_trial_279_colour2_distractors19_l.png,l,1,2,19,1,,,,,0,61,61,61,,,,,,,,,,,,,,,,,,,,,,,,,,,,,,,,,,,,,,,,,,,314.8756224489771,None,2,0.1877201549941674,314.8756224489771,None,,,,,,,,,,,,,,,,None,None,None,,None,None,315.11116793501424,None,1,1,0.9380108919576742,315.11116793501424,None,316.041908573627,None,None,None,None,,16,001,2023_Jan_20_1346,searchDisc5,2021.2.3,59.969231354277575,
images/exp1b_trial_226_colour1_distractors9_r.png,r,3,1,9,1,,,,,0,62,62,62,,,,,,,,,,,,,,,,,,,,,,,,,,,,,,,,,,,,,,,,,,,316.05896269402,None,2,0.2257797120255418,316.05896269402,None,,,,,,,,,,,,,,,,None,None,None,,None,None,316.32783925399417,None,3,1,0.6840329199912958,316.32783925399417,None,317.00937071457736,None,None,None,None,,16,001,2023_Jan_20_1346,searchDisc5,2021.2.3,59.969231354277575,
images/exp1b_trial_303_colour1_distractors1_l.png,l,1,1,1,1,,,,,0,63,63,63,,,,,,,,,,,,,,,,,,,,,,,,,,,,,,,,,,,,,,,,,,,317.02777270798106,None,2,0.2211665179929696,317.02777270798106,None,,,,,,,,,,,,,,,,None,None,None,,None,None,317.29255539900623,None,1,1,0.8893404440023005,317.29255539900623,None,318.1759101865813,None,None,None,None,,16,001,2023_Jan_20_1346,searchDisc5,2021.2.3,59.969231354277575,
images/exp1b_trial_89_colour3_distractors1_l.png,l,1,3,1,1,,,,,0,64,64,64,,,,,,,,,,,,,,,,,,,,,,,,,,,,,,,,,,,,,,,,,,,318.1924164160155,None,2,0.24121994897723198,318.1924164160155,None,,,,,,,,,,,,,,,,None,None,None,,None,None,318.4781180630089,None,1,1,0.9364659730345011,318.4781180630089,None,319.40910781457785,None,None,None,None,,16,001,2023_Jan_20_1346,searchDisc5,2021.2.3,59.969231354277575,
images/exp1b_trial_218_colour3_distractors4_l.png,l,1,3,4,1,,,,,0,65,65,65,,,,,,,,,,,,,,,,,,,,,,,,,,,,,,,,,,,,,,,,,,,319.4278369569802,None,2,0.22125024802517146,319.4278369569802,None,,,,,,,,,,,,,,,,None,None,None,,None,None,319.6923673200072,None,1,1,0.9713677000254393,319.6923673200072,None,320.6592897036229,None,None,None,None,,16,001,2023_Jan_20_1346,searchDisc5,2021.2.3,59.969231354277575,
images/exp1b_trial_224_colour1_distractors1_r.png,r,3,1,1,1,,,,,0,66,66,66,,,,,,,,,,,,,,,,,,,,,,,,,,,,,,,,,,,,,,,,,,,320.675859488023,None,2,0.18799978197785094,320.675859488023,None,,,,,,,,,,,,,,,,None,None,None,,None,None,320.9115418189904,None,3,1,0.7890884590451606,320.9115418189904,None,321.6925715955789,None,None,None,None,,16,001,2023_Jan_20_1346,searchDisc5,2021.2.3,59.969231354277575,
images/exp1b_trial_88_colour2_distractors31_l.png,l,1,2,31,1,,,,,0,67,67,67,,,,,,,,,,,,,,,,,,,,,,,,,,,,,,,,,,,,,,,,,,,321.7091745910002,None,2,0.204652817978058,321.7091745910002,None,,,,,,,,,,,,,,,,None,None,None,,None,None,321.96168409497477,None,1,1,0.7535906009725295,321.96168409497477,None,322.7094473025994,None,None,None,None,,16,001,2023_Jan_20_1346,searchDisc5,2021.2.3,59.969231354277575,
images/exp1b_trial_196_colour1_distractors31_r.png,r,3,1,31,1,,,,,0,68,68,68,,,,,,,,,,,,,,,,,,,,,,,,,,,,,,,,,,,,,,,,,,,322.72571136802435,None,2,0.23754791199462488,322.72571136802435,None,,,,,,,,,,,,,,,,None,None,None,,None,None,323.0093614929938,None,3,1,1.5020568349864334,323.0093614929938,None,324.50928031959336,None,None,None,None,,16,001,2023_Jan_20_1346,searchDisc5,2021.2.3,59.969231354277575,
images/exp1b_trial_26_colour3_distractors4_l.png,l,1,3,4,1,,,,,0,69,69,69,,,,,,,,,,,,,,,,,,,,,,,,,,,,,,,,,,,,,,,,,,,324.5257419280242,None,2,0.32108388299820945,324.5257419280242,None,,,,,,,,,,,,,,,,None,None,None,,None,None,324.89231838297565,None,1,1,0.8884332079906017,324.89231838297565,None,325.7760514865862,None,None,None,None,,16,001,2023_Jan_20_1346,searchDisc5,2021.2.3,59.969231354277575,
images/exp1b_trial_214_colour2_distractors9_l.png,l,1,2,9,1,,,,,0,70,70,70,,,,,,,,,,,,,,,,,,,,,,,,,,,,,,,,,,,,,,,,,,,325.7945774969994,None,2,0.30467095400672406,325.7945774969994,None,,,,,,,,,,,,,,,,None,None,None,,None,None,326.14297453698236,None,1,1,0.7892935539712198,326.14297453698236,None,326.92607671858275,None,None,None,None,,16,001,2023_Jan_20_1346,searchDisc5,2021.2.3,59.969231354277575,
images/exp1b_trial_112_colour1_distractors4_l.png,l,1,1,4,1,,,,,0,71,71,71,,,,,,,,,,,,,,,,,,,,,,,,,,,,,,,,,,,,,,,,,,,326.94281308102654,None,2,0.18872104497859254,326.94281308102654,None,,,,,,,,,,,,,,,,None,None,None,,None,None,327.1783023090102,None,1,1,0.7372509979759343,327.1783023090102,None,327.9090523965773,None,None,None,None,,16,001,2023_Jan_20_1346,searchDisc5,2021.2.3,59.969231354277575,
images/exp1b_trial_40_colour2_distractors19_r.png,r,3,2,19,1,,,,,0,72,72,72,,,,,,,,,,,,,,,,,,,,,,,,,,,,,,,,,,,,,,,,,,,327.9259645320126,None,2,0.171390404982958,327.9259645320126,None,,,,,,,,,,,,,,,,None,None,None,,None,None,328.1452903239988,None,3,1,0.887936285987962,328.1452903239988,None,329.02598975561557,None,None,None,None,,16,001,2023_Jan_20_1346,searchDisc5,2021.2.3,59.969231354277575,
images/exp1b_trial_143_colour1_distractors1_l.png,l,1,1,1,1,,,,,0,73,73,73,,,,,,,,,,,,,,,,,,,,,,,,,,,,,,,,,,,,,,,,,,,329.04272392898565,None,2,0.3040993379545398,329.04272392898565,None,,,,,,,,,,,,,,,,None,None,None,,None,None,329.39257931202883,None,1,1,0.7900600319844671,329.39257931202883,None,330.1762195385876,None,None,None,None,,16,001,2023_Jan_20_1346,searchDisc5,2021.2.3,59.969231354277575,
images/exp1b_trial_267_colour3_distractors4_r.png,r,3,3,4,1,,,,,0,74,74,74,,,,,,,,,,,,,,,,,,,,,,,,,,,,,,,,,,,,,,,,,,,330.19276730000274,None,2,0.2710366400424391,330.19276730000274,None,,,,,,,,,,,,,,,,None,None,None,,None,None,330.50962516700383,None,3,1,0.9555785940028727,330.50962516700383,None,331.4596691886312,None,None,None,None,,16,001,2023_Jan_20_1346,searchDisc5,2021.2.3,59.969231354277575,
images/exp1b_trial_0_colour1_distractors1_r.png,r,3,1,1,1,,,,,0,75,75,75,,,,,,,,,,,,,,,,,,,,,,,,,,,,,,,,,,,,,,,,,,,331.4757075540256,None,2,0.22330159397097304,331.4757075540256,None,,,,,,,,,,,,,,,,None,None,None,,None,None,331.74539719801396,None,3,1,0.9374707959941588,331.74539719801396,None,332.67633174561195,None,None,None,None,,16,001,2023_Jan_20_1346,searchDisc5,2021.2.3,59.969231354277575,
images/exp1b_trial_169_colour2_distractors31_r.png,r,3,2,31,1,,,,,0,76,76,76,,,,,,,,,,,,,,,,,,,,,,,,,,,,,,,,,,,,,,,,,,,332.6949078940088,None,2,0.22133417695295066,332.6949078940088,None,,,,,,,,,,,,,,,,None,None,None,,None,None,332.95976996200625,None,3,1,1.6534672389971092,332.95976996200625,None,334.60956562663193,None,None,None,None,,16,001,2023_Jan_20_1346,searchDisc5,2021.2.3,59.969231354277575,
images/exp1b_trial_12_colour3_distractors9_r.png,r,3,3,9,1,,,,,0,77,77,77,,,,,,,,,,,,,,,,,,,,,,,,,,,,,,,,,,,,,,,,,,,334.6259328920278,None,2,0.23993828101083636,334.6259328920278,None,,,,,,,,,,,,,,,,None,None,None,,None,None,334.9119033039897,None,3,1,0.751562511024531,334.9119033039897,None,335.6595851126243,None,None,None,None,,16,001,2023_Jan_20_1346,searchDisc5,2021.2.3,59.969231354277575,
images/exp1b_trial_38_colour2_distractors4_r.png,r,3,2,4,1,,,,,0,78,78,78,,,,,,,,,,,,,,,,,,,,,,,,,,,,,,,,,,,,,,,,,,,335.6757645729813,None,2,0.27141606097575277,335.6757645729813,None,,,,,,,,,,,,,,,,None,None,None,,None,None,335.9930575559847,None,3,1,0.6080444659455679,335.9930575559847,None,336.5930004796013,None,None,None,None,,16,001,2023_Jan_20_1346,searchDisc5,2021.2.3,59.969231354277575,
images/exp1b_trial_185_colour3_distractors1_l.png,l,1,3,1,1,,,,,0,79,79,79,,,,,,,,,,,,,,,,,,,,,,,,,,,,,,,,,,,,,,,,,,,336.60938131500734,None,2,0.2711359389941208,336.60938131500734,None,,,,,,,,,,,,,,,,None,None,None,,None,None,336.92667771002743,None,3,0,0.6040717699797824,336.92667771002743,None,337.5257211245829,None,None,None,None,,16,001,2023_Jan_20_1346,searchDisc5,2021.2.3,59.969231354277575,
images/exp1b_trial_179_colour1_distractors31_l.png,l,1,1,31,1,,,,,0,80,80,80,,,,,,,,,,,,,,,,,,,,,,,,,,,,,,,,,,,,,,,,,,,337.5427527570282,None,2,1.1067407350055873,337.5427527570282,None,,,,,,,,,,,,,,,,None,None,None,,None,None,338.69506759301294,None,1,1,1.0669600049732253,338.69506759301294,None,339.75962901858145,None,None,None,None,,16,001,2023_Jan_20_1346,searchDisc5,2021.2.3,59.969231354277575,
images/exp1b_trial_210_colour1_distractors19_l.png,l,1,1,19,1,,,,,0,81,81,81,,,,,,,,,,,,,,,,,,,,,,,,,,,,,,,,,,,,,,,,,,,339.7761410109815,None,2,0.2564706630073488,339.7761410109815,None,,,,,,,,,,,,,,,,None,None,None,,None,None,340.07660117698833,None,1,1,0.7689401120296679,340.07660117698833,None,340.84239901058606,None,None,None,None,,16,001,2023_Jan_20_1346,searchDisc5,2021.2.3,59.969231354277575,
images/exp1b_trial_96_colour1_distractors1_r.png,r,3,1,1,1,,,,,0,82,82,82,,,,,,,,,,,,,,,,,,,,,,,,,,,,,,,,,,,,,,,,,,,340.85960988799343,None,2,0.2219902239739895,340.85960988799343,None,,,,,,,,,,,,,,,,None,None,None,,None,None,341.12633050000295,None,3,1,0.7543968969839625,341.12633050000295,None,341.8765939725912,None,None,None,None,,16,001,2023_Jan_20_1346,searchDisc5,2021.2.3,59.969231354277575,
images/exp1b_trial_219_colour3_distractors9_l.png,l,1,3,9,1,,,,,0,83,83,83,,,,,,,,,,,,,,,,,,,,,,,,,,,,,,,,,,,,,,,,,,,341.89305078901816,None,2,0.2733435779809952,341.89305078901816,None,,,,,,,,,,,,,,,,None,None,None,,None,None,342.2093981250073,None,1,1,0.8381782289943658,342.2093981250073,None,343.04289923862086,None,None,None,None,,16,001,2023_Jan_20_1346,searchDisc5,2021.2.3,59.969231354277575,
images/exp1b_trial_313_colour3_distractors1_l.png,l,1,3,1,1,,,,,0,84,84,84,,,,,,,,,,,,,,,,,,,,,,,,,,,,,,,,,,,,,,,,,,,343.06145568197826,None,2,0.20702324295416474,343.06145568197826,None,,,,,,,,,,,,,,,,None,None,None,,None,None,343.3100976939895,None,1,1,0.7516226500156336,343.3100976939895,None,344.0599369685864,None,None,None,None,,16,001,2023_Jan_20_1346,searchDisc5,2021.2.3,59.969231354277575,
images/exp1b_trial_117_colour2_distractors4_l.png,l,1,2,4,1,,,,,0,85,85,85,,,,,,,,,,,,,,,,,,,,,,,,,,,,,,,,,,,,,,,,,,,344.07600664900383,None,2,0.22339044295949861,344.07600664900383,None,,,,,,,,,,,,,,,,None,None,None,,None,None,344.3455635010032,None,1,1,0.736258955032099,344.3455635010032,None,345.0766100085806,None,None,None,None,,16,001,2023_Jan_20_1346,searchDisc5,2021.2.3,59.969231354277575,
images/exp1b_trial_258_colour1_distractors9_r.png,r,3,1,9,1,,,,,0,86,86,86,,,,,,,,,,,,,,,,,,,,,,,,,,,,,,,,,,,,,,,,,,,345.0928368389723,None,2,0.2064432009938173,345.0928368389723,None,,,,,,,,,,,,,,,,None,None,None,,None,None,345.34471214801306,None,3,1,0.8019267590134405,345.34471214801306,None,346.14330644961444,None,None,None,None,,16,001,2023_Jan_20_1346,searchDisc5,2021.2.3,59.969231354277575,
images/exp1b_trial_1_colour1_distractors4_r.png,r,3,1,4,1,,,,,0,87,87,87,,,,,,,,,,,,,,,,,,,,,,,,,,,,,,,,,,,,,,,,,,,346.15946785500273,None,2,0.23973743797978386,346.15946785500273,None,,,,,,,,,,,,,,,,None,None,None,,None,None,346.44552584702615,None,3,1,0.8701252600294538,346.44552584702615,None,347.3098816885962,None,None,None,None,,16,001,2023_Jan_20_1346,searchDisc5,2021.2.3,59.969231354277575,
images/exp1b_trial_32_colour1_distractors1_r.png,r,3,1,1,1,,,,,0,88,88,88,,,,,,,,,,,,,,,,,,,,,,,,,,,,,,,,,,,,,,,,,,,347.32608488597907,None,2,0.204845514963381,347.32608488597907,None,,,,,,,,,,,,,,,,None,None,None,,None,None,347.57872003299417,None,3,1,0.7896437380113639,347.57872003299417,None,348.3601577376015,None,None,None,None,,16,001,2023_Jan_20_1346,searchDisc5,2021.2.3,59.969231354277575,
images/exp1b_trial_20_colour2_distractors1_l.png,l,1,2,1,1,,,,,0,89,89,89,,,,,,,,,,,,,,,,,,,,,,,,,,,,,,,,,,,,,,,,,,,348.3761270699906,None,2,0.22313687100540847,348.3761270699906,None,,,,,,,,,,,,,,,,None,None,None,,None,None,348.64317856600974,None,1,1,0.7538238060078584,348.64317856600974,None,349.3929133686237,None,None,None,None,,16,001,2023_Jan_20_1346,searchDisc5,2021.2.3,59.969231354277575,
images/exp1b_trial_189_colour3_distractors31_l.png,l,1,3,31,1,,,,,0,90,90,90,,,,,,,,,,,,,,,,,,,,,,,,,,,,,,,,,,,,,,,,,,,349.4099573229905,None,2,0.20706965099088848,349.4099573229905,None,,,,,,,,,,,,,,,,None,None,None,,None,None,349.6622167750029,None,1,1,0.7508407120476477,349.6622167750029,None,350.4099890406127,None,None,None,None,,16,001,2023_Jan_20_1346,searchDisc5,2021.2.3,59.969231354277575,
images/exp1b_trial_155_colour3_distractors9_l.png,l,1,3,9,1,,,,,0,91,91,91,,,,,,,,,,,,,,,,,,,,,,,,,,,,,,,,,,,,,,,,,,,350.42641253001057,None,2,0.1710596100310795,350.42641253001057,None,,,,,,,,,,,,,,,,None,None,None,,None,None,350.64496776799206,None,1,1,1.1546639930456877,350.64496776799206,None,351.79345079060874,None,None,None,None,,16,001,2023_Jan_20_1346,searchDisc5,2021.2.3,59.969231354277575,
images/exp1b_trial_82_colour1_distractors19_l.png,l,1,1,19,1,,,,,0,92,92,92,,,,,,,,,,,,,,,,,,,,,,,,,,,,,,,,,,,,,,,,,,,351.8099724560161,None,2,0.1880719109904021,351.8099724560161,None,,,,,,,,,,,,,,,,None,None,None,,None,None,352.04557712801034,None,1,1,0.7532919409568422,352.04557712801034,None,352.79342085359383,None,None,None,None,,16,001,2023_Jan_20_1346,searchDisc5,2021.2.3,59.969231354277575,
images/exp1b_trial_133_colour2_distractors1_r.png,r,3,2,1,1,,,,,0,93,93,93,,,,,,,,,,,,,,,,,,,,,,,,,,,,,,,,,,,,,,,,,,,352.80971620301716,None,2,0.18801710300613195,352.80971620301716,None,,,,,,,,,,,,,,,,None,None,None,,None,None,353.0457061000052,None,3,1,0.6732506639673375,353.0457061000052,None,353.71006827863164,None,None,None,None,,16,001,2023_Jan_20_1346,searchDisc5,2021.2.3,59.969231354277575,
images/exp1b_trial_168_colour2_distractors19_r.png,r,3,2,19,1,,,,,0,94,94,94,,,,,,,,,,,,,,,,,,,,,,,,,,,,,,,,,,,,,,,,,,,353.7268202009727,None,2,0.23731225403025746,353.7268202009727,None,,,,,,,,,,,,,,,,None,None,None,,None,None,354.0103137550177,None,1,0,0.8544192049885169,354.0103137550177,None,354.86009142458204,None,None,None,None,,16,001,2023_Jan_20_1346,searchDisc5,2021.2.3,59.969231354277575,
images/exp1b_trial_193_colour1_distractors4_r.png,r,3,1,4,1,,,,,0,95,95,95,,,,,,,,,,,,,,,,,,,,,,,,,,,,,,,,,,,,,,,,,,,354.8767384730163,None,2,1.004238365974743,354.8767384730163,None,,,,,,,,,,,,,,,,None,None,None,,None,None,355.929072281986,None,3,1,0.6876143250265159,355.929072281986,None,356.6096884245984,None,None,None,None,,16,001,2023_Jan_20_1346,searchDisc5,2021.2.3,59.969231354277575,
images/exp1b_trial_47_colour1_distractors1_l.png,l,1,1,1,1,,,,,0,96,96,96,,,,,,,,,,,,,,,,,,,,,,,,,,,,,,,,,,,,,,,,,,,356.62858147197403,None,2,0.20639309898251668,356.62858147197403,None,,,,,,,,,,,,,,,,None,None,None,,None,None,356.87672676699003,None,1,1,0.8367510049720295,356.87672676699003,None,357.7104682895937,None,None,None,None,,16,001,2023_Jan_20_1346,searchDisc5,2021.2.3,59.969231354277575,
images/exp1b_trial_9_colour2_distractors31_r.png,r,3,2,31,1,,,,,0,97,97,97,,,,,,,,,,,,,,,,,,,,,,,,,,,,,,,,,,,,,,,,,,,357.7268262989819,None,2,0.22097644401947036,357.7268262989819,None,,,,,,,,,,,,,,,,None,None,None,,None,None,357.9958109150175,None,3,1,1.3535588279482909,357.9958109150175,None,359.343565507594,None,None,None,None,,16,001,2023_Jan_20_1346,searchDisc5,2021.2.3,59.969231354277575,
images/exp1b_trial_203_colour3_distractors4_r.png,r,3,3,4,1,,,,,0,98,98,98,,,,,,,,,,,,,,,,,,,,,,,,,,,,,,,,,,,,,,,,,,,359.3623738120077,None,2,0.4382150460151024,359.3623738120077,None,,,,,,,,,,,,,,,,None,None,None,,None,None,359.8430780899944,None,3,1,0.6550377429812215,359.8430780899944,None,360.49368252661077,None,None,None,None,,16,001,2023_Jan_20_1346,searchDisc5,2021.2.3,59.969231354277575,
images/exp1b_trial_286_colour0_distractors0_r.png,r,3,0,0,1,,,,,0,99,99,99,,,,,,,,,,,,,,,,,,,,,,,,,,,,,,,,,,,,,,,,,,,360.50965216598706,None,2,0.3546207410399802,360.50965216598706,None,,,,,,,,,,,,,,,,None,None,None,,None,None,360.91054713202175,None,3,1,0.6583076529786922,360.91054713202175,None,361.5603772555827,None,None,None,None,,16,001,2023_Jan_20_1346,searchDisc5,2021.2.3,59.969231354277575,
images/exp1b_trial_123_colour3_distractors9_l.png,l,1,3,9,1,,,,,0,100,100,100,,,,,,,,,,,,,,,,,,,,,,,,,,,,,,,,,,,,,,,,,,,361.57696149800904,None,2,0.28520942002069205,361.57696149800904,None,,,,,,,,,,,,,,,,None,None,None,,None,None,361.91054220998194,None,1,1,0.9883737150230445,361.91054220998194,None,362.89383146659236,None,None,None,None,,16,001,2023_Jan_20_1346,searchDisc5,2021.2.3,59.969231354277575,
images/exp1b_trial_164_colour1_distractors31_r.png,r,3,1,31,1,,,,,0,101,101,101,,,,,,,,,,,,,,,,,,,,,,,,,,,,,,,,,,,,,,,,,,,362.9103048610268,None,2,0.28786788700381294,362.9103048610268,None,,,,,,,,,,,,,,,,None,None,None,,None,None,363.24320331501076,None,3,1,0.88529748597648,363.24320331501076,None,364.1271281615831,None,None,None,None,,16,001,2023_Jan_20_1346,searchDisc5,2021.2.3,59.969231354277575,
images/exp1b_trial_312_colour2_distractors31_l.png,l,1,2,31,1,,,,,0,102,102,102,,,,,,,,,,,,,,,,,,,,,,,,,,,,,,,,,,,,,,,,,,,364.14330339600565,None,2,0.33932134800124913,364.14330339600565,None,,,,,,,,,,,,,,,,None,None,None,,None,None,364.52740506397095,None,1,1,0.9030239089624956,364.52740506397095,None,365.4270802346058,None,None,None,None,,16,001,2023_Jan_20_1346,searchDisc5,2021.2.3,59.969231354277575,
images/exp1b_trial_256_colour1_distractors1_r.png,r,3,1,1,1,,,,,0,103,103,103,,,,,,,,,,,,,,,,,,,,,,,,,,,,,,,,,,,,,,,,,,,365.4438056690269,None,2,0.23792929097544402,365.4438056690269,None,,,,,,,,,,,,,,,,None,None,None,,None,None,365.72717177600134,None,3,1,0.704932177963201,365.72717177600134,None,366.42703920361816,None,None,None,None,,16,001,2023_Jan_20_1346,searchDisc5,2021.2.3,59.969231354277575,
images/exp1b_trial_309_colour2_distractors4_l.png,l,1,2,4,1,,,,,0,104,104,104,,,,,,,,,,,,,,,,,,,,,,,,,,,,,,,,,,,,,,,,,,,366.4456977249938,None,2,0.238225748995319,366.4456977249938,None,,,,,,,,,,,,,,,,None,None,None,,None,None,366.7274417069857,None,1,1,0.9561491020140238,366.7274417069857,None,367.6771119246026,None,None,None,None,,16,001,2023_Jan_20_1346,searchDisc5,2021.2.3,59.969231354277575,
images/exp1b_trial_34_colour1_distractors9_r.png,r,3,1,9,1,,,,,0,105,105,105,,,,,,,,,,,,,,,,,,,,,,,,,,,,,,,,,,,,,,,,,,,367.6930984610226,None,2,0.31999140296829864,367.6930984610226,None,,,,,,,,,,,,,,,,None,None,None,,None,None,368.0606240319903,None,3,1,0.7048377209575847,368.0606240319903,None,368.76065660259917,None,None,None,None,,16,001,2023_Jan_20_1346,searchDisc5,2021.2.3,59.969231354277575,
images/exp1b_trial_296_colour2_distractors19_r.png,r,3,2,19,1,,,,,0,106,106,106,,,,,,,,,,,,,,,,,,,,,,,,,,,,,,,,,,,,,,,,,,,368.7768339390168,None,2,0.3043521920335479,368.7768339390168,None,,,,,,,,,,,,,,,,None,None,None,,None,None,369.1272643060074,None,3,1,0.7874347390024923,369.1272643060074,None,369.9105391155812,None,None,None,None,,16,001,2023_Jan_20_1346,searchDisc5,2021.2.3,59.969231354277575,
images/exp1b_trial_115_colour1_distractors31_l.png,l,1,1,31,1,,,,,0,107,107,107,,,,,,,,,,,,,,,,,,,,,,,,,,,,,,,,,,,,,,,,,,,369.9268088869867,None,2,0.25453438801923767,369.9268088869867,None,,,,,,,,,,,,,,,,None,None,None,,None,None,370.2272855269839,None,1,1,0.9019727730192244,370.2272855269839,None,371.1272232986288,None,None,None,None,,16,001,2023_Jan_20_1346,searchDisc5,2021.2.3,59.969231354277575,
images/exp1b_trial_131_colour1_distractors19_r.png,r,3,1,19,1,,,,,0,108,108,108,,,,,,,,,,,,,,,,,,,,,,,,,,,,,,,,,,,,,,,,,,,371.143464607012,None,2,0.2568211529869586,371.143464607012,None,,,,,,,,,,,,,,,,None,None,None,,None,None,371.44410952401813,None,3,1,0.7845242719631642,371.44410952401813,None,372.22737716758854,None,None,None,None,,16,001,2023_Jan_20_1346,searchDisc5,2021.2.3,59.969231354277575,
images/exp1b_trial_245_colour2_distractors4_l.png,l,1,2,4,1,,,,,0,109,109,109,,,,,,,,,,,,,,,,,,,,,,,,,,,,,,,,,,,,,,,,,,,372.2439606289845,None,2,0.27141610701801255,372.2439606289845,None,,,,,,,,,,,,,,,,None,None,None,,None,None,372.56288158200914,None,1,1,0.9218948819907382,372.56288158200914,None,373.47732608861986,None,None,None,None,,16,001,2023_Jan_20_1346,searchDisc5,2021.2.3,59.969231354277575,
images/exp1b_trial_201_colour2_distractors31_r.png,r,3,2,31,1,,,,,0,110,110,110,,,,,,,,,,,,,,,,,,,,,,,,,,,,,,,,,,,,,,,,,,,373.49382036400493,None,2,0.27082502201665193,373.49382036400493,None,,,,,,,,,,,,,,,,None,None,None,,None,None,373.810101784009,None,3,1,1.1391404640162364,373.810101784009,None,374.94403373261446,None,None,None,None,,16,001,2023_Jan_20_1346,searchDisc5,2021.2.3,59.969231354277575,
images/exp1b_trial_225_colour1_distractors4_r.png,r,3,1,4,1,,,,,0,111,111,111,,,,,,,,,,,,,,,,,,,,,,,,,,,,,,,,,,,,,,,,,,,374.9605981520144,None,2,0.30267406901111826,374.9605981520144,None,,,,,,,,,,,,,,,,None,None,None,,None,None,375.3105123640271,None,3,1,0.6553735630004667,375.3105123640271,None,375.9606897335965,None,None,None,None,,16,001,2023_Jan_20_1346,searchDisc5,2021.2.3,59.969231354277575,
images/exp1b_trial_156_colour3_distractors19_l.png,l,1,3,19,1,,,,,0,112,112,112,,,,,,,,,,,,,,,,,,,,,,,,,,,,,,,,,,,,,,,,,,,375.97889740299433,None,2,0.272931628045626,375.97889740299433,None,,,,,,,,,,,,,,,,None,None,None,,None,None,376.29389552702196,None,1,1,1.0023329820251092,376.29389552702196,None,377.29406168559797,None,None,None,None,,16,001,2023_Jan_20_1346,searchDisc5,2021.2.3,59.969231354277575,
images/exp1b_trial_183_colour2_distractors19_l.png,l,1,2,19,1,,,,,0,113,113,113,,,,,,,,,,,,,,,,,,,,,,,,,,,,,,,,,,,,,,,,,,,377.31067686801543,None,2,0.27129217801848426,377.31067686801543,None,,,,,,,,,,,,,,,,None,None,None,,None,None,377.62744644499617,None,1,1,1.2040987529908307,377.62744644499617,None,378.8271828216151,None,None,None,None,,16,001,2023_Jan_20_1346,searchDisc5,2021.2.3,59.969231354277575,
images/exp1b_trial_157_colour3_distractors31_l.png,l,1,3,31,1,,,,,0,114,114,114,,,,,,,,,,,,,,,,,,,,,,,,,,,,,,,,,,,,,,,,,,,378.84407879097853,None,2,0.25679979199776426,378.84407879097853,None,,,,,,,,,,,,,,,,None,None,None,,None,None,379.14386132301297,None,1,1,1.001165713998489,379.14386132301297,None,380.1441635656287,None,None,None,None,,16,001,2023_Jan_20_1346,searchDisc5,2021.2.3,59.969231354277575,
images/exp1b_trial_247_colour2_distractors19_l.png,l,1,2,19,1,,,,,0,115,115,115,,,,,,,,,,,,,,,,,,,,,,,,,,,,,,,,,,,,,,,,,,,380.16045066399965,None,2,0.2075677439570427,380.16045066399965,None,,,,,,,,,,,,,,,,None,None,None,,None,None,380.4124821110163,None,1,1,0.7671218909672461,380.4124821110163,None,381.17701278059974,None,None,None,None,,16,001,2023_Jan_20_1346,searchDisc5,2021.2.3,59.969231354277575,
images/exp1b_trial_259_colour1_distractors19_r.png,r,3,1,19,1,,,,,0,116,116,116,,,,,,,,,,,,,,,,,,,,,,,,,,,,,,,,,,,,,,,,,,,381.19608434301335,None,2,0.19062765798298642,381.19608434301335,None,,,,,,,,,,,,,,,,None,None,None,,None,None,381.4296698839753,None,3,1,0.7512399529805407,381.4296698839753,None,382.177708039619,None,None,None,None,,16,001,2023_Jan_20_1346,searchDisc5,2021.2.3,59.969231354277575,
images/exp1b_trial_237_colour3_distractors19_r.png,r,3,3,19,1,,,,,0,117,117,117,,,,,,,,,,,,,,,,,,,,,,,,,,,,,,,,,,,,,,,,,,,382.1942121280008,None,2,0.30463104898808524,382.1942121280008,None,,,,,,,,,,,,,,,,None,None,None,,None,None,382.544441251026,None,3,1,0.802678297040984,382.544441251026,None,383.3441045466228,None,None,None,None,,16,001,2023_Jan_20_1346,searchDisc5,2021.2.3,59.969231354277575,
images/exp1b_trial_71_colour2_distractors9_r.png,r,3,2,9,1,,,,,0,118,118,118,,,,,,,,,,,,,,,,,,,,,,,,,,,,,,,,,,,,,,,,,,,383.36094479699386,None,2,0.22158037702320144,383.36094479699386,None,,,,,,,,,,,,,,,,None,None,None,,None,None,383.6296598180197,None,3,1,0.7549774160142988,383.6296598180197,None,384.37757392958736,None,None,None,None,,16,001,2023_Jan_20_1346,searchDisc5,2021.2.3,59.969231354277575,
images/exp1b_trial_236_colour3_distractors9_r.png,r,3,3,9,1,,,,,0,119,119,119,,,,,,,,,,,,,,,,,,,,,,,,,,,,,,,,,,,,,,,,,,,384.3943404859747,None,2,0.22407461103284732,384.3943404859747,None,,,,,,,,,,,,,,,,None,None,None,,None,None,384.662573411013,None,3,1,0.8028160950052552,384.662573411013,None,385.4611419685883,None,None,None,None,,16,001,2023_Jan_20_1346,searchDisc5,2021.2.3,59.969231354277575,
images/exp1b_trial_248_colour2_distractors31_l.png,l,1,2,31,1,,,,,0,120,120,120,,,,,,,,,,,,,,,,,,,,,,,,,,,,,,,,,,,,,,,,,,,385.47754587599775,None,2,0.22301397699629888,385.47754587599775,None,,,,,,,,,,,,,,,,None,None,None,,None,None,385.7465428549913,None,1,1,1.0849663839908317,385.7465428549913,None,386.82783239058915,None,None,None,None,,16,001,2023_Jan_20_1346,searchDisc5,2021.2.3,59.969231354277575,
images/exp1b_trial_37_colour2_distractors1_r.png,r,3,2,1,1,,,,,0,121,121,121,,,,,,,,,,,,,,,,,,,,,,,,,,,,,,,,,,,,,,,,,,,386.84409810998477,None,2,0.2546354739461094,386.84409810998477,None,,,,,,,,,,,,,,,,None,None,None,,None,None,387.1446166720125,None,3,1,0.7242491839569993,387.1446166720125,None,387.8612110116286,None,None,None,None,,16,001,2023_Jan_20_1346,searchDisc5,2021.2.3,59.969231354277575,
images/exp1b_trial_289_colour1_distractors4_r.png,r,3,1,4,1,,,,,0,122,122,122,,,,,,,,,,,,,,,,,,,,,,,,,,,,,,,,,,,,,,,,,,,387.87746414897265,None,2,0.23614231799729168,387.87746414897265,None,,,,,,,,,,,,,,,,None,None,None,,None,None,388.16123153897934,None,3,1,0.655728571000509,388.16123153897934,None,388.8111269866116,None,None,None,None,,16,001,2023_Jan_20_1346,searchDisc5,2021.2.3,59.969231354277575,
images/exp1b_trial_33_colour1_distractors4_r.png,r,3,1,4,1,,,,,0,123,123,123,,,,,,,,,,,,,,,,,,,,,,,,,,,,,,,,,,,,,,,,,,,388.82777521800017,None,2,0.25604866503272206,388.82777521800017,None,,,,,,,,,,,,,,,,None,None,None,,None,None,389.1272837850265,None,3,1,0.6697341570397839,389.1272837850265,None,389.79458867558276,None,None,None,None,,16,001,2023_Jan_20_1346,searchDisc5,2021.2.3,59.969231354277575,
images/exp1b_trial_99_colour1_distractors19_r.png,r,3,1,19,1,,,,,0,124,124,124,,,,,,,,,,,,,,,,,,,,,,,,,,,,,,,,,,,,,,,,,,,389.81299035297707,None,2,0.23777058196719736,389.81299035297707,None,,,,,,,,,,,,,,,,None,None,None,,None,None,390.0945489029982,None,3,1,0.8206643799785525,390.0945489029982,None,390.91111735461743,None,None,None,None,,16,001,2023_Jan_20_1346,searchDisc5,2021.2.3,59.969231354277575,
images/exp1b_trial_257_colour1_distractors4_r.png,r,3,1,4,1,,,,,0,125,125,125,,,,,,,,,,,,,,,,,,,,,,,,,,,,,,,,,,,,,,,,,,,390.9297964820289,None,2,0.2701291620032862,390.9297964820289,None,,,,,,,,,,,,,,,,None,None,None,,None,None,391.2442373340018,None,3,1,0.6388034849660471,391.2442373340018,None,391.8779656836181,None,None,None,None,,16,001,2023_Jan_20_1346,searchDisc5,2021.2.3,59.969231354277575,
images/exp1b_trial_200_colour2_distractors19_r.png,r,3,2,19,1,,,,,0,126,126,126,,,,,,,,,,,,,,,,,,,,,,,,,,,,,,,,,,,,,,,,,,,391.8964974019909,None,2,0.27186407800763845,391.8964974019909,None,,,,,,,,,,,,,,,,None,None,None,,None,None,392.21134003502084,None,3,1,0.9054844320053235,392.21134003502084,None,393.1111225015833,None,None,None,None,,16,001,2023_Jan_20_1346,searchDisc5,2021.2.3,59.969231354277575,
images/exp1b_trial_194_colour1_distractors9_r.png,r,3,1,9,1,,,,,0,127,127,127,,,,,,,,,,,,,,,,,,,,,,,,,,,,,,,,,,,,,,,,,,,393.1270821709768,None,2,0.25641887995880097,393.1270821709768,None,,,,,,,,,,,,,,,,None,None,None,,None,None,393.42961373500293,None,3,1,0.6508870919933543,393.42961373500293,None,394.0779123636079,None,None,None,None,,16,001,2023_Jan_20_1346,searchDisc5,2021.2.3,59.969231354277575,
images/exp1b_trial_165_colour2_distractors1_r.png,r,3,2,1,1,,,,,0,128,128,128,,,,,,,,,,,,,,,,,,,,,,,,,,,,,,,,,,,,,,,,,,,394.0944962979993,None,2,0.2415748069761321,394.0944962979993,None,,,,,,,,,,,,,,,,None,None,None,,None,None,394.3773748879903,None,3,1,0.9359627309604548,394.3773748879903,None,395.31121997957814,None,None,None,None,,16,001,2023_Jan_20_1346,searchDisc5,2021.2.3,59.969231354277575,
images/exp1b_trial_13_colour3_distractors19_r.png,r,3,3,19,1,,,,,0,129,129,129,,,,,,,,,,,,,,,,,,,,,,,,,,,,,,,,,,,,,,,,,,,395.3278987579979,None,2,0.22342544799903408,395.3278987579979,None,,,,,,,,,,,,,,,,None,None,None,,None,None,395.594578809978,None,3,1,1.500206861004699,395.594578809978,None,397.09461588660486,None,None,None,None,,16,001,2023_Jan_20_1346,searchDisc5,2021.2.3,59.969231354277575,
images/exp1b_trial_243_colour1_distractors31_l.png,l,1,1,31,1,,,,,0,130,130,130,,,,,,,,,,,,,,,,,,,,,,,,,,,,,,,,,,,,,,,,,,,397.1111491959891,None,2,0.2566005479893647,397.1111491959891,None,,,,,,,,,,,,,,,,None,None,None,,None,None,397.41131202701945,None,1,1,1.4503927549812943,397.41131202701945,None,398.86142021560806,None,None,None,None,,16,001,2023_Jan_20_1346,searchDisc5,2021.2.3,59.969231354277575,
images/exp1b_trial_64_colour1_distractors1_r.png,r,3,1,1,1,,,,,0,131,131,131,,,,,,,,,,,,,,,,,,,,,,,,,,,,,,,,,,,,,,,,,,,398.8795293479925,None,2,0.2711215229937807,398.8795293479925,None,,,,,,,,,,,,,,,,None,None,None,,None,None,399.1949720939738,None,3,1,0.8726483409991488,399.1949720939738,None,400.0612504206132,None,None,None,None,,16,001,2023_Jan_20_1346,searchDisc5,2021.2.3,59.969231354277575,
images/exp1b_trial_160_colour1_distractors1_r.png,r,3,1,1,1,,,,,0,132,132,132,,,,,,,,,,,,,,,,,,,,,,,,,,,,,,,,,,,,,,,,,,,400.07767991302535,None,2,0.2379556839587167,400.07767991302535,None,,,,,,,,,,,,,,,,None,None,None,,None,None,400.3609577569878,None,3,1,0.7893072500010021,400.3609577569878,None,401.1446980226086,None,None,None,None,,16,001,2023_Jan_20_1346,searchDisc5,2021.2.3,59.969231354277575,
images/exp1b_trial_170_colour3_distractors1_r.png,r,3,3,1,1,,,,,0,133,133,133,,,,,,,,,,,,,,,,,,,,,,,,,,,,,,,,,,,,,,,,,,,401.16085546597606,None,2,0.22135317599168047,401.16085546597606,None,,,,,,,,,,,,,,,,None,None,None,,None,None,401.4304117190186,None,3,1,0.7735483390279114,401.4304117190186,None,402.1948290426284,None,None,None,None,,16,001,2023_Jan_20_1346,searchDisc5,2021.2.3,59.969231354277575,
images/exp1b_trial_83_colour1_distractors31_l.png,l,1,1,31,1,,,,,0,134,134,134,,,,,,,,,,,,,,,,,,,,,,,,,,,,,,,,,,,,,,,,,,,402.211394108017,None,2,0.2545424950076267,402.211394108017,None,,,,,,,,,,,,,,,,None,None,None,,None,None,402.51162376301363,None,1,1,0.8360893430071883,402.51162376301363,None,403.3450668315985,None,None,None,None,,16,001,2023_Jan_20_1346,searchDisc5,2021.2.3,59.969231354277575,
images/exp1b_trial_62_colour0_distractors0_r.png,r,3,0,0,1,,,,,0,135,135,135,,,,,,,,,,,,,,,,,,,,,,,,,,,,,,,,,,,,,,,,,,,403.3635402409709,None,2,0.22199333098251373,403.3635402409709,None,,,,,,,,,,,,,,,,None,None,None,,None,None,403.6283811170142,None,3,1,0.721759611973539,403.6283811170142,None,404.3448728286079,None,None,None,None,,16,001,2023_Jan_20_1346,searchDisc5,2021.2.3,59.969231354277575,
images/exp1b_trial_116_colour2_distractors1_l.png,l,1,2,1,1,,,,,0,136,136,136,,,,,,,,,,,,,,,,,,,,,,,,,,,,,,,,,,,,,,,,,,,404.36094731302,None,2,0.33779979997780174,404.36094731302,None,,,,,,,,,,,,,,,,None,None,None,,None,None,404.74510846601333,None,1,1,1.239167764026206,404.74510846601333,None,405.97817667158085,None,None,None,None,,16,001,2023_Jan_20_1346,searchDisc5,2021.2.3,59.969231354277575,
images/exp1b_trial_25_colour3_distractors1_l.png,l,1,3,1,1,,,,,0,137,137,137,,,,,,,,,,,,,,,,,,,,,,,,,,,,,,,,,,,,,,,,,,,405.99647020798875,None,2,0.23848839395213872,405.99647020798875,None,,,,,,,,,,,,,,,,None,None,None,,None,None,406.27839997201227,None,1,1,0.8046528350096196,406.27839997201227,None,407.0780327145825,None,None,None,None,,16,001,2023_Jan_20_1346,searchDisc5,2021.2.3,59.969231354277575,
images/exp1b_trial_234_colour3_distractors1_r.png,r,3,3,1,1,,,,,0,138,138,138,,,,,,,,,,,,,,,,,,,,,,,,,,,,,,,,,,,,,,,,,,,407.09501905500656,None,2,0.1883153899689205,407.09501905500656,None,,,,,,,,,,,,,,,,None,None,None,,None,None,407.33058524597436,None,3,1,1.055873427016195,407.33058524597436,None,408.37824395057976,None,None,None,None,,16,001,2023_Jan_20_1346,searchDisc5,2021.2.3,59.969231354277575,
images/exp1b_trial_125_colour3_distractors31_l.png,l,1,3,31,1,,,,,0,139,139,139,,,,,,,,,,,,,,,,,,,,,,,,,,,,,,,,,,,,,,,,,,,408.394916737976,None,2,0.2401212109834887,408.394916737976,None,,,,,,,,,,,,,,,,None,None,None,,None,None,408.68057152000256,None,1,1,0.9505295329727232,408.68057152000256,None,409.6284050165908,None,None,None,None,,16,001,2023_Jan_20_1346,searchDisc5,2021.2.3,59.969231354277575,
images/exp1b_trial_297_colour2_distractors31_r.png,r,3,2,31,1,,,,,0,140,140,140,,,,,,,,,,,,,,,,,,,,,,,,,,,,,,,,,,,,,,,,,,,409.6448351970175,None,2,0.2209765809820965,409.6448351970175,None,,,,,,,,,,,,,,,,None,None,None,,None,None,409.91401044098893,None,3,1,1.1028516449732706,409.91401044098893,None,411.011675800581,None,None,None,None,,16,001,2023_Jan_20_1346,searchDisc5,2021.2.3,59.969231354277575,
images/exp1b_trial_271_colour1_distractors1_l.png,l,1,1,1,1,,,,,0,141,141,141,,,,,,,,,,,,,,,,,,,,,,,,,,,,,,,,,,,,,,,,,,,411.0304885120131,None,2,0.23810811998555437,411.0304885120131,None,,,,,,,,,,,,,,,,None,None,None,,None,None,411.31207341200206,None,1,1,0.8248305070446804,411.31207341200206,None,412.12853104863314,None,None,None,None,,16,001,2023_Jan_20_1346,searchDisc5,2021.2.3,59.969231354277575,
images/exp1b_trial_68_colour1_distractors31_r.png,r,3,1,31,1,,,,,0,142,142,142,,,,,,,,,,,,,,,,,,,,,,,,,,,,,,,,,,,,,,,,,,,412.145006560022,None,2,0.20446435897611082,412.145006560022,None,,,,,,,,,,,,,,,,None,None,None,,None,None,412.3973057930125,None,3,1,1.1001255260198377,412.3973057930125,None,413.49515465062575,None,None,None,None,,16,001,2023_Jan_20_1346,searchDisc5,2021.2.3,59.969231354277575,
images/exp1b_trial_307_colour1_distractors31_l.png,l,1,1,31,1,,,,,0,143,143,143,,,,,,,,,,,,,,,,,,,,,,,,,,,,,,,,,,,,,,,,,,,413.5131653000135,None,2,0.30477648199303076,413.5131653000135,None,,,,,,,,,,,,,,,,None,None,None,,None,None,413.86167265399126,None,1,1,1.0681399659952149,413.86167265399126,None,414.92768817963076,None,None,None,None,,16,001,2023_Jan_20_1346,searchDisc5,2021.2.3,59.969231354277575,
images/exp1b_trial_87_colour2_distractors19_l.png,l,1,2,19,1,,,,,0,144,144,144,,,,,,,,,,,,,,,,,,,,,,,,,,,,,,,,,,,,,,,,,,,414.9450981739792,None,2,0.20691175799584016,414.9450981739792,None,,,,,,,,,,,,,,,,None,None,None,,None,None,415.1974140389939,None,1,1,0.7855554140405729,415.1974140389939,None,415.97851107860913,None,None,None,None,,16,001,2023_Jan_20_1346,searchDisc5,2021.2.3,59.969231354277575,
images/exp1b_trial_272_colour1_distractors4_l.png,l,1,1,4,1,,,,,0,145,145,145,,,,,,,,,,,,,,,,,,,,,,,,,,,,,,,,,,,,,,,,,,,415.99478579702554,None,2,0.18781544303055853,415.99478579702554,None,,,,,,,,,,,,,,,,None,None,None,,None,None,416.2305476560141,None,1,1,0.8558208540198393,416.2305476560141,None,417.07833814962066,None,None,None,None,,16,001,2023_Jan_20_1346,searchDisc5,2021.2.3,59.969231354277575,
images/exp1b_trial_45_colour3_distractors19_r.png,r,3,3,19,1,,,,,0,146,146,146,,,,,,,,,,,,,,,,,,,,,,,,,,,,,,,,,,,,,,,,,,,417.09511931601446,None,2,0.1547746630385518,417.09511931601446,None,,,,,,,,,,,,,,,,None,None,None,,None,None,417.2975083049969,None,3,1,0.9358337679877877,417.2975083049969,None,418.2281589336111,None,None,None,None,,16,001,2023_Jan_20_1346,searchDisc5,2021.2.3,59.969231354277575,
images/exp1b_trial_166_colour2_distractors4_r.png,r,3,2,4,1,,,,,0,147,147,147,,,,,,,,,,,,,,,,,,,,,,,,,,,,,,,,,,,,,,,,,,,418.2474228100036,None,2,0.23820166004588827,418.2474228100036,None,,,,,,,,,,,,,,,,None,None,None,,None,None,418.5281075909734,None,3,1,0.8060116679989733,418.5281075909734,None,419.328815627587,None,None,None,None,,16,001,2023_Jan_20_1346,searchDisc5,2021.2.3,59.969231354277575,
images/exp1b_trial_67_colour1_distractors19_r.png,r,3,1,19,1,,,,,0,148,148,148,,,,,,,,,,,,,,,,,,,,,,,,,,,,,,,,,,,,,,,,,,,419.34493422397645,None,2,0.2064628450316377,419.34493422397645,None,,,,,,,,,,,,,,,,None,None,None,,None,None,419.59743419400183,None,3,1,0.7343863499700092,419.59743419400183,None,420.3287210025941,None,None,None,None,,16,001,2023_Jan_20_1346,searchDisc5,2021.2.3,59.969231354277575,
images/exp1b_trial_111_colour1_distractors1_l.png,l,1,1,1,1,,,,,0,149,149,149,,,,,,,,,,,,,,,,,,,,,,,,,,,,,,,,,,,,,,,,,,,420.3449052380165,None,2,0.22323171503376216,420.3449052380165,None,,,,,,,,,,,,,,,,None,None,None,,None,None,420.6141334529966,None,1,1,0.7374697690247558,420.6141334529966,None,421.3455480186152,None,None,None,None,,16,001,2023_Jan_20_1346,searchDisc5,2021.2.3,59.969231354277575,
images/exp1b_trial_46_colour3_distractors31_r.png,r,3,3,31,1,,,,,0,150,150,150,,,,,,,,,,,,,,,,,,,,,,,,,,,,,,,,,,,,,,,,,,,421.36186496098526,None,2,0.18973077199188992,421.36186496098526,None,,,,,,,,,,,,,,,,None,None,None,,None,None,421.59761911199894,None,3,1,0.9529226300073788,421.59761911199894,None,422.5454451406025,None,None,None,None,,16,001,2023_Jan_20_1346,searchDisc5,2021.2.3,59.969231354277575,
images/exp1b_trial_135_colour2_distractors9_r.png,r,3,2,9,1,,,,,0,151,151,151,,,,,,,,,,,,,,,,,,,,,,,,,,,,,,,,,,,,,,,,,,,422.5618102289736,None,2,0.1851009309757501,422.5618102289736,None,,,,,,,,,,,,,,,,None,None,None,,None,None,422.79754937498365,None,3,1,0.855443770007696,422.79754937498365,None,423.6454959696042,None,None,None,None,,16,001,2023_Jan_20_1346,searchDisc5,2021.2.3,59.969231354277575,
images/exp1b_trial_129_colour1_distractors4_r.png,r,3,1,4,1,,,,,0,152,152,152,,,,,,,,,,,,,,,,,,,,,,,,,,,,,,,,,,,,,,,,,,,423.6619853890152,None,2,0.22312850400339812,423.6619853890152,None,,,,,,,,,,,,,,,,None,None,None,,None,None,423.92880307498854,None,3,1,0.670002561993897,423.92880307498854,None,424.5954838046222,None,None,None,None,,16,001,2023_Jan_20_1346,searchDisc5,2021.2.3,59.969231354277575,
images/exp1b_trial_255_colour0_distractors0_l.png,l,1,0,0,1,,,,,0,153,153,153,,,,,,,,,,,,,,,,,,,,,,,,,,,,,,,,,,,,,,,,,,,424.61145585001213,None,2,0.22535718098515645,424.61145585001213,None,,,,,,,,,,,,,,,,None,None,None,,None,None,424.8806876380113,None,1,1,0.7185824650223367,424.8806876380113,None,425.5952160946093,None,None,None,None,,16,001,2023_Jan_20_1346,searchDisc5,2021.2.3,59.969231354277575,
images/exp1b_trial_180_colour2_distractors1_l.png,l,1,2,1,1,,,,,0,154,154,154,,,,,,,,,,,,,,,,,,,,,,,,,,,,,,,,,,,,,,,,,,,425.61198379501,None,2,0.18819377198815346,425.61198379501,None,,,,,,,,,,,,,,,,None,None,None,,None,None,425.84755247301655,None,1,1,0.8057123009930365,425.84755247301655,None,426.6453477326198,None,None,None,None,,16,001,2023_Jan_20_1346,searchDisc5,2021.2.3,59.969231354277575,
images/exp1b_trial_55_colour2_distractors19_l.png,l,1,2,19,1,,,,,0,155,155,155,,,,,,,,,,,,,,,,,,,,,,,,,,,,,,,,,,,,,,,,,,,426.66234788298607,None,2,0.18810441601090133,426.66234788298607,None,,,,,,,,,,,,,,,,None,None,None,,None,None,426.89787132502533,None,1,1,0.7220517050009221,426.89787132502533,None,427.6120699175866,None,None,None,None,,16,001,2023_Jan_20_1346,searchDisc5,2021.2.3,59.969231354277575,
images/exp1b_trial_195_colour1_distractors19_r.png,r,3,1,19,1,,,,,0,156,156,156,,,,,,,,,,,,,,,,,,,,,,,,,,,,,,,,,,,,,,,,,,,427.62819655198837,None,2,0.2030531539930962,427.62819655198837,None,,,,,,,,,,,,,,,,None,None,None,,None,None,427.8803931649891,None,3,1,0.7196692060097121,427.8803931649891,None,428.5956289025838,None,None,None,None,,16,001,2023_Jan_20_1346,searchDisc5,2021.2.3,59.969231354277575,
images/exp1b_trial_287_colour0_distractors0_l.png,l,1,0,0,1,,,,,0,157,157,157,,,,,,,,,,,,,,,,,,,,,,,,,,,,,,,,,,,,,,,,,,,428.612089155009,None,2,0.17082401301013306,428.612089155009,None,,,,,,,,,,,,,,,,None,None,None,,None,None,428.8311023780261,None,1,1,0.5750978349824436,428.8311023780261,None,429.3955925826216,None,None,None,None,,16,001,2023_Jan_20_1346,searchDisc5,2021.2.3,59.969231354277575,
images/exp1b_trial_118_colour2_distractors9_l.png,l,1,2,9,1,,,,,0,158,158,158,,,,,,,,,,,,,,,,,,,,,,,,,,,,,,,,,,,,,,,,,,,429.4120986019843,None,2,0.1857333000516519,429.4120986019843,None,,,,,,,,,,,,,,,,None,None,None,,None,None,429.6476557269925,None,1,1,0.9552060409914702,429.6476557269925,None,430.5956503575784,None,None,None,None,,16,001,2023_Jan_20_1346,searchDisc5,2021.2.3,59.969231354277575,
images/exp1b_trial_192_colour1_distractors1_r.png,r,3,1,1,1,,,,,0,159,159,159,,,,,,,,,,,,,,,,,,,,,,,,,,,,,,,,,,,,,,,,,,,430.6137880880269,None,2,0.23788730998057872,430.6137880880269,None,,,,,,,,,,,,,,,,None,None,None,,None,None,430.89507803699235,None,3,1,0.8395751650095917,430.89507803699235,None,431.729187918629,None,None,None,None,,16,001,2023_Jan_20_1346,searchDisc5,2021.2.3,59.969231354277575,
images/exp1b_trial_49_colour1_distractors9_l.png,l,1,1,9,1,,,,,0,160,160,160,,,,,,,,,,,,,,,,,,,,,,,,,,,,,,,,,,,,,,,,,,,431.7454670519801,None,2,0.17100378399481997,431.7454670519801,None,,,,,,,,,,,,,,,,None,None,None,,None,None,431.96244116697926,None,1,1,0.7883124360232614,431.96244116697926,None,432.7457529756124,None,None,None,None,,16,001,2023_Jan_20_1346,searchDisc5,2021.2.3,59.969231354277575,
images/exp1b_trial_136_colour2_distractors19_r.png,r,3,2,19,1,,,,,0,161,161,161,,,,,,,,,,,,,,,,,,,,,,,,,,,,,,,,,,,,,,,,,,,432.76404650800396,None,2,0.18983012100216,432.76404650800396,None,,,,,,,,,,,,,,,,None,None,None,,None,None,432.99785338697257,None,3,1,0.8355086829978973,432.99785338697257,None,433.8289764416171,None,None,None,None,,16,001,2023_Jan_20_1346,searchDisc5,2021.2.3,59.969231354277575,
images/exp1b_trial_231_colour2_distractors9_r.png,r,3,2,9,1,,,,,0,162,162,162,,,,,,,,,,,,,,,,,,,,,,,,,,,,,,,,,,,,,,,,,,,433.845616444014,None,2,0.19012492697220296,433.845616444014,None,,,,,,,,,,,,,,,,None,None,None,,None,None,434.08105894498294,None,3,1,0.6696449570008554,434.08105894498294,None,434.7456828105845,None,None,None,None,,16,001,2023_Jan_20_1346,searchDisc5,2021.2.3,59.969231354277575,
images/exp1b_trial_294_colour2_distractors4_r.png,r,3,2,4,1,,,,,0,163,163,163,,,,,,,,,,,,,,,,,,,,,,,,,,,,,,,,,,,,,,,,,,,434.76207085198257,None,2,0.6211544149555266,434.76207085198257,None,,,,,,,,,,,,,,,,None,None,None,,None,None,435.4291515270015,None,3,1,0.8057928959606215,435.4291515270015,None,436.22898832461794,None,None,None,None,,16,001,2023_Jan_20_1346,searchDisc5,2021.2.3,59.969231354277575,
images/exp1b_trial_21_colour2_distractors4_l.png,l,1,2,4,1,,,,,0,164,164,164,,,,,,,,,,,,,,,,,,,,,,,,,,,,,,,,,,,,,,,,,,,436.24578624701826,None,2,0.19004769704770297,436.24578624701826,None,,,,,,,,,,,,,,,,None,None,None,,None,None,436.48074424802326,None,1,1,0.9036474559688941,436.48074424802326,None,437.3792186815757,None,None,None,None,,16,001,2023_Jan_20_1346,searchDisc5,2021.2.3,59.969231354277575,
images/exp1b_trial_79_colour1_distractors1_l.png,l,1,1,1,1,,,,,0,165,165,165,,,,,,,,,,,,,,,,,,,,,,,,,,,,,,,,,,,,,,,,,,,437.39578466600506,None,2,0.2232431130250916,437.39578466600506,None,,,,,,,,,,,,,,,,None,None,None,,None,None,437.66467366402503,None,1,1,0.7228784309700131,437.66467366402503,None,438.37927309561053,None,None,None,None,,16,001,2023_Jan_20_1346,searchDisc5,2021.2.3,59.969231354277575,
images/exp1b_trial_106_colour3_distractors1_r.png,r,3,3,1,1,,,,,0,166,166,166,,,,,,,,,,,,,,,,,,,,,,,,,,,,,,,,,,,,,,,,,,,438.39570936199743,None,2,0.18800334498519078,438.39570936199743,None,,,,,,,,,,,,,,,,None,None,None,,None,None,438.6316321589984,None,3,1,0.7537296559894457,438.6316321589984,None,439.3791575046256,None,None,None,None,,16,001,2023_Jan_20_1346,searchDisc5,2021.2.3,59.969231354277575,
images/exp1b_trial_254_colour0_distractors0_r.png,r,3,0,0,1,,,,,0,167,167,167,,,,,,,,,,,,,,,,,,,,,,,,,,,,,,,,,,,,,,,,,,,439.3950693299994,None,2,0.1919436559546739,439.3950693299994,None,,,,,,,,,,,,,,,,None,None,None,,None,None,439.6310271319817,None,3,1,0.635509532992728,439.6310271319817,None,440.26250984261276,None,None,None,None,,16,001,2023_Jan_20_1346,searchDisc5,2021.2.3,59.969231354277575,
images/exp1b_trial_105_colour2_distractors31_r.png,r,3,2,31,1,,,,,0,168,168,168,,,,,,,,,,,,,,,,,,,,,,,,,,,,,,,,,,,,,,,,,,,440.27926079701865,None,2,0.17064435902284458,440.27926079701865,None,,,,,,,,,,,,,,,,None,None,None,,None,None,440.4975611640257,None,3,1,0.6887686629779637,440.4975611640257,None,441.17924775361314,None,None,None,None,,16,001,2023_Jan_20_1346,searchDisc5,2021.2.3,59.969231354277575,
images/exp1b_trial_206_colour3_distractors31_r.png,r,3,3,31,1,,,,,0,169,169,169,,,,,,,,,,,,,,,,,,,,,,,,,,,,,,,,,,,,,,,,,,,441.1981021530228,None,2,0.18874880304792896,441.1981021530228,None,,,,,,,,,,,,,,,,None,None,None,,None,None,441.4298257000046,None,3,1,0.7340305359684862,441.4298257000046,None,442.16267160259883,None,None,None,None,,16,001,2023_Jan_20_1346,searchDisc5,2021.2.3,59.969231354277575,
images/exp1b_trial_50_colour1_distractors19_l.png,l,1,1,19,1,,,,,0,170,170,170,,,,,,,,,,,,,,,,,,,,,,,,,,,,,,,,,,,,,,,,,,,442.17912512097973,None,2,0.1710734840016812,442.17912512097973,None,,,,,,,,,,,,,,,,None,None,None,,None,None,442.398149072018,None,1,1,0.7194121269858442,442.398149072018,None,443.1122354946332,None,None,None,None,,16,001,2023_Jan_20_1346,searchDisc5,2021.2.3,59.969231354277575,
images/exp1b_trial_246_colour2_distractors9_l.png,l,1,2,9,1,,,,,0,171,171,171,,,,,,,,,,,,,,,,,,,,,,,,,,,,,,,,,,,,,,,,,,,443.129339496023,None,2,0.17170673498185351,443.129339496023,None,,,,,,,,,,,,,,,,None,None,None,,None,None,443.34839765401557,None,1,1,0.7385813180007972,443.34839765401557,None,444.07950002662835,None,None,None,None,,16,001,2023_Jan_20_1346,searchDisc5,2021.2.3,59.969231354277575,
images/exp1b_trial_31_colour0_distractors0_l.png,l,1,0,0,1,,,,,0,172,172,172,,,,,,,,,,,,,,,,,,,,,,,,,,,,,,,,,,,,,,,,,,,444.0958829279989,None,2,0.18730965099530295,444.0958829279989,None,,,,,,,,,,,,,,,,None,None,None,,None,None,444.33142770297127,None,1,1,0.6238873009569943,444.33142770297127,None,444.9460124206147,None,None,None,None,,16,001,2023_Jan_20_1346,searchDisc5,2021.2.3,59.969231354277575,
images/exp1b_trial_107_colour3_distractors4_r.png,r,3,3,4,1,,,,,0,173,173,173,,,,,,,,,,,,,,,,,,,,,,,,,,,,,,,,,,,,,,,,,,,444.96425686002476,None,2,0.13781017600558698,444.96425686002476,None,,,,,,,,,,,,,,,,None,None,None,,None,None,445.14816448197234,None,3,1,0.6382195670157671,445.14816448197234,None,445.7793090805993,None,None,None,None,,16,001,2023_Jan_20_1346,searchDisc5,2021.2.3,59.969231354277575,
images/exp1b_trial_265_colour2_distractors31_r.png,r,3,2,31,1,,,,,0,174,174,174,,,,,,,,,,,,,,,,,,,,,,,,,,,,,,,,,,,,,,,,,,,445.795677512011,None,2,0.13786555401748046,445.795677512011,None,,,,,,,,,,,,,,,,None,None,None,,None,None,445.9795172800077,None,3,1,0.8528872780152597,445.9795172800077,None,446.82931968858463,None,None,None,None,,16,001,2023_Jan_20_1346,searchDisc5,2021.2.3,59.969231354277575,
images/exp1b_trial_262_colour2_distractors4_r.png,r,3,2,4,1,,,,,0,175,175,175,,,,,,,,,,,,,,,,,,,,,,,,,,,,,,,,,,,,,,,,,,,446.8464029720053,None,2,0.18802982504712418,446.8464029720053,None,,,,,,,,,,,,,,,,None,None,None,,None,None,447.08151039498625,None,3,1,0.5563194939750247,447.08151039498625,None,447.62940666560314,None,None,None,None,,16,001,2023_Jan_20_1346,searchDisc5,2021.2.3,59.969231354277575,
images/exp1b_trial_15_colour1_distractors1_l.png,l,1,1,1,1,,,,,0,176,176,176,,,,,,,,,,,,,,,,,,,,,,,,,,,,,,,,,,,,,,,,,,,447.6453794299741,None,2,0.13799254898913205,447.6453794299741,None,,,,,,,,,,,,,,,,None,None,None,,None,None,447.8292974799988,None,1,1,0.8396360059850849,447.8292974799988,None,448.6629457855946,None,None,None,None,,16,001,2023_Jan_20_1346,searchDisc5,2021.2.3,59.969231354277575,
images/exp1b_trial_221_colour3_distractors31_l.png,l,1,3,31,1,,,,,0,177,177,177,,,,,,,,,,,,,,,,,,,,,,,,,,,,,,,,,,,,,,,,,,,448.67899441102054,None,2,0.13789887796156108,448.67899441102054,None,,,,,,,,,,,,,,,,None,None,None,,None,None,448.8649382960284,None,1,1,1.0523888390162028,448.8649382960284,None,449.9129342495929,None,None,None,None,,16,001,2023_Jan_20_1346,searchDisc5,2021.2.3,59.969231354277575,
images/exp1b_trial_216_colour2_distractors31_l.png,l,1,2,31,1,,,,,0,178,178,178,,,,,,,,,,,,,,,,,,,,,,,,,,,,,,,,,,,,,,,,,,,449.9290362659958,None,2,0.12113104696618393,449.9290362659958,None,,,,,,,,,,,,,,,,None,None,None,,None,None,450.0960911529837,None,1,1,0.7033221700112335,450.0960911529837,None,450.796126229607,None,None,None,None,,16,001,2023_Jan_20_1346,searchDisc5,2021.2.3,59.969231354277575,
images/exp1b_trial_140_colour3_distractors9_r.png,r,3,3,9,1,,,,,0,179,179,179,,,,,,,,,,,,,,,,,,,,,,,,,,,,,,,,,,,,,,,,,,,450.8121795000043,None,2,0.12323138897772878,450.8121795000043,None,,,,,,,,,,,,,,,,None,None,None,,None,None,450.9795460649766,None,1,0,0.7188011599937454,450.9795460649766,None,451.69629427660254,None,None,None,None,,16,001,2023_Jan_20_1346,searchDisc5,2021.2.3,59.969231354277575,
images/exp1b_trial_28_colour3_distractors19_l.png,l,1,3,19,1,,,,,0,180,180,180,,,,,,,,,,,,,,,,,,,,,,,,,,,,,,,,,,,,,,,,,,,451.712517803011,None,2,1.2377028409973718,451.712517803011,None,,,,,,,,,,,,,,,,None,None,None,,None,None,452.9961955539766,None,1,1,0.9365276069729589,452.9961955539766,None,453.9293979825801,None,None,None,None,,16,001,2023_Jan_20_1346,searchDisc5,2021.2.3,59.969231354277575,
images/exp1b_trial_187_colour3_distractors9_l.png,l,1,3,9,1,,,,,0,181,181,181,,,,,,,,,,,,,,,,,,,,,,,,,,,,,,,,,,,,,,,,,,,453.9476075959974,None,2,0.13813750800909474,453.9476075959974,None,,,,,,,,,,,,,,,,None,None,None,,None,None,454.13165461999597,None,1,1,0.9217553570051678,454.13165461999597,None,455.0462654516217,None,None,None,None,,16,001,2023_Jan_20_1346,searchDisc5,2021.2.3,59.969231354277575,
images/exp1b_trial_308_colour2_distractors1_l.png,l,1,2,1,1,,,,,0,182,182,182,,,,,,,,,,,,,,,,,,,,,,,,,,,,,,,,,,,,,,,,,,,455.0628067490179,None,2,0.1380910329753533,455.0628067490179,None,,,,,,,,,,,,,,,,None,None,None,,None,None,455.24771301599685,None,1,1,0.8066489060292952,455.24771301599685,None,456.0463352696155,None,None,None,None,,16,001,2023_Jan_20_1346,searchDisc5,2021.2.3,59.969231354277575,
images/exp1b_trial_142_colour3_distractors31_r.png,r,3,3,31,1,,,,,0,183,183,183,,,,,,,,,,,,,,,,,,,,,,,,,,,,,,,,,,,,,,,,,,,456.0620402380009,None,2,0.15593860595254228,456.0620402380009,None,,,,,,,,,,,,,,,,None,None,None,,None,None,456.2626900000032,None,3,1,0.8016399620100856,456.2626900000032,None,457.06301180957814,None,None,None,None,,16,001,2023_Jan_20_1346,searchDisc5,2021.2.3,59.969231354277575,
images/exp1b_trial_174_colour3_distractors31_r.png,r,3,3,31,1,,,,,0,184,184,184,,,,,,,,,,,,,,,,,,,,,,,,,,,,,,,,,,,,,,,,,,,457.07963181397645,None,2,0.12156089604832232,457.07963181397645,None,,,,,,,,,,,,,,,,None,None,None,,None,None,457.2461577230133,None,3,1,1.8345885370508768,457.2461577230133,None,459.07965825361896,None,None,None,None,,16,001,2023_Jan_20_1346,searchDisc5,2021.2.3,59.969231354277575,
images/exp1b_trial_299_colour3_distractors4_r.png,r,3,3,4,1,,,,,0,185,185,185,,,,,,,,,,,,,,,,,,,,,,,,,,,,,,,,,,,,,,,,,,,459.09774895897135,None,2,0.19005206297151744,459.09774895897135,None,,,,,,,,,,,,,,,,None,None,None,,None,None,459.3320418189978,None,3,1,0.9369529400137253,459.3320418189978,None,460.2632795626181,None,None,None,None,,16,001,2023_Jan_20_1346,searchDisc5,2021.2.3,59.969231354277575,
images/exp1b_trial_54_colour2_distractors9_l.png,l,1,2,9,1,,,,,0,186,186,186,,,,,,,,,,,,,,,,,,,,,,,,,,,,,,,,,,,,,,,,,,,460.2816931909765,None,2,0.32101941300788894,460.2816931909765,None,,,,,,,,,,,,,,,,None,None,None,,None,None,460.64663383201696,None,1,1,1.0884780780179426,460.64663383201696,None,461.72997009559765,None,None,None,None,,16,001,2023_Jan_20_1346,searchDisc5,2021.2.3,59.969231354277575,
images/exp1b_trial_188_colour3_distractors19_l.png,l,1,3,19,1,,,,,0,187,187,187,,,,,,,,,,,,,,,,,,,,,,,,,,,,,,,,,,,,,,,,,,,461.74635933700483,None,2,0.18967948300996795,461.74635933700483,None,,,,,,,,,,,,,,,,None,None,None,,None,None,461.98205037700245,None,1,1,1.0008140690042637,461.98205037700245,None,462.979871901602,None,None,None,None,,16,001,2023_Jan_20_1346,searchDisc5,2021.2.3,59.969231354277575,
images/exp1b_trial_120_colour2_distractors31_l.png,l,1,2,31,1,,,,,0,188,188,188,,,,,,,,,,,,,,,,,,,,,,,,,,,,,,,,,,,,,,,,,,,462.9961282759905,None,2,0.15437026298604906,462.9961282759905,None,,,,,,,,,,,,,,,,None,None,None,,None,None,463.1984110180056,None,1,1,0.7871465520001948,463.1984110180056,None,463.9799293675809,None,None,None,None,,16,001,2023_Jan_20_1346,searchDisc5,2021.2.3,59.969231354277575,
images/exp1b_trial_268_colour3_distractors9_r.png,r,3,3,9,1,,,,,0,189,189,189,,,,,,,,,,,,,,,,,,,,,,,,,,,,,,,,,,,,,,,,,,,463.99615121097304,None,2,0.12319866701727733,463.99615121097304,None,,,,,,,,,,,,,,,,None,None,None,,None,None,464.1631662030122,None,3,1,0.755025276041124,464.1631662030122,None,464.9130652936059,None,None,None,None,,16,001,2023_Jan_20_1346,searchDisc5,2021.2.3,59.969231354277575,
images/exp1b_trial_172_colour3_distractors9_r.png,r,3,3,9,1,,,,,0,190,190,190,,,,,,,,,,,,,,,,,,,,,,,,,,,,,,,,,,,,,,,,,,,464.92941221699584,None,2,0.1691316009964794,464.92941221699584,None,,,,,,,,,,,,,,,,None,None,None,,None,None,465.148982216022,None,3,1,1.60390320798615,465.148982216022,None,466.7456697926158,None,None,None,None,,16,001,2023_Jan_20_1346,searchDisc5,2021.2.3,59.969231354277575,
images/exp1b_trial_212_colour2_distractors1_l.png,l,1,2,1,1,,,,,0,191,191,191,,,,,,,,,,,,,,,,,,,,,,,,,,,,,,,,,,,,,,,,,,,466.76496830699034,None,2,0.15673124499153346,466.76496830699034,None,,,,,,,,,,,,,,,,None,None,None,,None,None,466.9649010479916,None,1,1,0.8213815269991755,466.9649010479916,None,467.77988779059376,None,None,None,None,,16,001,2023_Jan_20_1346,searchDisc5,2021.2.3,59.969231354277575,
images/exp1b_trial_128_colour1_distractors1_r.png,r,3,1,1,1,,,,,0,192,192,192,,,,,,,,,,,,,,,,,,,,,,,,,,,,,,,,,,,,,,,,,,,467.79656658199383,None,2,0.1548464520019479,467.79656658199383,None,,,,,,,,,,,,,,,,None,None,None,,None,None,467.9986671800143,None,3,1,0.9056652699946426,467.9986671800143,None,468.89625538662074,None,None,None,None,,16,001,2023_Jan_20_1346,searchDisc5,2021.2.3,59.969231354277575,
images/exp1b_trial_250_colour3_distractors4_l.png,l,1,3,4,1,,,,,0,193,193,193,,,,,,,,,,,,,,,,,,,,,,,,,,,,,,,,,,,,,,,,,,,468.9133983820211,None,2,0.1557905650115572,468.9133983820211,None,,,,,,,,,,,,,,,,None,None,None,,None,None,469.1136531800148,None,1,1,0.804203353007324,469.1136531800148,None,469.9134862725972,None,None,None,None,,16,001,2023_Jan_20_1346,searchDisc5,2021.2.3,59.969231354277575,
images/exp1b_trial_73_colour2_distractors31_r.png,r,3,2,31,1,,,,,0,194,194,194,,,,,,,,,,,,,,,,,,,,,,,,,,,,,,,,,,,,,,,,,,,469.9294916910003,None,2,0.15453736495692283,469.9294916910003,None,,,,,,,,,,,,,,,,None,None,None,,None,None,470.1297170430189,None,3,1,1.3871933970367536,470.1297170430189,None,471.5135512415785,None,None,None,None,,16,001,2023_Jan_20_1346,searchDisc5,2021.2.3,59.969231354277575,
images/exp1b_trial_270_colour3_distractors31_r.png,r,3,3,31,1,,,,,0,195,195,195,,,,,,,,,,,,,,,,,,,,,,,,,,,,,,,,,,,,,,,,,,,471.52990369300824,None,2,0.18774231302086264,471.52990369300824,None,,,,,,,,,,,,,,,,None,None,None,,None,None,471.7655902170227,None,3,1,0.9522093870327808,471.7655902170227,None,472.71329224759245,None,None,None,None,,16,001,2023_Jan_20_1346,searchDisc5,2021.2.3,59.969231354277575,
images/exp1b_trial_58_colour3_distractors4_l.png,l,1,3,4,1,,,,,0,196,196,196,,,,,,,,,,,,,,,,,,,,,,,,,,,,,,,,,,,,,,,,,,,472.7299672450172,None,2,0.1712897819816135,472.7299672450172,None,,,,,,,,,,,,,,,,None,None,None,,None,None,472.94707203499274,None,1,1,0.8545831209630705,472.94707203499274,None,473.7968155336333,None,None,None,None,,16,001,2023_Jan_20_1346,searchDisc5,2021.2.3,59.969231354277575,
images/exp1b_trial_154_colour3_distractors4_l.png,l,1,3,4,1,,,,,0,197,197,197,,,,,,,,,,,,,,,,,,,,,,,,,,,,,,,,,,,,,,,,,,,473.8129002940259,None,2,0.1713136340258643,473.8129002940259,None,,,,,,,,,,,,,,,,None,None,None,,None,None,474.0303372570197,None,1,1,1.4049662789911963,474.0303372570197,None,475.43012348758054,None,None,None,None,,16,001,2023_Jan_20_1346,searchDisc5,2021.2.3,59.969231354277575,
images/exp1b_trial_319_colour0_distractors0_l.png,l,1,0,0,1,,,,,0,198,198,198,,,,,,,,,,,,,,,,,,,,,,,,,,,,,,,,,,,,,,,,,,,475.4489448230015,None,2,0.17328209499828517,475.4489448230015,None,,,,,,,,,,,,,,,,None,None,None,,None,None,475.6658844180056,None,1,1,0.6876154500059783,475.6658844180056,None,476.346840855584,None,None,None,None,,16,001,2023_Jan_20_1346,searchDisc5,2021.2.3,59.969231354277575,
images/exp1b_trial_70_colour2_distractors4_r.png,r,3,2,4,1,,,,,0,199,199,199,,,,,,,,,,,,,,,,,,,,,,,,,,,,,,,,,,,,,,,,,,,476.3654927330208,None,2,0.15468629798851907,476.3654927330208,None,,,,,,,,,,,,,,,,None,None,None,,None,None,476.5653146079858,None,3,1,0.7053928609821014,476.5653146079858,None,477.26336854263207,None,None,None,None,,16,001,2023_Jan_20_1346,searchDisc5,2021.2.3,59.969231354277575,
images/exp1b_trial_35_colour1_distractors19_r.png,r,3,1,19,1,,,,,0,200,200,200,,,,,,,,,,,,,,,,,,,,,,,,,,,,,,,,,,,,,,,,,,,477.2795917559997,None,2,0.15672485798131675,477.2795917559997,None,,,,,,,,,,,,,,,,None,None,None,,None,None,477.4801505979849,None,3,1,0.9340439980151132,477.4801505979849,None,478.41295088959157,None,None,None,None,,16,001,2023_Jan_20_1346,searchDisc5,2021.2.3,59.969231354277575,
images/exp1b_trial_43_colour3_distractors4_r.png,r,3,3,4,1,,,,,0,201,201,201,,,,,,,,,,,,,,,,,,,,,,,,,,,,,,,,,,,,,,,,,,,478.4302215600037,None,2,0.1551423170021735,478.4302215600037,None,,,,,,,,,,,,,,,,None,None,None,,None,None,478.6303753540269,None,3,1,0.8065136059885845,478.6303753540269,None,479.43033982258055,None,None,None,None,,16,001,2023_Jan_20_1346,searchDisc5,2021.2.3,59.969231354277575,
images/exp1b_trial_229_colour2_distractors1_r.png,r,3,2,1,1,,,,,0,202,202,202,,,,,,,,,,,,,,,,,,,,,,,,,,,,,,,,,,,,,,,,,,,479.4462301650201,None,2,0.1527905630064197,479.4462301650201,None,,,,,,,,,,,,,,,,None,None,None,,None,None,479.64880145102507,None,3,1,0.6229708719765767,479.64880145102507,None,480.2637692626216,None,None,None,None,,16,001,2023_Jan_20_1346,searchDisc5,2021.2.3,59.969231354277575,
images/exp1b_trial_76_colour3_distractors9_r.png,r,3,3,9,1,,,,,0,203,203,203,,,,,,,,,,,,,,,,,,,,,,,,,,,,,,,,,,,,,,,,,,,480.282247258001,None,2,0.1556448619812727,480.282247258001,None,,,,,,,,,,,,,,,,None,None,None,,None,None,480.48234893998597,None,3,1,1.0532098640105687,480.48234893998597,None,481.5303086625994,None,None,None,None,,16,001,2023_Jan_20_1346,searchDisc5,2021.2.3,59.969231354277575,
images/exp1b_trial_316_colour3_distractors19_l.png,l,1,3,19,1,,,,,0,204,204,204,,,,,,,,,,,,,,,,,,,,,,,,,,,,,,,,,,,,,,,,,,,481.5465543830069,None,2,0.1380827350076288,481.5465543830069,None,,,,,,,,,,,,,,,,None,None,None,,None,None,481.72990988299716,None,1,1,0.7356892279931344,481.72990988299716,None,482.46324216461505,None,None,None,None,,16,001,2023_Jan_20_1346,searchDisc5,2021.2.3,59.969231354277575,
images/exp1b_trial_251_colour3_distractors9_l.png,l,1,3,9,1,,,,,0,205,205,205,,,,,,,,,,,,,,,,,,,,,,,,,,,,,,,,,,,,,,,,,,,482.48029104201123,None,2,0.10553983499994501,482.48029104201123,None,,,,,,,,,,,,,,,,None,None,None,,None,None,482.6298896499793,None,3,0,0.6871833510231227,482.6298896499793,None,483.31381215158615,None,None,None,None,,16,001,2023_Jan_20_1346,searchDisc5,2021.2.3,59.969231354277575,
images/exp1b_trial_145_colour1_distractors9_l.png,l,1,1,9,1,,,,,0,206,206,206,,,,,,,,,,,,,,,,,,,,,,,,,,,,,,,,,,,,,,,,,,,483.33041050401516,None,2,1.2212527159717865,483.33041050401516,None,,,,,,,,,,,,,,,,None,None,None,,None,None,484.5968985700165,None,1,1,1.1379098200122826,484.5968985700165,None,485.7304806316155,None,None,None,None,,16,001,2023_Jan_20_1346,searchDisc5,2021.2.3,59.969231354277575,
images/exp1b_trial_223_colour0_distractors0_l.png,l,1,0,0,1,,,,,0,207,207,207,,,,,,,,,,,,,,,,,,,,,,,,,,,,,,,,,,,,,,,,,,,485.7469526340137,None,2,0.12078771804226562,485.7469526340137,None,,,,,,,,,,,,,,,,None,None,None,,None,None,485.91407875699224,None,1,1,0.6738664850126952,485.91407875699224,None,486.5806072735926,None,None,None,None,,16,001,2023_Jan_20_1346,searchDisc5,2021.2.3,59.969231354277575,
images/exp1b_trial_95_colour0_distractors0_l.png,l,1,0,0,1,,,,,0,208,208,208,,,,,,,,,,,,,,,,,,,,,,,,,,,,,,,,,,,,,,,,,,,486.59660502697807,None,2,0.1879120419616811,486.59660502697807,None,,,,,,,,,,,,,,,,None,None,None,,None,None,486.83265625301283,None,1,1,0.6392660010023974,486.83265625301283,None,487.4638097536284,None,None,None,None,,16,001,2023_Jan_20_1346,searchDisc5,2021.2.3,59.969231354277575,
images/exp1b_trial_63_colour0_distractors0_l.png,l,1,0,0,1,,,,,0,209,209,209,,,,,,,,,,,,,,,,,,,,,,,,,,,,,,,,,,,,,,,,,,,487.48043468699325,None,2,0.10685571999056265,487.48043468699325,None,,,,,,,,,,,,,,,,None,None,None,,None,None,487.6327240950195,None,1,1,0.3707578259636648,487.6327240950195,None,487.99715205163227,None,None,None,None,,16,001,2023_Jan_20_1346,searchDisc5,2021.2.3,59.969231354277575,
images/exp1b_trial_252_colour3_distractors19_l.png,l,1,3,19,1,,,,,0,210,210,210,,,,,,,,,,,,,,,,,,,,,,,,,,,,,,,,,,,,,,,,,,,488.01380065002013,None,2,0.25631957000587136,488.01380065002013,None,,,,,,,,,,,,,,,,None,None,None,,None,None,488.31611702102236,None,1,1,1.2343023319845088,488.31611702102236,None,489.54707019162595,None,None,None,None,,16,001,2023_Jan_20_1346,searchDisc5,2021.2.3,59.969231354277575,
images/exp1b_trial_310_colour2_distractors9_l.png,l,1,2,9,1,,,,,0,211,211,211,,,,,,,,,,,,,,,,,,,,,,,,,,,,,,,,,,,,,,,,,,,489.56378098699497,None,2,0.07325727003626525,489.56378098699497,None,,,,,,,,,,,,,,,,None,None,None,,None,None,489.6826392809744,None,1,1,0.921645134978462,489.6826392809744,None,490.5973620706121,None,None,None,None,,16,001,2023_Jan_20_1346,searchDisc5,2021.2.3,59.969231354277575,
images/exp1b_trial_114_colour1_distractors19_l.png,l,1,1,19,1,,,,,0,212,212,212,,,,,,,,,,,,,,,,,,,,,,,,,,,,,,,,,,,,,,,,,,,490.6134183810209,None,2,0.07178023300366476,490.6134183810209,None,,,,,,,,,,,,,,,,None,None,None,,None,None,490.7310607479885,None,1,1,0.9011911749839783,490.7310607479885,None,491.6306437335792,None,None,None,None,,16,001,2023_Jan_20_1346,searchDisc5,2021.2.3,59.969231354277575,
images/exp1b_trial_91_colour3_distractors9_l.png,l,1,3,9,1,,,,,0,213,213,213,,,,,,,,,,,,,,,,,,,,,,,,,,,,,,,,,,,,,,,,,,,491.64730793301715,None,2,0.15592881600605324,491.64730793301715,None,,,,,,,,,,,,,,,,None,None,None,,None,None,491.8501586620114,None,3,0,1.2374143039924093,491.8501586620114,None,493.0810041036224,None,None,None,None,,16,001,2023_Jan_20_1346,searchDisc5,2021.2.3,59.969231354277575,
images/exp1b_trial_19_colour1_distractors31_l.png,l,1,1,31,1,,,,,0,214,214,214,,,,,,,,,,,,,,,,,,,,,,,,,,,,,,,,,,,,,,,,,,,493.0984559080098,None,2,1.6877729300176725,493.0984559080098,None,,,,,,,,,,,,,,,,None,None,None,,None,None,494.8319576680078,None,1,1,0.6356278869789094,494.8319576680078,None,495.464295949589,None,None,None,None,,16,001,2023_Jan_20_1346,searchDisc5,2021.2.3,59.969231354277575,
images/exp1b_trial_24_colour2_distractors31_l.png,l,1,2,31,1,,,,,0,215,215,215,,,,,,,,,,,,,,,,,,,,,,,,,,,,,,,,,,,,,,,,,,,495.4833951970213,None,2,0.15590298495953903,495.4833951970213,None,,,,,,,,,,,,,,,,None,None,None,,None,None,495.6827696399996,None,1,1,0.8018514210125431,495.6827696399996,None,496.48085246861444,None,None,None,None,,16,001,2023_Jan_20_1346,searchDisc5,2021.2.3,59.969231354277575,
images/exp1b_trial_306_colour1_distractors19_l.png,l,1,1,19,1,,,,,0,216,216,216,,,,,,,,,,,,,,,,,,,,,,,,,,,,,,,,,,,,,,,,,,,496.4981257839827,None,2,0.12197224597912282,496.4981257839827,None,,,,,,,,,,,,,,,,None,None,None,,None,None,496.66537092701765,None,1,1,1.0049301810213365,496.66537092701765,None,497.6662583366036,None,None,None,None,,16,001,2023_Jan_20_1346,searchDisc5,2021.2.3,59.969231354277575,
images/exp1b_trial_318_colour0_distractors0_r.png,r,3,0,0,1,,,,,0,217,217,217,,,,,,,,,,,,,,,,,,,,,,,,,,,,,,,,,,,,,,,,,,,497.68080977600766,None,2,0.1033342300215736,497.68080977600766,None,,,,,,,,,,,,,,,,None,None,None,,None,None,497.83124935702654,None,3,1,0.6722251889877953,497.83124935702654,None,498.4975344715989,None,None,None,None,,16,001,2023_Jan_20_1346,searchDisc5,2021.2.3,59.969231354277575,
images/exp1b_trial_29_colour3_distractors31_l.png,l,1,3,31,1,,,,,0,218,218,218,,,,,,,,,,,,,,,,,,,,,,,,,,,,,,,,,,,,,,,,,,,498.5145586699946,None,2,0.10755041695665568,498.5145586699946,None,,,,,,,,,,,,,,,,None,None,None,,None,None,498.6651627540123,None,1,1,0.8168610619613901,498.6651627540123,None,499.480903455615,None,None,None,None,,16,001,2023_Jan_20_1346,searchDisc5,2021.2.3,59.969231354277575,
images/exp1b_trial_59_colour3_distractors9_l.png,l,1,3,9,1,,,,,0,219,219,219,,,,,,,,,,,,,,,,,,,,,,,,,,,,,,,,,,,,,,,,,,,499.5001041620271,None,2,0.10475675197085366,499.5001041620271,None,,,,,,,,,,,,,,,,None,None,None,,None,None,499.6506770820124,None,1,1,1.2875328740337864,499.6506770820124,None,500.9309532356332,None,None,None,None,,16,001,2023_Jan_20_1346,searchDisc5,2021.2.3,59.969231354277575,
images/exp1b_trial_222_colour0_distractors0_r.png,r,3,0,0,1,,,,,0,220,220,220,,,,,,,,,,,,,,,,,,,,,,,,,,,,,,,,,,,,,,,,,,,500.9480567710125,None,2,0.15463103499496356,500.9480567710125,None,,,,,,,,,,,,,,,,None,None,None,,None,None,501.1479634990101,None,1,0,0.6238857670105062,501.1479634990101,None,501.7644736945862,None,None,None,None,,16,001,2023_Jan_20_1346,searchDisc5,2021.2.3,59.969231354277575,
images/exp1b_trial_202_colour3_distractors1_r.png,r,3,3,1,1,,,,,0,221,221,221,,,,,,,,,,,,,,,,,,,,,,,,,,,,,,,,,,,,,,,,,,,501.7810028279782,None,2,0.13993519498035312,501.7810028279782,None,,,,,,,,,,,,,,,,None,None,None,,None,None,501.9648692319752,None,3,1,1.0546769800130278,501.9648692319752,None,503.0143722886336,None,None,None,None,,16,001,2023_Jan_20_1346,searchDisc5,2021.2.3,59.969231354277575,
images/exp1b_trial_130_colour1_distractors9_r.png,r,3,1,9,1,,,,,0,222,222,222,,,,,,,,,,,,,,,,,,,,,,,,,,,,,,,,,,,,,,,,,,,503.0306385430158,None,2,0.12342930003069341,503.0306385430158,None,,,,,,,,,,,,,,,,None,None,None,,None,None,503.2007239140221,None,3,1,1.0205105150234886,503.2007239140221,None,504.2144271256169,None,None,None,None,,16,001,2023_Jan_20_1346,searchDisc5,2021.2.3,59.969231354277575,
images/exp1b_trial_134_colour2_distractors4_r.png,r,3,2,4,1,,,,,0,223,223,223,,,,,,,,,,,,,,,,,,,,,,,,,,,,,,,,,,,,,,,,,,,504.23234387801494,None,2,0.08730698301224038,504.23234387801494,None,,,,,,,,,,,,,,,,None,None,None,,None,None,504.3645771529991,None,3,1,0.8378860389930196,504.3645771529991,None,505.1978265195852,None,None,None,None,,16,001,2023_Jan_20_1346,searchDisc5,2021.2.3,59.969231354277575,
images/exp1b_trial_199_colour2_distractors9_r.png,r,3,2,9,1,,,,,0,224,224,224,,,,,,,,,,,,,,,,,,,,,,,,,,,,,,,,,,,,,,,,,,,505.2170478240005,None,2,0.07205186999635771,505.2170478240005,None,,,,,,,,,,,,,,,,None,None,None,,None,None,505.3313137899968,None,3,1,0.8704235969926231,505.3313137899968,None,506.1976925456314,None,None,None,None,,16,001,2023_Jan_20_1346,searchDisc5,2021.2.3,59.969231354277575,
