ImageFile,targ_side,correctAnswer,colour,distNo,targetType,trials_2.thisRepN,trials_2.thisTrialN,trials_2.thisN,trials_2.thisIndex,trials.thisRepN,trials.thisTrialN,trials.thisN,trials.thisIndex,text_6.started,text_6.stopped,buttonBox.keys,buttonBox.rt,buttonBox.started,buttonBox.stopped,text_7.started,text_7.stopped,buttonBox_3.keys,buttonBox_3.rt,buttonBox_3.started,buttonBox_3.stopped,text_8.started,text_8.stopped,buttonBox_4.keys,buttonBox_4.rt,buttonBox_4.started,buttonBox_4.stopped,text_9.started,text_9.stopped,buttonBox_5.keys,buttonBox_5.rt,buttonBox_5.started,buttonBox_5.stopped,text_2.started,text_2.stopped,buttonBox_6.keys,buttonBox_6.rt,buttonBox_6.started,buttonBox_6.stopped,text_5.started,text_5.stopped,buttonBox_7.keys,buttonBox_7.rt,image_2.started,image_2.stopped,image_3.started,image_3.stopped,buttonBox_8.keys,buttonBox_8.rt,buttonBox_8.started,buttonBox_8.stopped,polygon.started,polygon.stopped,buttonBox_9.keys,buttonBox_9.rt,buttonBox_9.started,buttonBox_9.stopped,image.started,image.stopped,buttonBox_10.keys,buttonBox_10.corr,buttonBox_10.rt,buttonBox_10.started,buttonBox_10.stopped,text_4.started,text_4.stopped,text.started,text.stopped,buttonBox_11.keys,buttonBox_11.rt,buttonBox_11.started,buttonBox_11.stopped,targetTypeInstruction.started,targetTypeInstruction.stopped,buttonBox_2.keys,buttonBox_2.rt,buttonBox_2.started,buttonBox_2.stopped,dispStimuli.started,dispStimuli.stopped,buttonBox_12.keys,buttonBox_12.corr,buttonBox_12.rt,buttonBox_12.started,buttonBox_12.stopped,breakMessage.started,breakMessage.stopped,buttonBox_13.keys,buttonBox_13.started,buttonBox_13.stopped,buttonBox_13.rt,participant,session,date,expName,psychopyVersion,frameRate,
,,,,,,,,,,,,,,22.962168888014276,None,2,89.88575712800957,22.962168888014276,None,,,,,,,,,,,,,,,,,,,,,,,,,,,,,,,,,,,,,,,,,,,,,,,,,,,,,,,,,,,,,,,,,,,,,,,,,,,,,18,001,2023_Jan_20_1550,searchDisc5,2021.2.3,59.95111322180185,
,,,,,,,,,,,,,,,,,,,,112.84847914800048,None,2,29.578861267014872,112.84847914800048,None,,,,,,,,,,,,,,,,,,,,,,,,,,,,,,,,,,,,,,,,,,,,,,,,,,,,,,,,,,,,,,,,,,,,,,,18,001,2023_Jan_20_1550,searchDisc5,2021.2.3,59.95111322180185,
,,,,,,,,,,,,,,,,,,,,,,,,,,142.4304604229983,None,2,12.43140412401408,142.4304604229983,None,,,,,,,,,,,,,,,,,,,,,,,,,,,,,,,,,,,,,,,,,,,,,,,,,,,,,,,,,,,,,,,,,18,001,2023_Jan_20_1550,searchDisc5,2021.2.3,59.95111322180185,
,,,,,,,,,,,,,,,,,,,,,,,,,,,,,,,,154.86615103302756,None,2,15.851225164020434,154.86615103302756,None,,,,,,,,,,,,,,,,,,,,,,,,,,,,,,,,,,,,,,,,,,,,,,,,,,,,,,,,,,,18,001,2023_Jan_20_1550,searchDisc5,2021.2.3,59.95111322180185,
,,,,,,,,,,,,,,,,,,,,,,,,,,,,,,,,,,,,,,170.71657776704524,None,2,13.500434001965914,171.69977465103148,None,,,,,,,,,,,,,,,,,,,,,,,,,,,,,,,,,,,,,,,,,,,,,,,,,,,,,18,001,2023_Jan_20_1550,searchDisc5,2021.2.3,59.95111322180185,
,,,,,,,,,,,,,,,,,,,,,,,,,,,,,,,,,,,,,,,,,,,,185.20023267099168,None,2,6.914580877986737,,,,,,,,,,,,,,,,,,,,,,,,,,,,,,,,,,,,,,,,,,,,,,,,,18,001,2023_Jan_20_1550,searchDisc5,2021.2.3,59.95111322180185,
,,,,,,,,,,,,,,,,,,,,,,,,,,,,,,,,,,,,,,,,,,,,,,,,195.11693969502812,None,195.11693969502812,None,2,6.434135571995284,195.11693969502812,None,,,,,,,,,,,,,,,,,,,,,,,,,,,,,,,,,,,,,,,,,18,001,2023_Jan_20_1550,searchDisc5,2021.2.3,59.95111322180185,
Practice arrays/exp1a_trial_27_colour3_distractors9_l.png,l,1,,,,0,0,0,12,,,,,,,,,,,,,,,,,,,,,,,,,,,,,,,,,,,,,,,,,,,,,,,201.58176576899132,None,2,7.966737581999041,201.58176576899132,None,209.6012898660265,None,1,1,3.4892978940042667,209.6012898660265,None,213.08186678303173,None,,,,,,,,,,,,,,,,,,,,,,,,,,18,001,2023_Jan_20_1550,searchDisc5,2021.2.3,59.95111322180185,
Practice arrays/exp1a_trial_30_colour0_distractors0_r.png,r,3,,,,0,1,1,14,,,,,,,,,,,,,,,,,,,,,,,,,,,,,,,,,,,,,,,,,,,,,,,215.08433233504184,None,2,1.6156270889914595,215.08433233504184,None,216.7491288970341,None,3,1,0.753989867051132,216.7491288970341,None,217.4990776469931,None,,,,,,,,,,,,,,,,,,,,,,,,,,18,001,2023_Jan_20_1550,searchDisc5,2021.2.3,59.95111322180185,
Practice arrays/exp1a_trial_8_colour2_distractors19_r.png,r,3,,,,0,2,2,3,,,,,,,,,,,,,,,,,,,,,,,,,,,,,,,,,,,,,,,,,,,,,,,219.50096725102048,None,2,0.6969807189889252,219.50096725102048,None,220.2512715010089,None,3,1,0.9512075610109605,220.2512715010089,None,221.1991954059922,None,,,,,,,,,,,,,,,,,,,,,,,,,,18,001,2023_Jan_20_1550,searchDisc5,2021.2.3,59.95111322180185,
Practice arrays/exp1a_trial_21_colour2_distractors4_l.png,l,1,,,,0,3,3,9,,,,,,,,,,,,,,,,,,,,,,,,,,,,,,,,,,,,,,,,,,,,,,,223.20088606799254,None,2,0.5465760139632039,223.20088606799254,None,223.8017135200207,None,1,1,0.9058010780136101,223.8017135200207,None,224.6992995100445,None,,,,,,,,,,,,,,,,,,,,,,,,,,18,001,2023_Jan_20_1550,searchDisc5,2021.2.3,59.95111322180185,
Practice arrays/exp1a_trial_17_colour1_distractors9_l.png,l,1,,,,0,4,4,7,,,,,,,,,,,,,,,,,,,,,,,,,,,,,,,,,,,,,,,,,,,,,,,226.70126743102446,None,2,0.6299774720100686,226.70126743102446,None,227.38292565301526,None,1,1,0.7200431360397488,227.38292565301526,None,228.09940858604386,None,,,,,,,,,,,,,,,,,,,,,,,,,,18,001,2023_Jan_20_1550,searchDisc5,2021.2.3,59.95111322180185,
Practice arrays/exp1a_trial_12_colour3_distractors9_r.png,r,3,,,,0,5,5,5,,,,,,,,,,,,,,,,,,,,,,,,,,,,,,,,,,,,,,,,,,,,,,,230.0994517170475,None,2,0.5653274650103413,230.0994517170475,None,230.71633715799544,None,3,1,0.7188406749628484,230.71633715799544,None,231.43273329501972,None,,,,,,,,,,,,,,,,,,,,,,,,,,18,001,2023_Jan_20_1550,searchDisc5,2021.2.3,59.95111322180185,
Practice arrays/exp1a_trial_0_colour1_distractors1_r.png,r,3,,,,0,6,6,0,,,,,,,,,,,,,,,,,,,,,,,,,,,,,,,,,,,,,,,,,,,,,,,233.4349024760304,None,2,0.5471761769731529,233.4349024760304,None,234.03247694903985,None,3,1,0.8859152079676278,234.03247694903985,None,234.9162889320287,None,,,,,,,,,,,,,,,,,,,,,,,,,,18,001,2023_Jan_20_1550,searchDisc5,2021.2.3,59.95111322180185,
Practice arrays/exp1a_trial_31_colour0_distractors0_l.png,l,1,,,,0,7,7,15,,,,,,,,,,,,,,,,,,,,,,,,,,,,,,,,,,,,,,,,,,,,,,,236.91799090302084,None,2,0.5159085879568011,236.91799090302084,None,237.48531829903368,None,1,1,0.7859218390076421,237.48531829903368,None,238.26629749004496,None,,,,,,,,,,,,,,,,,,,,,,,,,,18,001,2023_Jan_20_1550,searchDisc5,2021.2.3,59.95111322180185,
Practice arrays/exp1a_trial_1_colour1_distractors4_r.png,r,3,,,,0,8,8,1,,,,,,,,,,,,,,,,,,,,,,,,,,,,,,,,,,,,,,,,,,,,,,,240.26800712302793,None,2,0.38244814897188917,240.26800712302793,None,240.69988741603447,None,3,1,0.618812725006137,240.69988741603447,None,241.3164828850422,None,,,,,,,,,,,,,,,,,,,,,,,,,,18,001,2023_Jan_20_1550,searchDisc5,2021.2.3,59.95111322180185,
Practice arrays/exp1a_trial_25_colour3_distractors1_l.png,l,1,,,,0,9,9,11,,,,,,,,,,,,,,,,,,,,,,,,,,,,,,,,,,,,,,,,,,,,,,,243.3181783700129,None,2,0.5637448789784685,243.3181783700129,None,243.93350047402782,None,1,1,0.7059445139602758,243.93350047402782,None,244.6331448419951,None,,,,,,,,,,,,,,,,,,,,,,,,,,18,001,2023_Jan_20_1550,searchDisc5,2021.2.3,59.95111322180185,
Practice arrays/exp1a_trial_10_colour3_distractors1_r.png,r,3,,,,0,10,10,4,,,,,,,,,,,,,,,,,,,,,,,,,,,,,,,,,,,,,,,,,,,,,,,246.6348877309938,None,2,0.6468267290038057,246.6348877309938,None,247.33351546199992,None,3,1,0.8236234759679064,247.33351546199992,None,248.14965701900655,None,,,,,,,,,,,,,,,,,,,,,,,,,,18,001,2023_Jan_20_1550,searchDisc5,2021.2.3,59.95111322180185,
Practice arrays/exp1a_trial_16_colour1_distractors4_l.png,l,1,,,,0,11,11,13,,,,,,,,,,,,,,,,,,,,,,,,,,,,,,,,,,,,,,,,,,,,,,,250.15208576602163,None,2,0.5638046289677732,250.15208576602163,None,250.76692387304502,None,1,1,0.688292557024397,250.76692387304502,None,251.44996154599357,None,,,,,,,,,,,,,,,,,,,,,,,,,,18,001,2023_Jan_20_1550,searchDisc5,2021.2.3,59.95111322180185,
Practice arrays/exp1a_trial_7_colour2_distractors9_r.png,r,3,,,,0,12,12,2,,,,,,,,,,,,,,,,,,,,,,,,,,,,,,,,,,,,,,,,,,,,,,,253.4521298049949,None,2,0.4799934499897063,253.4521298049949,None,253.98565731599228,None,3,1,0.7539084189920686,253.98565731599228,None,254.73346404603217,None,,,,,,,,,,,,,,,,,,,,,,,,,,18,001,2023_Jan_20_1550,searchDisc5,2021.2.3,59.95111322180185,
Practice arrays/exp1a_trial_14_colour3_distractors31_r.png,r,3,,,,0,13,13,6,,,,,,,,,,,,,,,,,,,,,,,,,,,,,,,,,,,,,,,,,,,,,,,256.735150188033,None,2,0.38347388099646196,256.735150188033,None,257.1671264040051,None,3,1,0.5622042100294493,257.1671264040051,None,257.7335830980446,None,,,,,,,,,,,,,,,,,,,,,,,,,,18,001,2023_Jan_20_1550,searchDisc5,2021.2.3,59.95111322180185,
Practice arrays/exp1a_trial_23_colour2_distractors19_l.png,l,1,,,,0,14,14,10,,,,,,,,,,,,,,,,,,,,,,,,,,,,,,,,,,,,,,,,,,,,,,,259.73508469801163,None,2,0.3138345940387808,259.73508469801163,None,260.10541495803045,None,1,1,0.5283648720360361,260.10541495803045,None,260.63345182704506,None,,,,,,,,,,,,,,,,,,,,,,,,,,18,001,2023_Jan_20_1550,searchDisc5,2021.2.3,59.95111322180185,
Practice arrays/exp1a_trial_18_colour1_distractors19_l.png,l,1,,,,0,15,15,8,,,,,,,,,,,,,,,,,,,,,,,,,,,,,,,,,,,,,,,,,,,,,,,262.6356864059926,None,2,0.31378154503181577,262.6356864059926,None,263.00234435801394,None,1,1,0.6510508409701288,263.00234435801394,None,263.6503754550358,None,,,,,,,,,,,,,,,,,,,,,,,,,,18,001,2023_Jan_20_1550,searchDisc5,2021.2.3,59.95111322180185,
,,,,,,,,,,,,,,,,,,,,,,,,,,,,,,,,,,,,,,,,,,,,,,,,,,,,,,,,,,,,,,,,,,,,,,,265.735450718028,None,2,9.881505127006676,266.719052288041,None,,,,,,,,,,,,,,,,,,,,18,001,2023_Jan_20_1550,searchDisc5,2021.2.3,59.95111322180185,
images/exp1b_trial_259_colour1_distractors19_r.png,r,3,1,19,1,,,,,0,0,0,0,,,,,,,,,,,,,,,,,,,,,,,,,,,,,,,,,,,,,,,,,,,285.25067796901567,None,2,1.06214216403896,285.25067796901567,None,,,,,,,,,,,,,,,,277.18544173403643,None,2,6.064753059006762,279.18602918303804,None,286.37856723804725,None,3,1,1.6452757630031556,286.37856723804725,None,288.03487182045353,None,None,None,None,,18,001,2023_Jan_20_1550,searchDisc5,2021.2.3,59.95111322180185,
images/exp1b_trial_161_colour1_distractors4_r.png,r,3,1,4,1,,,,,0,1,1,1,,,,,,,,,,,,,,,,,,,,,,,,,,,,,,,,,,,,,,,,,,,288.0505948110367,None,2,1.003477375023067,288.0505948110367,None,,,,,,,,,,,,,,,,None,None,None,,None,None,289.1013731290004,None,3,1,0.9219863790203817,289.1013731290004,None,290.017958195199,None,None,None,None,,18,001,2023_Jan_20_1550,searchDisc5,2021.2.3,59.95111322180185,
images/exp1b_trial_26_colour3_distractors4_l.png,l,1,3,4,1,,,,,0,2,2,2,,,,,,,,,,,,,,,,,,,,,,,,,,,,,,,,,,,,,,,,,,,290.0345771810389,None,2,0.7027443579863757,290.0345771810389,None,,,,,,,,,,,,,,,,None,None,None,,None,None,290.7838946059928,None,1,1,1.3227859399630688,290.7838946059928,None,292.10157492822617,None,None,None,None,,18,001,2023_Jan_20_1550,searchDisc5,2021.2.3,59.95111322180185,
images/exp1b_trial_134_colour2_distractors4_r.png,r,3,2,4,1,,,,,0,3,3,3,,,,,,,,,,,,,,,,,,,,,,,,,,,,,,,,,,,,,,,,,,,292.1172229970107,None,2,0.538534932944458,292.1172229970107,None,,,,,,,,,,,,,,,,None,None,None,,None,None,292.703337576997,None,3,1,1.2035499540506862,292.703337576997,None,293.9014421302301,None,None,None,None,,18,001,2023_Jan_20_1550,searchDisc5,2021.2.3,59.95111322180185,
images/exp1b_trial_304_colour1_distractors4_l.png,l,1,1,4,1,,,,,0,4,4,4,,,,,,,,,,,,,,,,,,,,,,,,,,,,,,,,,,,,,,,,,,,293.9178837800282,None,2,0.605118767998647,293.9178837800282,None,,,,,,,,,,,,,,,,None,None,None,,None,None,294.5700727539952,None,1,1,0.786839405016508,294.5700727539952,None,295.3514860372117,None,None,None,None,,18,001,2023_Jan_20_1550,searchDisc5,2021.2.3,59.95111322180185,
images/exp1b_trial_50_colour1_distractors19_l.png,l,1,1,19,1,,,,,0,5,5,5,,,,,,,,,,,,,,,,,,,,,,,,,,,,,,,,,,,,,,,,,,,295.36776708002435,None,2,0.45840682002017274,295.36776708002435,None,,,,,,,,,,,,,,,,None,None,None,,None,None,295.8697958360426,None,1,1,0.8148590169730596,295.8697958360426,None,296.684309948195,None,None,None,None,,18,001,2023_Jan_20_1550,searchDisc5,2021.2.3,59.95111322180185,
images/exp1b_trial_15_colour1_distractors1_l.png,l,1,1,1,1,,,,,0,6,6,6,,,,,,,,,,,,,,,,,,,,,,,,,,,,,,,,,,,,,,,,,,,296.7013108090032,None,2,0.6072963349870406,296.7013108090032,None,,,,,,,,,,,,,,,,None,None,None,,None,None,297.351330273028,None,1,1,0.6872597049805336,297.351330273028,None,298.03488157522514,None,None,None,None,,18,001,2023_Jan_20_1550,searchDisc5,2021.2.3,59.95111322180185,
images/exp1b_trial_62_colour0_distractors0_r.png,r,3,0,0,1,,,,,0,7,7,7,,,,,,,,,,,,,,,,,,,,,,,,,,,,,,,,,,,,,,,,,,,298.05093718104763,None,2,0.654509543965105,298.05093718104763,None,,,,,,,,,,,,,,,,None,None,None,,None,None,298.7513663370046,None,3,1,0.6561519869719632,298.7513663370046,None,299.40160406825015,None,None,None,None,,18,001,2023_Jan_20_1550,searchDisc5,2021.2.3,59.95111322180185,
images/exp1b_trial_258_colour1_distractors9_r.png,r,3,1,9,1,,,,,0,8,8,8,,,,,,,,,,,,,,,,,,,,,,,,,,,,,,,,,,,,,,,,,,,299.41992697602836,None,2,0.5566068420303054,299.41992697602836,None,,,,,,,,,,,,,,,,None,None,None,,None,None,300.0182201730204,None,3,1,0.9001995860016905,300.0182201730204,None,300.9183210062503,None,None,None,None,,18,001,2023_Jan_20_1550,searchDisc5,2021.2.3,59.95111322180185,
images/exp1b_trial_1_colour1_distractors4_r.png,r,3,1,4,1,,,,,0,9,9,9,,,,,,,,,,,,,,,,,,,,,,,,,,,,,,,,,,,,,,,,,,,300.93452496803366,None,2,0.48677600297378376,300.93452496803366,None,,,,,,,,,,,,,,,,None,None,None,,None,None,301.4676164110424,None,3,1,0.7374534150003456,301.4676164110424,None,302.2020289531967,None,None,None,None,,18,001,2023_Jan_20_1550,searchDisc5,2021.2.3,59.95111322180185,
images/exp1b_trial_13_colour3_distractors19_r.png,r,3,3,19,1,,,,,0,10,10,10,,,,,,,,,,,,,,,,,,,,,,,,,,,,,,,,,,,,,,,,,,,302.2182275680243,None,2,0.5372974770143628,302.2182275680243,None,,,,,,,,,,,,,,,,None,None,None,,None,None,302.80369109503226,None,3,1,2.0191273620002903,302.80369109503226,None,304.8185449871991,None,None,None,None,,18,001,2023_Jan_20_1550,searchDisc5,2021.2.3,59.95111322180185,
images/exp1b_trial_152_colour2_distractors31_l.png,l,1,2,31,1,,,,,0,11,11,11,,,,,,,,,,,,,,,,,,,,,,,,,,,,,,,,,,,,,,,,,,,304.83469631901244,None,2,0.5207297389861196,304.83469631901244,None,,,,,,,,,,,,,,,,None,None,None,,None,None,305.403615246003,None,1,1,1.8500873599550687,305.403615246003,None,307.25170741022447,None,None,None,None,,18,001,2023_Jan_20_1550,searchDisc5,2021.2.3,59.95111322180185,
images/exp1b_trial_72_colour2_distractors19_r.png,r,3,2,19,1,,,,,0,12,12,12,,,,,,,,,,,,,,,,,,,,,,,,,,,,,,,,,,,,,,,,,,,307.2702040360309,None,2,0.805990534950979,307.2702040360309,None,,,,,,,,,,,,,,,,None,None,None,,None,None,308.1183999410132,None,3,1,1.0201375799952075,308.1183999410132,None,309.13534143923897,None,None,None,None,,18,001,2023_Jan_20_1550,searchDisc5,2021.2.3,59.95111322180185,
images/exp1b_trial_36_colour1_distractors31_r.png,r,3,1,31,1,,,,,0,13,13,13,,,,,,,,,,,,,,,,,,,,,,,,,,,,,,,,,,,,,,,,,,,309.15198545501335,None,2,0.8217421389999799,309.15198545501335,None,,,,,,,,,,,,,,,,None,None,None,,None,None,310.01782478403766,None,3,1,0.9008742629666813,310.01782478403766,None,310.9186911792087,None,None,None,None,,18,001,2023_Jan_20_1550,searchDisc5,2021.2.3,59.95111322180185,
images/exp1b_trial_54_colour2_distractors9_l.png,l,1,2,9,1,,,,,0,14,14,14,,,,,,,,,,,,,,,,,,,,,,,,,,,,,,,,,,,,,,,,,,,310.93429372203536,None,2,0.7730009849765338,310.93429372203536,None,,,,,,,,,,,,,,,,None,None,None,,None,None,311.75385482999263,None,1,1,1.0525202740100212,311.75385482999263,None,312.80190981821505,None,None,None,None,,18,001,2023_Jan_20_1550,searchDisc5,2021.2.3,59.95111322180185,
images/exp1b_trial_34_colour1_distractors9_r.png,r,3,1,9,1,,,,,0,15,15,15,,,,,,,,,,,,,,,,,,,,,,,,,,,,,,,,,,,,,,,,,,,312.8179633220425,None,2,0.5545780009706505,312.8179633220425,None,,,,,,,,,,,,,,,,None,None,None,,None,None,313.4207223470439,None,3,1,0.7550376419676468,313.4207223470439,None,314.1686287502118,None,None,None,None,,18,001,2023_Jan_20_1550,searchDisc5,2021.2.3,59.95111322180185,
images/exp1b_trial_197_colour2_distractors1_r.png,r,3,2,1,1,,,,,0,16,16,16,,,,,,,,,,,,,,,,,,,,,,,,,,,,,,,,,,,,,,,,,,,314.1842108379933,None,2,0.5375975429778919,314.1842108379933,None,,,,,,,,,,,,,,,,None,None,None,,None,None,314.77073998301057,None,3,1,0.5895744379959069,314.77073998301057,None,315.3519810651953,None,None,None,None,,18,001,2023_Jan_20_1550,searchDisc5,2021.2.3,59.95111322180185,
images/exp1b_trial_293_colour2_distractors1_r.png,r,3,2,1,1,,,,,0,17,17,17,,,,,,,,,,,,,,,,,,,,,,,,,,,,,,,,,,,,,,,,,,,315.3684058940271,None,2,0.40618460695259273,315.3684058940271,None,,,,,,,,,,,,,,,,None,None,None,,None,None,315.8208180690417,None,3,1,0.6539464740199037,315.8208180690417,None,316.46866410920046,None,None,None,None,,18,001,2023_Jan_20_1550,searchDisc5,2021.2.3,59.95111322180185,
images/exp1b_trial_199_colour2_distractors9_r.png,r,3,2,9,1,,,,,0,18,18,18,,,,,,,,,,,,,,,,,,,,,,,,,,,,,,,,,,,,,,,,,,,316.4850210620207,None,2,0.44020788598572835,316.4850210620207,None,,,,,,,,,,,,,,,,None,None,None,,None,None,316.97101740399376,None,3,1,1.086130140000023,316.97101740399376,None,318.05204954320214,None,None,None,None,,18,001,2023_Jan_20_1550,searchDisc5,2021.2.3,59.95111322180185,
images/exp1b_trial_88_colour2_distractors31_l.png,l,1,2,31,1,,,,,0,19,19,19,,,,,,,,,,,,,,,,,,,,,,,,,,,,,,,,,,,,,,,,,,,318.0684495110181,None,2,0.5734036189969629,318.0684495110181,None,,,,,,,,,,,,,,,,None,None,None,,None,None,318.687186131021,None,1,1,1.6182480480056256,318.687186131021,None,320.3020447112096,None,None,None,None,,18,001,2023_Jan_20_1550,searchDisc5,2021.2.3,59.95111322180185,
images/exp1b_trial_103_colour2_distractors9_r.png,r,3,2,9,1,,,,,0,20,20,20,,,,,,,,,,,,,,,,,,,,,,,,,,,,,,,,,,,,,,,,,,,320.3185685829958,None,2,0.40453343198169023,320.3185685829958,None,,,,,,,,,,,,,,,,None,None,None,,None,None,320.77075965102995,None,3,1,0.6236365889781155,320.77075965102995,None,321.3851685231959,None,None,None,None,,18,001,2023_Jan_20_1550,searchDisc5,2021.2.3,59.95111322180185,
images/exp1b_trial_10_colour3_distractors1_r.png,r,3,3,1,1,,,,,0,21,21,21,,,,,,,,,,,,,,,,,,,,,,,,,,,,,,,,,,,,,,,,,,,321.40324930503266,None,2,0.4876063829869963,321.40324930503266,None,,,,,,,,,,,,,,,,None,None,None,,None,None,321.9372412340017,None,3,1,0.5210182069567963,321.9372412340017,None,322.45232536022667,None,None,None,None,,18,001,2023_Jan_20_1550,searchDisc5,2021.2.3,59.95111322180185,
images/exp1b_trial_279_colour2_distractors19_l.png,l,1,2,19,1,,,,,0,22,22,22,,,,,,,,,,,,,,,,,,,,,,,,,,,,,,,,,,,,,,,,,,,322.47020447801333,None,2,0.5045615439885296,322.47020447801333,None,,,,,,,,,,,,,,,,None,None,None,,None,None,323.02043488499476,None,1,1,0.771156121045351,323.02043488499476,None,323.7855631872255,None,None,None,None,,18,001,2023_Jan_20_1550,searchDisc5,2021.2.3,59.95111322180185,
images/exp1b_trial_172_colour3_distractors9_r.png,r,3,3,9,1,,,,,0,23,23,23,,,,,,,,,,,,,,,,,,,,,,,,,,,,,,,,,,,,,,,,,,,323.8038328210241,None,2,0.42343218601308763,323.8038328210241,None,,,,,,,,,,,,,,,,None,None,None,,None,None,324.2683186639915,None,3,1,0.852215819992125,324.2683186639915,None,325.11849640521103,None,None,None,None,,18,001,2023_Jan_20_1550,searchDisc5,2021.2.3,59.95111322180185,
images/exp1b_trial_312_colour2_distractors31_l.png,l,1,2,31,1,,,,,0,24,24,24,,,,,,,,,,,,,,,,,,,,,,,,,,,,,,,,,,,,,,,,,,,325.13547952799127,None,2,0.5755502919782884,325.13547952799127,None,,,,,,,,,,,,,,,,None,None,None,,None,None,325.7557302369969,None,1,1,1.213739886006806,325.7557302369969,None,326.9694763812178,None,None,None,None,,18,001,2023_Jan_20_1550,searchDisc5,2021.2.3,59.95111322180185,
images/exp1b_trial_220_colour3_distractors19_l.png,l,1,3,19,1,,,,,0,25,25,25,,,,,,,,,,,,,,,,,,,,,,,,,,,,,,,,,,,,,,,,,,,326.9846901019919,None,2,0.4557878610212356,326.9846901019919,None,,,,,,,,,,,,,,,,None,None,None,,None,None,327.4875532280421,None,1,1,0.6512113960343413,327.4875532280421,None,328.13569687221315,None,None,None,None,,18,001,2023_Jan_20_1550,searchDisc5,2021.2.3,59.95111322180185,
images/exp1b_trial_144_colour1_distractors4_l.png,l,1,1,4,1,,,,,0,26,26,26,,,,,,,,,,,,,,,,,,,,,,,,,,,,,,,,,,,,,,,,,,,328.1518644260359,None,2,0.5045790399890393,328.1518644260359,None,,,,,,,,,,,,,,,,None,None,None,,None,None,328.70427951804595,None,1,1,0.988457351049874,328.70427951804595,None,329.6856535922445,None,None,None,None,,18,001,2023_Jan_20_1550,searchDisc5,2021.2.3,59.95111322180185,
images/exp1b_trial_81_colour1_distractors9_l.png,l,1,1,9,1,,,,,0,27,27,27,,,,,,,,,,,,,,,,,,,,,,,,,,,,,,,,,,,,,,,,,,,329.7019868690404,None,2,0.4574080880265683,329.7019868690404,None,,,,,,,,,,,,,,,,None,None,None,,None,None,330.20431662601186,None,1,1,0.56846935802605,330.20431662601186,None,330.76912028821533,None,None,None,None,,18,001,2023_Jan_20_1550,searchDisc5,2021.2.3,59.95111322180185,
images/exp1b_trial_196_colour1_distractors31_r.png,r,3,1,31,1,,,,,0,28,28,28,,,,,,,,,,,,,,,,,,,,,,,,,,,,,,,,,,,,,,,,,,,330.78551685099956,None,2,0.38792209699749947,330.78551685099956,None,,,,,,,,,,,,,,,,None,None,None,,None,None,331.2215424940223,None,3,1,0.9353480790159665,331.2215424940223,None,332.1526286042237,None,None,None,None,,18,001,2023_Jan_20_1550,searchDisc5,2021.2.3,59.95111322180185,
images/exp1b_trial_57_colour3_distractors1_l.png,l,1,3,1,1,,,,,0,29,29,29,,,,,,,,,,,,,,,,,,,,,,,,,,,,,,,,,,,,,,,,,,,332.17096819600556,None,2,0.4705248340032995,332.17096819600556,None,,,,,,,,,,,,,,,,None,None,None,,None,None,332.6858999770484,None,1,1,0.6553800420369953,332.6858999770484,None,333.33565573623054,None,None,None,None,,18,001,2023_Jan_20_1550,searchDisc5,2021.2.3,59.95111322180185,
images/exp1b_trial_232_colour2_distractors19_r.png,r,3,2,19,1,,,,,0,30,30,30,,,,,,,,,,,,,,,,,,,,,,,,,,,,,,,,,,,,,,,,,,,333.3541437720414,None,2,0.3898446109960787,333.3541437720414,None,,,,,,,,,,,,,,,,None,None,None,,None,None,333.7876639740425,None,3,1,0.9520881680073217,333.7876639740425,None,334.7355534312257,None,None,None,None,,18,001,2023_Jan_20_1550,searchDisc5,2021.2.3,59.95111322180185,
images/exp1b_trial_246_colour2_distractors9_l.png,l,1,2,9,1,,,,,0,31,31,31,,,,,,,,,,,,,,,,,,,,,,,,,,,,,,,,,,,,,,,,,,,334.75212930102134,None,2,0.8392399249714799,334.75212930102134,None,,,,,,,,,,,,,,,,None,None,None,,None,None,335.6380340640317,None,1,1,0.9197876719990745,335.6380340640317,None,336.55270247622974,None,None,None,None,,18,001,2023_Jan_20_1550,searchDisc5,2021.2.3,59.95111322180185,
images/exp1b_trial_270_colour3_distractors31_r.png,r,3,3,31,1,,,,,0,32,32,32,,,,,,,,,,,,,,,,,,,,,,,,,,,,,,,,,,,,,,,,,,,336.56922026199754,None,2,0.42295783798908815,336.56922026199754,None,,,,,,,,,,,,,,,,None,None,None,,None,None,337.03783262503566,None,3,1,0.9839257170096971,337.03783262503566,None,338.0194519802055,None,None,None,None,,18,001,2023_Jan_20_1550,searchDisc5,2021.2.3,59.95111322180185,
images/exp1b_trial_310_colour2_distractors9_l.png,l,1,2,9,1,,,,,0,33,33,33,,,,,,,,,,,,,,,,,,,,,,,,,,,,,,,,,,,,,,,,,,,338.03550529904896,None,2,0.42303355201147497,338.03550529904896,None,,,,,,,,,,,,,,,,None,None,None,,None,None,338.50479772500694,None,1,1,0.753134970960673,338.50479772500694,None,339.25278040023403,None,None,None,None,,18,001,2023_Jan_20_1550,searchDisc5,2021.2.3,59.95111322180185,
images/exp1b_trial_255_colour0_distractors0_l.png,l,1,0,0,1,,,,,0,34,34,34,,,,,,,,,,,,,,,,,,,,,,,,,,,,,,,,,,,,,,,,,,,339.26885436603334,None,2,0.441932238987647,339.26885436603334,None,,,,,,,,,,,,,,,,None,None,None,,None,None,339.7527397220256,None,1,1,0.7185786350164562,339.7527397220256,None,340.46935891623724,None,None,None,None,,18,001,2023_Jan_20_1550,searchDisc5,2021.2.3,59.95111322180185,
images/exp1b_trial_86_colour2_distractors9_l.png,l,1,2,9,1,,,,,0,35,35,35,,,,,,,,,,,,,,,,,,,,,,,,,,,,,,,,,,,,,,,,,,,340.48575074604014,None,2,0.4046505430014804,340.48575074604014,None,,,,,,,,,,,,,,,,None,None,None,,None,None,340.93811321101384,None,1,1,0.9047802399727516,340.93811321101384,None,341.8360267132113,None,None,None,None,,18,001,2023_Jan_20_1550,searchDisc5,2021.2.3,59.95111322180185,
images/exp1b_trial_308_colour2_distractors1_l.png,l,1,2,1,1,,,,,0,36,36,36,,,,,,,,,,,,,,,,,,,,,,,,,,,,,,,,,,,,,,,,,,,341.8523809640319,None,2,0.3535980200394988,341.8523809640319,None,,,,,,,,,,,,,,,,None,None,None,,None,None,342.2528110410203,None,1,1,0.7563423659885302,342.2528110410203,None,343.00311056421486,None,None,None,None,,18,001,2023_Jan_20_1550,searchDisc5,2021.2.3,59.95111322180185,
images/exp1b_trial_266_colour3_distractors1_r.png,r,3,3,1,1,,,,,0,37,37,37,,,,,,,,,,,,,,,,,,,,,,,,,,,,,,,,,,,,,,,,,,,343.0190472800168,None,2,0.33750664099352434,343.0190472800168,None,,,,,,,,,,,,,,,,None,None,None,,None,None,343.4027438799967,None,3,1,1.239174615999218,343.4027438799967,None,344.63638035221373,None,None,None,None,,18,001,2023_Jan_20_1550,searchDisc5,2021.2.3,59.95111322180185,
images/exp1b_trial_22_colour2_distractors9_l.png,l,1,2,9,1,,,,,0,38,38,38,,,,,,,,,,,,,,,,,,,,,,,,,,,,,,,,,,,,,,,,,,,344.6521895210026,None,2,0.33754818502347916,344.6521895210026,None,,,,,,,,,,,,,,,,None,None,None,,None,None,345.036033218028,None,1,1,0.6723198530380614,345.036033218028,None,345.70314450621953,None,None,None,None,,18,001,2023_Jan_20_1550,searchDisc5,2021.2.3,59.95111322180185,
images/exp1b_trial_24_colour2_distractors31_l.png,l,1,2,31,1,,,,,0,39,39,39,,,,,,,,,,,,,,,,,,,,,,,,,,,,,,,,,,,,,,,,,,,345.71902931004297,None,2,0.3376217359909788,345.71902931004297,None,,,,,,,,,,,,,,,,None,None,None,,None,None,346.10294345300645,None,1,1,1.0527087730006315,346.10294345300645,None,347.15281082819564,None,None,None,None,,18,001,2023_Jan_20_1550,searchDisc5,2021.2.3,59.95111322180185,
images/exp1b_trial_39_colour2_distractors9_r.png,r,3,2,9,1,,,,,0,40,40,40,,,,,,,,,,,,,,,,,,,,,,,,,,,,,,,,,,,,,,,,,,,347.1714585199952,None,2,1.338027072022669,347.1714585199952,None,,,,,,,,,,,,,,,,None,None,None,,None,None,348.55236888100626,None,3,1,0.7379456009948626,348.55236888100626,None,349.28618671123985,None,None,None,None,,18,001,2023_Jan_20_1550,searchDisc5,2021.2.3,59.95111322180185,
images/exp1b_trial_105_colour2_distractors31_r.png,r,3,2,31,1,,,,,0,41,41,41,,,,,,,,,,,,,,,,,,,,,,,,,,,,,,,,,,,,,,,,,,,349.3046681070118,None,2,0.6728588190162554,349.3046681070118,None,,,,,,,,,,,,,,,,None,None,None,,None,None,350.01935405802215,None,3,1,1.3034344600164331,350.01935405802215,None,351.31973810920607,None,None,None,None,,18,001,2023_Jan_20_1550,searchDisc5,2021.2.3,59.95111322180185,
images/exp1b_trial_269_colour3_distractors19_r.png,r,3,3,19,1,,,,,0,42,42,42,,,,,,,,,,,,,,,,,,,,,,,,,,,,,,,,,,,,,,,,,,,351.3361856859992,None,2,0.4866813190164976,351.3361856859992,None,,,,,,,,,,,,,,,,None,None,None,,None,None,351.8689071109984,None,3,1,0.803905223030597,351.8689071109984,None,352.6696844492282,None,None,None,None,,18,001,2023_Jan_20_1550,searchDisc5,2021.2.3,59.95111322180185,
images/exp1b_trial_282_colour3_distractors4_l.png,l,1,3,4,1,,,,,0,43,43,43,,,,,,,,,,,,,,,,,,,,,,,,,,,,,,,,,,,,,,,,,,,352.6860481770127,None,2,0.4717725809896365,352.6860481770127,None,,,,,,,,,,,,,,,,None,None,None,,None,None,353.2022836940014,None,1,1,0.7523232609964907,353.2022836940014,None,353.95253016824716,None,None,None,None,,18,001,2023_Jan_20_1550,searchDisc5,2021.2.3,59.95111322180185,
images/exp1b_trial_121_colour3_distractors1_l.png,l,1,3,1,1,,,,,0,44,44,44,,,,,,,,,,,,,,,,,,,,,,,,,,,,,,,,,,,,,,,,,,,353.96962621604325,None,2,0.521431548986584,353.96962621604325,None,,,,,,,,,,,,,,,,None,None,None,,None,None,354.5381556790089,None,1,1,0.7555432969820686,354.5381556790089,None,355.2867524742207,None,None,None,None,,18,001,2023_Jan_20_1550,searchDisc5,2021.2.3,59.95111322180185,
images/exp1b_trial_195_colour1_distractors19_r.png,r,3,1,19,1,,,,,0,45,45,45,,,,,,,,,,,,,,,,,,,,,,,,,,,,,,,,,,,,,,,,,,,355.302814294002,None,2,0.30416522902669385,355.302814294002,None,,,,,,,,,,,,,,,,None,None,None,,None,None,355.65294665301917,None,3,1,1.1380177300306968,355.65294665301917,None,356.78647871422,None,None,None,None,,18,001,2023_Jan_20_1550,searchDisc5,2021.2.3,59.95111322180185,
images/exp1b_trial_83_colour1_distractors31_l.png,l,1,1,31,1,,,,,0,46,46,46,,,,,,,,,,,,,,,,,,,,,,,,,,,,,,,,,,,,,,,,,,,356.80487274203915,None,2,0.3523921159794554,356.80487274203915,None,,,,,,,,,,,,,,,,None,None,None,,None,None,357.2053689809982,None,1,1,0.7185501140193082,357.2053689809982,None,357.91985323922125,None,None,None,None,,18,001,2023_Jan_20_1550,searchDisc5,2021.2.3,59.95111322180185,
images/exp1b_trial_185_colour3_distractors1_l.png,l,1,3,1,1,,,,,0,47,47,47,,,,,,,,,,,,,,,,,,,,,,,,,,,,,,,,,,,,,,,,,,,357.93610868102405,None,2,0.4876049860031344,357.93610868102405,None,,,,,,,,,,,,,,,,None,None,None,,None,None,358.46975360502256,None,1,1,0.7892179539776407,358.46975360502256,None,359.2532439932285,None,None,None,None,,18,001,2023_Jan_20_1550,searchDisc5,2021.2.3,59.95111322180185,
images/exp1b_trial_9_colour2_distractors31_r.png,r,3,2,31,1,,,,,0,48,48,48,,,,,,,,,,,,,,,,,,,,,,,,,,,,,,,,,,,,,,,,,,,359.26963469100883,None,2,0.3878030499909073,359.26963469100883,None,,,,,,,,,,,,,,,,None,None,None,,None,None,359.703165175044,None,3,1,0.8535520079894923,359.703165175044,None,360.5531709022063,None,None,None,None,,18,001,2023_Jan_20_1550,searchDisc5,2021.2.3,59.95111322180185,
images/exp1b_trial_225_colour1_distractors4_r.png,r,3,1,4,1,,,,,0,49,49,49,,,,,,,,,,,,,,,,,,,,,,,,,,,,,,,,,,,,,,,,,,,360.5688211900415,None,2,0.4044025019975379,360.5688211900415,None,,,,,,,,,,,,,,,,None,None,None,,None,None,361.0198282840429,None,3,1,0.7224817150272429,361.0198282840429,None,361.7366862512019,None,None,None,None,,18,001,2023_Jan_20_1550,searchDisc5,2021.2.3,59.95111322180185,
images/exp1b_trial_262_colour2_distractors4_r.png,r,3,2,4,1,,,,,0,50,50,50,,,,,,,,,,,,,,,,,,,,,,,,,,,,,,,,,,,,,,,,,,,361.7526823270018,None,2,0.32100719498703256,361.7526823270018,None,,,,,,,,,,,,,,,,None,None,None,,None,None,362.11981032800395,None,3,1,0.6244172900333069,362.11981032800395,None,362.736839549226,None,None,None,None,,18,001,2023_Jan_20_1550,searchDisc5,2021.2.3,59.95111322180185,
images/exp1b_trial_96_colour1_distractors1_r.png,r,3,1,1,1,,,,,0,51,51,51,,,,,,,,,,,,,,,,,,,,,,,,,,,,,,,,,,,,,,,,,,,362.7528112390428,None,2,0.3374986959970556,362.7528112390428,None,,,,,,,,,,,,,,,,None,None,None,,None,None,363.1361286670435,None,3,1,0.8374449670081958,363.1361286670435,None,363.9699084081978,None,None,None,None,,18,001,2023_Jan_20_1550,searchDisc5,2021.2.3,59.95111322180185,
images/exp1b_trial_295_colour2_distractors9_r.png,r,3,2,9,1,,,,,0,52,52,52,,,,,,,,,,,,,,,,,,,,,,,,,,,,,,,,,,,,,,,,,,,363.9863383890479,None,2,0.5211998440208845,363.9863383890479,None,,,,,,,,,,,,,,,,None,None,None,,None,None,364.55457643204136,None,3,1,0.7383509229985066,364.55457643204136,None,365.28676427425233,None,None,None,None,,18,001,2023_Jan_20_1550,searchDisc5,2021.2.3,59.95111322180185,
images/exp1b_trial_210_colour1_distractors19_l.png,l,1,1,19,1,,,,,0,53,53,53,,,,,,,,,,,,,,,,,,,,,,,,,,,,,,,,,,,,,,,,,,,365.3022648289916,None,2,0.3711539029609412,365.3022648289916,None,,,,,,,,,,,,,,,,None,None,None,,None,None,365.7216924210079,None,1,1,0.7710654889815487,365.7216924210079,None,366.4867256622121,None,None,None,None,,18,001,2023_Jan_20_1550,searchDisc5,2021.2.3,59.95111322180185,
images/exp1b_trial_204_colour3_distractors9_r.png,r,3,3,9,1,,,,,0,54,54,54,,,,,,,,,,,,,,,,,,,,,,,,,,,,,,,,,,,,,,,,,,,366.5053089710418,None,2,0.28655697603244334,366.5053089710418,None,,,,,,,,,,,,,,,,None,None,None,,None,None,366.8366051050252,None,3,1,0.7872000929783098,366.8366051050252,None,367.61976246322155,None,None,None,None,,18,001,2023_Jan_20_1550,searchDisc5,2021.2.3,59.95111322180185,
images/exp1b_trial_251_colour3_distractors9_l.png,l,1,3,9,1,,,,,0,55,55,55,,,,,,,,,,,,,,,,,,,,,,,,,,,,,,,,,,,,,,,,,,,367.6380887470441,None,2,0.33803408598760143,367.6380887470441,None,,,,,,,,,,,,,,,,None,None,None,,None,None,368.02210005000234,None,1,1,0.853666634997353,368.02210005000234,None,368.8695045312226,None,None,None,None,,18,001,2023_Jan_20_1550,searchDisc5,2021.2.3,59.95111322180185,
images/exp1b_trial_163_colour1_distractors19_r.png,r,3,1,19,1,,,,,0,56,56,56,,,,,,,,,,,,,,,,,,,,,,,,,,,,,,,,,,,,,,,,,,,368.8883230109932,None,2,0.28751295403344557,368.8883230109932,None,,,,,,,,,,,,,,,,None,None,None,,None,None,369.21941479702946,None,3,1,0.7030805649701506,369.21941479702946,None,369.9194394232065,None,None,None,None,,18,001,2023_Jan_20_1550,searchDisc5,2021.2.3,59.95111322180185,
images/exp1b_trial_109_colour3_distractors19_r.png,r,3,3,19,1,,,,,0,57,57,57,,,,,,,,,,,,,,,,,,,,,,,,,,,,,,,,,,,,,,,,,,,369.93636544502806,None,2,0.28869325696723536,369.93636544502806,None,,,,,,,,,,,,,,,,None,None,None,,None,None,370.26922489202116,None,3,1,0.8534805729868822,370.26922489202116,None,371.1200291352172,None,None,None,None,,18,001,2023_Jan_20_1550,searchDisc5,2021.2.3,59.95111322180185,
images/exp1b_trial_169_colour2_distractors31_r.png,r,3,2,31,1,,,,,0,58,58,58,,,,,,,,,,,,,,,,,,,,,,,,,,,,,,,,,,,,,,,,,,,371.13849817600567,None,2,0.32146008196286857,371.13849817600567,None,,,,,,,,,,,,,,,,None,None,None,,None,None,371.5033194980351,None,3,1,1.2533907379838638,371.5033194980351,None,372.7535781092185,None,None,None,None,,18,001,2023_Jan_20_1550,searchDisc5,2021.2.3,59.95111322180185,
images/exp1b_trial_110_colour3_distractors31_r.png,r,3,3,31,1,,,,,0,59,59,59,,,,,,,,,,,,,,,,,,,,,,,,,,,,,,,,,,,,,,,,,,,372.769503057003,None,2,0.25434925901936367,372.769503057003,None,,,,,,,,,,,,,,,,None,None,None,,None,None,373.069927974022,None,3,1,2.302431632997468,373.069927974022,None,375.3703028552292,None,None,None,None,,18,001,2023_Jan_20_1550,searchDisc5,2021.2.3,59.95111322180185,
images/exp1b_trial_32_colour1_distractors1_r.png,r,3,1,1,1,,,,,0,60,60,60,,,,,,,,,,,,,,,,,,,,,,,,,,,,,,,,,,,,,,,,,,,375.3864891449921,None,2,0.30435978301102296,375.3864891449921,None,,,,,,,,,,,,,,,,None,None,None,,None,None,375.73693928599823,None,3,1,0.8390499409870245,375.73693928599823,None,376.5702698732086,None,None,None,None,,18,001,2023_Jan_20_1550,searchDisc5,2021.2.3,59.95111322180185,
images/exp1b_trial_66_colour1_distractors9_r.png,r,3,1,9,1,,,,,0,61,61,61,,,,,,,,,,,,,,,,,,,,,,,,,,,,,,,,,,,,,,,,,,,376.5867453740211,None,2,0.27125670900568366,376.5867453740211,None,,,,,,,,,,,,,,,,None,None,None,,None,None,376.903523149027,None,3,1,1.1208777470164932,376.903523149027,None,378.0203906332201,None,None,None,None,,18,001,2023_Jan_20_1550,searchDisc5,2021.2.3,59.95111322180185,
images/exp1b_trial_122_colour3_distractors4_l.png,l,1,3,4,1,,,,,0,62,62,62,,,,,,,,,,,,,,,,,,,,,,,,,,,,,,,,,,,,,,,,,,,378.0367697390029,None,2,0.2726946499897167,378.0367697390029,None,,,,,,,,,,,,,,,,None,None,None,,None,None,378.3536407389911,None,1,1,0.8867514560115524,378.3536407389911,None,379.2370065132447,None,None,None,None,,18,001,2023_Jan_20_1550,searchDisc5,2021.2.3,59.95111322180185,
images/exp1b_trial_286_colour0_distractors0_r.png,r,3,0,0,1,,,,,0,63,63,63,,,,,,,,,,,,,,,,,,,,,,,,,,,,,,,,,,,,,,,,,,,379.2554194770055,None,2,0.3211202009697445,379.2554194770055,None,,,,,,,,,,,,,,,,None,None,None,,None,None,379.62063695903635,None,3,1,0.49056227901019156,379.62063695903635,None,380.10376884522265,None,None,None,None,,18,001,2023_Jan_20_1550,searchDisc5,2021.2.3,59.95111322180185,
images/exp1b_trial_156_colour3_distractors19_l.png,l,1,3,19,1,,,,,0,64,64,64,,,,,,,,,,,,,,,,,,,,,,,,,,,,,,,,,,,,,,,,,,,380.1202475129976,None,2,0.4199430560111068,380.1202475129976,None,,,,,,,,,,,,,,,,None,None,None,,None,None,380.58910098904744,None,1,1,1.0535188560024835,380.58910098904744,None,381.63707018424174,None,None,None,None,,18,001,2023_Jan_20_1550,searchDisc5,2021.2.3,59.95111322180185,
images/exp1b_trial_47_colour1_distractors1_l.png,l,1,1,1,1,,,,,0,65,65,65,,,,,,,,,,,,,,,,,,,,,,,,,,,,,,,,,,,,,,,,,,,381.65335727104684,None,2,0.2710348640102893,381.65335727104684,None,,,,,,,,,,,,,,,,None,None,None,,None,None,381.970039477048,None,1,1,0.8893509960034862,381.970039477048,None,382.8538085302163,None,None,None,None,,18,001,2023_Jan_20_1550,searchDisc5,2021.2.3,59.95111322180185,
images/exp1b_trial_309_colour2_distractors4_l.png,l,1,2,4,1,,,,,0,66,66,66,,,,,,,,,,,,,,,,,,,,,,,,,,,,,,,,,,,,,,,,,,,382.86988888302585,None,2,0.18792027595918626,382.86988888302585,None,,,,,,,,,,,,,,,,None,None,None,,None,None,383.10541395202745,None,1,1,0.7382439820212312,383.10541395202745,None,383.83657045122817,None,None,None,None,,18,001,2023_Jan_20_1550,searchDisc5,2021.2.3,59.95111322180185,
images/exp1b_trial_143_colour1_distractors1_l.png,l,1,1,1,1,,,,,0,67,67,67,,,,,,,,,,,,,,,,,,,,,,,,,,,,,,,,,,,,,,,,,,,383.85370048100594,None,2,0.2885130020440556,383.85370048100594,None,,,,,,,,,,,,,,,,None,None,None,,None,None,384.1870669320342,None,1,1,0.7059639979852363,384.1870669320342,None,384.8873184882279,None,None,None,None,,18,001,2023_Jan_20_1550,searchDisc5,2021.2.3,59.95111322180185,
images/exp1b_trial_155_colour3_distractors9_l.png,l,1,3,9,1,,,,,0,68,68,68,,,,,,,,,,,,,,,,,,,,,,,,,,,,,,,,,,,,,,,,,,,384.9031999690342,None,2,0.2398596090497449,384.9031999690342,None,,,,,,,,,,,,,,,,None,None,None,,None,None,385.18712687003426,None,1,1,0.5856209009652957,385.18712687003426,None,385.7707933642261,None,None,None,None,,18,001,2023_Jan_20_1550,searchDisc5,2021.2.3,59.95111322180185,
images/exp1b_trial_70_colour2_distractors4_r.png,r,3,2,4,1,,,,,0,69,69,69,,,,,,,,,,,,,,,,,,,,,,,,,,,,,,,,,,,,,,,,,,,385.7865658670198,None,2,0.2409468590049073,385.7865658670198,None,,,,,,,,,,,,,,,,None,None,None,,None,None,386.07044464099454,None,3,1,0.6691114900168031,386.07044464099454,None,386.7372878752241,None,None,None,None,,18,001,2023_Jan_20_1550,searchDisc5,2021.2.3,59.95111322180185,
images/exp1b_trial_233_colour2_distractors31_r.png,r,3,2,31,1,,,,,0,70,70,70,,,,,,,,,,,,,,,,,,,,,,,,,,,,,,,,,,,,,,,,,,,386.7537162289955,None,2,0.32098191895056516,386.7537162289955,None,,,,,,,,,,,,,,,,None,None,None,,None,None,387.1202282049926,None,3,1,0.9367557219811715,387.1202282049926,None,388.05412241725134,None,None,None,None,,18,001,2023_Jan_20_1550,searchDisc5,2021.2.3,59.95111322180185,
images/exp1b_trial_281_colour3_distractors1_l.png,l,1,3,1,1,,,,,0,71,71,71,,,,,,,,,,,,,,,,,,,,,,,,,,,,,,,,,,,,,,,,,,,388.0699174500187,None,2,0.2879394509945996,388.0699174500187,None,,,,,,,,,,,,,,,,None,None,None,,None,None,388.40387903002556,None,1,1,0.555476030043792,388.40387903002556,None,388.9539646622317,None,None,None,None,,18,001,2023_Jan_20_1550,searchDisc5,2021.2.3,59.95111322180185,
images/exp1b_trial_97_colour1_distractors4_r.png,r,3,1,4,1,,,,,0,72,72,72,,,,,,,,,,,,,,,,,,,,,,,,,,,,,,,,,,,,,,,,,,,388.97039674804546,None,2,0.30664602195611224,388.97039674804546,None,,,,,,,,,,,,,,,,None,None,None,,None,None,389.32041564403335,None,3,1,0.8706651770044118,389.32041564403335,None,390.1874023652228,None,None,None,None,,18,001,2023_Jan_20_1550,searchDisc5,2021.2.3,59.95111322180185,
images/exp1b_trial_208_colour1_distractors4_l.png,l,1,1,4,1,,,,,0,73,73,73,,,,,,,,,,,,,,,,,,,,,,,,,,,,,,,,,,,,,,,,,,,390.2050065540243,None,2,0.28949538996675983,390.2050065540243,None,,,,,,,,,,,,,,,,None,None,None,,None,None,390.537334431021,None,1,1,0.6884688819991425,390.537334431021,None,391.22083313520415,None,None,None,None,,18,001,2023_Jan_20_1550,searchDisc5,2021.2.3,59.95111322180185,
images/exp1b_trial_112_colour1_distractors4_l.png,l,1,1,4,1,,,,,0,74,74,74,,,,,,,,,,,,,,,,,,,,,,,,,,,,,,,,,,,,,,,,,,,391.2389804359991,None,2,0.3359081450034864,391.2389804359991,None,,,,,,,,,,,,,,,,None,None,None,,None,None,391.6223651090404,None,1,1,0.8384546879678965,391.6223651090404,None,392.4539905462472,None,None,None,None,,18,001,2023_Jan_20_1550,searchDisc5,2021.2.3,59.95111322180185,
images/exp1b_trial_268_colour3_distractors9_r.png,r,3,3,9,1,,,,,0,75,75,75,,,,,,,,,,,,,,,,,,,,,,,,,,,,,,,,,,,,,,,,,,,392.47012243501376,None,2,0.2879318260238506,392.47012243501376,None,,,,,,,,,,,,,,,,None,None,None,,None,None,392.8038559030392,None,3,1,0.7226139439735562,392.8038559030392,None,393.52086254123714,None,None,None,None,,18,001,2023_Jan_20_1550,searchDisc5,2021.2.3,59.95111322180185,
images/exp1b_trial_236_colour3_distractors9_r.png,r,3,3,9,1,,,,,0,76,76,76,,,,,,,,,,,,,,,,,,,,,,,,,,,,,,,,,,,,,,,,,,,393.53650256601395,None,2,0.3377824539784342,393.53650256601395,None,,,,,,,,,,,,,,,,None,None,None,,None,None,393.9200829080073,None,3,1,1.2207788449595682,393.9200829080073,None,395.13782814624136,None,None,None,None,,18,001,2023_Jan_20_1550,searchDisc5,2021.2.3,59.95111322180185,
images/exp1b_trial_187_colour3_distractors9_l.png,l,1,3,9,1,,,,,0,77,77,77,,,,,,,,,,,,,,,,,,,,,,,,,,,,,,,,,,,,,,,,,,,395.15584720199695,None,2,0.2876936399843544,395.15584720199695,None,,,,,,,,,,,,,,,,None,None,None,,None,None,395.48751395900035,None,1,1,0.8885321179986931,395.48751395900035,None,396.3709644322109,None,None,None,None,,18,001,2023_Jan_20_1550,searchDisc5,2021.2.3,59.95111322180185,
images/exp1b_trial_229_colour2_distractors1_r.png,r,3,2,1,1,,,,,0,78,78,78,,,,,,,,,,,,,,,,,,,,,,,,,,,,,,,,,,,,,,,,,,,396.38697321299696,None,2,0.3054167909431271,396.38697321299696,None,,,,,,,,,,,,,,,,None,None,None,,None,None,396.7373486290453,None,3,1,0.8204748530406505,396.7373486290453,None,397.5538799032394,None,None,None,None,,18,001,2023_Jan_20_1550,searchDisc5,2021.2.3,59.95111322180185,
images/exp1b_trial_89_colour3_distractors1_l.png,l,1,3,1,1,,,,,0,79,79,79,,,,,,,,,,,,,,,,,,,,,,,,,,,,,,,,,,,,,,,,,,,397.57071292499313,None,2,0.22559098800411448,397.57071292499313,None,,,,,,,,,,,,,,,,None,None,None,,None,None,397.83703892701305,None,1,1,0.7027022950351238,397.83703892701305,None,398.53763320420984,None,None,None,None,,18,001,2023_Jan_20_1550,searchDisc5,2021.2.3,59.95111322180185,
images/exp1b_trial_297_colour2_distractors31_r.png,r,3,2,31,1,,,,,0,80,80,80,,,,,,,,,,,,,,,,,,,,,,,,,,,,,,,,,,,,,,,,,,,398.55394276301377,None,2,0.27327556698583066,398.55394276301377,None,,,,,,,,,,,,,,,,None,None,None,,None,None,398.87096177000785,None,3,1,0.951609332987573,398.87096177000785,None,399.82108883223844,None,None,None,None,,18,001,2023_Jan_20_1550,searchDisc5,2021.2.3,59.95111322180185,
images/exp1b_trial_63_colour0_distractors0_l.png,l,1,0,0,1,,,,,0,81,81,81,,,,,,,,,,,,,,,,,,,,,,,,,,,,,,,,,,,,,,,,,,,399.83682167803636,None,2,0.23981739295413718,399.83682167803636,None,,,,,,,,,,,,,,,,None,None,None,,None,None,400.1222855990054,None,1,1,0.5870072789839469,400.1222855990054,None,400.70418976924265,None,None,None,None,,18,001,2023_Jan_20_1550,searchDisc5,2021.2.3,59.95111322180185,
images/exp1b_trial_129_colour1_distractors4_r.png,r,3,1,4,1,,,,,0,82,82,82,,,,,,,,,,,,,,,,,,,,,,,,,,,,,,,,,,,,,,,,,,,400.72078429104295,None,2,0.28789308201521635,400.72078429104295,None,,,,,,,,,,,,,,,,None,None,None,,None,None,401.05360105703585,None,3,1,0.8722146229702048,401.05360105703585,None,401.92102234422345,None,None,None,None,,18,001,2023_Jan_20_1550,searchDisc5,2021.2.3,59.95111322180185,
images/exp1b_trial_254_colour0_distractors0_r.png,r,3,0,0,1,,,,,0,83,83,83,,,,,,,,,,,,,,,,,,,,,,,,,,,,,,,,,,,,,,,,,,,401.9370658470434,None,2,0.237838939006906,401.9370658470434,None,,,,,,,,,,,,,,,,None,None,None,,None,None,402.22109052701853,None,3,1,0.8062743759946898,402.22109052701853,None,403.0212695222173,None,None,None,None,,18,001,2023_Jan_20_1550,searchDisc5,2021.2.3,59.95111322180185,
images/exp1b_trial_92_colour3_distractors19_l.png,l,1,3,19,1,,,,,0,84,84,84,,,,,,,,,,,,,,,,,,,,,,,,,,,,,,,,,,,,,,,,,,,403.0371873319964,None,2,0.20422722399234772,403.0371873319964,None,,,,,,,,,,,,,,,,None,None,None,,None,None,403.2895591169945,None,1,1,1.0530154299922287,403.2895591169945,None,404.33780159220913,None,None,None,None,,18,001,2023_Jan_20_1550,searchDisc5,2021.2.3,59.95111322180185,
images/exp1b_trial_44_colour3_distractors9_r.png,r,3,3,9,1,,,,,0,85,85,85,,,,,,,,,,,,,,,,,,,,,,,,,,,,,,,,,,,,,,,,,,,404.3541233520373,None,2,0.22296235599787906,404.3541233520373,None,,,,,,,,,,,,,,,,None,None,None,,None,None,404.62278436199995,None,3,1,0.9691103260265663,404.62278436199995,None,405.58777645819936,None,None,None,None,,18,001,2023_Jan_20_1550,searchDisc5,2021.2.3,59.95111322180185,
images/exp1b_trial_119_colour2_distractors19_l.png,l,1,2,19,1,,,,,0,86,86,86,,,,,,,,,,,,,,,,,,,,,,,,,,,,,,,,,,,,,,,,,,,405.6040219209972,None,2,0.2233715999755077,405.6040219209972,None,,,,,,,,,,,,,,,,None,None,None,,None,None,405.87315490300534,None,1,1,0.802128201990854,405.87315490300534,None,406.67120277120847,None,None,None,None,,18,001,2023_Jan_20_1550,searchDisc5,2021.2.3,59.95111322180185,
images/exp1b_trial_127_colour0_distractors0_l.png,l,1,0,0,1,,,,,0,87,87,87,,,,,,,,,,,,,,,,,,,,,,,,,,,,,,,,,,,,,,,,,,,406.6871387230349,None,2,0.2712797150015831,406.6871387230349,None,,,,,,,,,,,,,,,,None,None,None,,None,None,407.0038895130274,None,1,1,0.6233091980102472,407.0038895130274,None,407.62158347021904,None,None,None,None,,18,001,2023_Jan_20_1550,searchDisc5,2021.2.3,59.95111322180185,
images/exp1b_trial_174_colour3_distractors31_r.png,r,3,3,31,1,,,,,0,88,88,88,,,,,,,,,,,,,,,,,,,,,,,,,,,,,,,,,,,,,,,,,,,407.637468328001,None,2,0.17081654397770762,407.637468328001,None,,,,,,,,,,,,,,,,None,None,None,,None,None,407.85641672700876,None,3,1,3.1365739969769493,407.85641672700876,None,410.98790193921303,None,None,None,None,,18,001,2023_Jan_20_1550,searchDisc5,2021.2.3,59.95111322180185,
images/exp1b_trial_303_colour1_distractors1_l.png,l,1,1,1,1,,,,,0,89,89,89,,,,,,,,,,,,,,,,,,,,,,,,,,,,,,,,,,,,,,,,,,,411.0040173950256,None,2,0.23905464902054518,411.0040173950256,None,,,,,,,,,,,,,,,,None,None,None,,None,None,411.289944972028,None,1,1,0.6367100719944574,411.289944972028,None,411.92080071721574,None,None,None,None,,18,001,2023_Jan_20_1550,searchDisc5,2021.2.3,59.95111322180185,
images/exp1b_trial_84_colour2_distractors1_l.png,l,1,2,1,1,,,,,0,90,90,90,,,,,,,,,,,,,,,,,,,,,,,,,,,,,,,,,,,,,,,,,,,411.93775681301486,None,2,0.2876232580165379,411.93775681301486,None,,,,,,,,,,,,,,,,None,None,None,,None,None,412.2712412039982,None,1,1,0.6738877719617449,412.2712412039982,None,412.93798621623426,None,None,None,None,,18,001,2023_Jan_20_1550,searchDisc5,2021.2.3,59.95111322180185,
images/exp1b_trial_291_colour1_distractors19_r.png,r,3,1,19,1,,,,,0,91,91,91,,,,,,,,,,,,,,,,,,,,,,,,,,,,,,,,,,,,,,,,,,,412.95482502202503,None,2,0.2725696820416488,412.95482502202503,None,,,,,,,,,,,,,,,,None,None,None,,None,None,413.271233890031,None,3,1,0.8340411900426261,413.271233890031,None,414.1048333172395,None,None,None,None,,18,001,2023_Jan_20_1550,searchDisc5,2021.2.3,59.95111322180185,
images/exp1b_trial_17_colour1_distractors9_l.png,l,1,1,9,1,,,,,0,92,92,92,,,,,,,,,,,,,,,,,,,,,,,,,,,,,,,,,,,,,,,,,,,414.1210790260229,None,2,0.28779478202341124,414.1210790260229,None,,,,,,,,,,,,,,,,None,None,None,,None,None,414.4546131010284,None,1,1,0.6876862139906734,414.4546131010284,None,415.13794966119457,None,None,None,None,,18,001,2023_Jan_20_1550,searchDisc5,2021.2.3,59.95111322180185,
images/exp1b_trial_305_colour1_distractors9_l.png,l,1,1,9,1,,,,,0,93,93,93,,,,,,,,,,,,,,,,,,,,,,,,,,,,,,,,,,,,,,,,,,,415.1544125600485,None,2,0.2879297129693441,415.1544125600485,None,,,,,,,,,,,,,,,,None,None,None,,None,None,415.48797775403364,None,1,1,0.804716850980185,415.48797775403364,None,416.28810128623735,None,None,None,None,,18,001,2023_Jan_20_1550,searchDisc5,2021.2.3,59.95111322180185,
images/exp1b_trial_212_colour2_distractors1_l.png,l,1,2,1,1,,,,,0,94,94,94,,,,,,,,,,,,,,,,,,,,,,,,,,,,,,,,,,,,,,,,,,,416.3038187249913,None,2,0.3212248079944402,416.3038187249913,None,,,,,,,,,,,,,,,,None,None,None,,None,None,416.6711941609974,None,1,1,0.6063297450309619,416.6711941609974,None,417.2716035442019,None,None,None,None,,18,001,2023_Jan_20_1550,searchDisc5,2021.2.3,59.95111322180185,
images/exp1b_trial_205_colour3_distractors19_r.png,r,3,3,19,1,,,,,0,95,95,95,,,,,,,,,,,,,,,,,,,,,,,,,,,,,,,,,,,,,,,,,,,417.2875373029965,None,2,0.27113525598542765,417.2875373029965,None,,,,,,,,,,,,,,,,None,None,None,,None,None,417.60462673503207,None,3,1,0.7528913560090587,417.60462673503207,None,418.35497679219696,None,None,None,None,,18,001,2023_Jan_20_1550,searchDisc5,2021.2.3,59.95111322180185,
images/exp1b_trial_75_colour3_distractors4_r.png,r,3,3,4,1,,,,,0,96,96,96,,,,,,,,,,,,,,,,,,,,,,,,,,,,,,,,,,,,,,,,,,,418.37332564004464,None,2,0.33666892297333106,418.37332564004464,None,,,,,,,,,,,,,,,,None,None,None,,None,None,418.7561939100269,None,3,1,1.139885189011693,418.7561939100269,None,419.88801957121467,None,None,None,None,,18,001,2023_Jan_20_1550,searchDisc5,2021.2.3,59.95111322180185,
images/exp1b_trial_175_colour1_distractors1_l.png,l,1,1,1,1,,,,,0,97,97,97,,,,,,,,,,,,,,,,,,,,,,,,,,,,,,,,,,,,,,,,,,,419.90383897704305,None,2,0.30677586200181395,419.90383897704305,None,,,,,,,,,,,,,,,,None,None,None,,None,None,420.25424461002694,None,1,1,1.2533868419704959,420.25424461002694,None,421.5046368342184,None,None,None,None,,18,001,2023_Jan_20_1550,searchDisc5,2021.2.3,59.95111322180185,
images/exp1b_trial_29_colour3_distractors31_l.png,l,1,3,31,1,,,,,0,98,98,98,,,,,,,,,,,,,,,,,,,,,,,,,,,,,,,,,,,,,,,,,,,421.52115188603057,None,2,0.2708848559996113,421.52115188603057,None,,,,,,,,,,,,,,,,None,None,None,,None,None,421.8382590910187,None,1,1,1.2529697440331802,421.8382590910187,None,423.08829006723244,None,None,None,None,,18,001,2023_Jan_20_1550,searchDisc5,2021.2.3,59.95111322180185,
images/exp1b_trial_164_colour1_distractors31_r.png,r,3,1,31,1,,,,,0,99,99,99,,,,,,,,,,,,,,,,,,,,,,,,,,,,,,,,,,,,,,,,,,,423.1044882730348,None,2,0.22330820403294638,423.1044882730348,None,,,,,,,,,,,,,,,,None,None,None,,None,None,423.3736962880357,None,3,1,0.8998389299958944,423.3736962880357,None,424.2716230482503,None,None,None,None,,18,001,2023_Jan_20_1550,searchDisc5,2021.2.3,59.95111322180185,
images/exp1b_trial_168_colour2_distractors19_r.png,r,3,2,19,1,,,,,0,100,100,100,,,,,,,,,,,,,,,,,,,,,,,,,,,,,,,,,,,,,,,,,,,424.2877205190016,None,2,0.2721087129903026,424.2877205190016,None,,,,,,,,,,,,,,,,None,None,None,,None,None,424.60441175999586,None,1,0,1.0537212939816527,424.60441175999586,None,425.6550036092114,None,None,None,None,,18,001,2023_Jan_20_1550,searchDisc5,2021.2.3,59.95111322180185,
images/exp1b_trial_133_colour2_distractors1_r.png,r,3,2,1,1,,,,,0,101,101,101,,,,,,,,,,,,,,,,,,,,,,,,,,,,,,,,,,,,,,,,,,,425.67117311502807,None,2,1.0876937730354257,425.67117311502807,None,,,,,,,,,,,,,,,,None,None,None,,None,None,426.8049048980465,None,3,1,0.6556259319768287,426.8049048980465,None,427.45499666822724,None,None,None,None,,18,001,2023_Jan_20_1550,searchDisc5,2021.2.3,59.95111322180185,
images/exp1b_trial_265_colour2_distractors31_r.png,r,3,2,31,1,,,,,0,102,102,102,,,,,,,,,,,,,,,,,,,,,,,,,,,,,,,,,,,,,,,,,,,427.4714685140061,None,2,0.3712500749970786,427.4714685140061,None,,,,,,,,,,,,,,,,None,None,None,,None,None,427.88818062399514,None,3,1,1.5529047569725662,427.88818062399514,None,429.438466563198,None,None,None,None,,18,001,2023_Jan_20_1550,searchDisc5,2021.2.3,59.95111322180185,
images/exp1b_trial_93_colour3_distractors31_l.png,l,1,3,31,1,,,,,0,103,103,103,,,,,,,,,,,,,,,,,,,,,,,,,,,,,,,,,,,,,,,,,,,429.4548019710346,None,2,0.3211725239525549,429.4548019710346,None,,,,,,,,,,,,,,,,None,None,None,,None,None,429.8214625270339,None,1,1,1.1191977789858356,429.8214625270339,None,430.9385797652241,None,None,None,None,,18,001,2023_Jan_20_1550,searchDisc5,2021.2.3,59.95111322180185,
images/exp1b_trial_223_colour0_distractors0_l.png,l,1,0,0,1,,,,,0,104,104,104,,,,,,,,,,,,,,,,,,,,,,,,,,,,,,,,,,,,,,,,,,,430.95444353402127,None,2,0.30394814896862954,430.95444353402127,None,,,,,,,,,,,,,,,,None,None,None,,None,None,431.3052471500123,None,1,1,0.6061164730344899,431.3052471500123,None,431.90523624619817,None,None,None,None,,18,001,2023_Jan_20_1550,searchDisc5,2021.2.3,59.95111322180185,
images/exp1b_trial_56_colour2_distractors31_l.png,l,1,2,31,1,,,,,0,105,105,105,,,,,,,,,,,,,,,,,,,,,,,,,,,,,,,,,,,,,,,,,,,431.92156778101344,None,2,0.3045026089530438,431.92156778101344,None,,,,,,,,,,,,,,,,None,None,None,,None,None,432.27134300704347,None,1,1,0.6708806640235707,432.27134300704347,None,432.93882433524703,None,None,None,None,,18,001,2023_Jan_20_1550,searchDisc5,2021.2.3,59.95111322180185,
images/exp1b_trial_209_colour1_distractors9_l.png,l,1,1,9,1,,,,,0,106,106,106,,,,,,,,,,,,,,,,,,,,,,,,,,,,,,,,,,,,,,,,,,,432.957162937033,None,2,0.2705734519986436,432.957162937033,None,,,,,,,,,,,,,,,,None,None,None,,None,None,433.2711529280059,None,1,1,0.6551512400037609,433.2711529280059,None,433.9219663292344,None,None,None,None,,18,001,2023_Jan_20_1550,searchDisc5,2021.2.3,59.95111322180185,
images/exp1b_trial_230_colour2_distractors4_r.png,r,3,2,4,1,,,,,0,107,107,107,,,,,,,,,,,,,,,,,,,,,,,,,,,,,,,,,,,,,,,,,,,433.9397734189988,None,2,0.2379463060060516,433.9397734189988,None,,,,,,,,,,,,,,,,None,None,None,,None,None,434.22193067899207,None,3,1,0.6223286400199868,434.22193067899207,None,434.8386618292017,None,None,None,None,,18,001,2023_Jan_20_1550,searchDisc5,2021.2.3,59.95111322180185,
images/exp1b_trial_35_colour1_distractors19_r.png,r,3,1,19,1,,,,,0,108,108,108,,,,,,,,,,,,,,,,,,,,,,,,,,,,,,,,,,,,,,,,,,,434.8549994940404,None,2,0.32116137398406863,434.8549994940404,None,,,,,,,,,,,,,,,,None,None,None,,None,None,435.22173314500833,None,3,1,0.8199789029895328,435.22173314500833,None,436.03870920419575,None,None,None,None,,18,001,2023_Jan_20_1550,searchDisc5,2021.2.3,59.95111322180185,
images/exp1b_trial_292_colour1_distractors31_r.png,r,3,1,31,1,,,,,0,109,109,109,,,,,,,,,,,,,,,,,,,,,,,,,,,,,,,,,,,,,,,,,,,436.0548180770129,None,2,0.3042622199864127,436.0548180770129,None,,,,,,,,,,,,,,,,None,None,None,,None,None,436.4053754710476,None,3,1,1.052185043983627,436.4053754710476,None,437.4553662752325,None,None,None,None,,18,001,2023_Jan_20_1550,searchDisc5,2021.2.3,59.95111322180185,
images/exp1b_trial_264_colour2_distractors19_r.png,r,3,2,19,1,,,,,0,110,110,110,,,,,,,,,,,,,,,,,,,,,,,,,,,,,,,,,,,,,,,,,,,437.4718319270178,None,2,0.32120184099767357,437.4718319270178,None,,,,,,,,,,,,,,,,None,None,None,,None,None,437.8388673320296,None,3,1,0.8873512480058707,437.8388673320296,None,438.72212854419485,None,None,None,None,,18,001,2023_Jan_20_1550,searchDisc5,2021.2.3,59.95111322180185,
images/exp1b_trial_82_colour1_distractors19_l.png,l,1,1,19,1,,,,,0,111,111,111,,,,,,,,,,,,,,,,,,,,,,,,,,,,,,,,,,,,,,,,,,,438.73841894004727,None,2,0.2877054040436633,438.73841894004727,None,,,,,,,,,,,,,,,,None,None,None,,None,None,439.07155765400967,None,1,1,0.7536051589995623,439.07155765400967,None,439.8220278071996,None,None,None,None,,18,001,2023_Jan_20_1550,searchDisc5,2021.2.3,59.95111322180185,
images/exp1b_trial_69_colour2_distractors1_r.png,r,3,2,1,1,,,,,0,112,112,112,,,,,,,,,,,,,,,,,,,,,,,,,,,,,,,,,,,,,,,,,,,439.8379772650078,None,2,0.28807587100891396,439.8379772650078,None,,,,,,,,,,,,,,,,None,None,None,,None,None,440.17202643700875,None,3,1,0.7563390349969268,440.17202643700875,None,440.9222632871999,None,None,None,None,,18,001,2023_Jan_20_1550,searchDisc5,2021.2.3,59.95111322180185,
images/exp1b_trial_30_colour0_distractors0_r.png,r,3,0,0,1,,,,,0,113,113,113,,,,,,,,,,,,,,,,,,,,,,,,,,,,,,,,,,,,,,,,,,,440.9377592530218,None,2,0.4228514619753696,440.9377592530218,None,,,,,,,,,,,,,,,,None,None,None,,None,None,441.40716405102285,None,3,1,1.2702266869600862,441.40716405102285,None,442.6722547182173,None,None,None,None,,18,001,2023_Jan_20_1550,searchDisc5,2021.2.3,59.95111322180185,
images/exp1b_trial_99_colour1_distractors19_r.png,r,3,1,19,1,,,,,0,114,114,114,,,,,,,,,,,,,,,,,,,,,,,,,,,,,,,,,,,,,,,,,,,442.690620156005,None,2,0.4874996080179699,442.690620156005,None,,,,,,,,,,,,,,,,None,None,None,,None,None,443.2241107620066,None,3,1,1.8036476779961959,443.2241107620066,None,445.02223152424557,None,None,None,None,,18,001,2023_Jan_20_1550,searchDisc5,2021.2.3,59.95111322180185,
images/exp1b_trial_274_colour1_distractors19_l.png,l,1,1,19,1,,,,,0,115,115,115,,,,,,,,,,,,,,,,,,,,,,,,,,,,,,,,,,,,,,,,,,,445.0383845860488,None,2,0.4064591840142384,445.0383845860488,None,,,,,,,,,,,,,,,,None,None,None,,None,None,445.49051993200555,None,1,1,0.6682928370428272,445.49051993200555,None,446.15567982524516,None,None,None,None,,18,001,2023_Jan_20_1550,searchDisc5,2021.2.3,59.95111322180185,
images/exp1b_trial_242_colour1_distractors19_l.png,l,1,1,19,1,,,,,0,116,116,116,,,,,,,,,,,,,,,,,,,,,,,,,,,,,,,,,,,,,,,,,,,446.17198695003754,None,2,0.3877926670247689,446.17198695003754,None,,,,,,,,,,,,,,,,None,None,None,,None,None,446.6075452110381,None,1,1,0.7866513589979149,446.6075452110381,None,447.3890677632473,None,None,None,None,,18,001,2023_Jan_20_1550,searchDisc5,2021.2.3,59.95111322180185,
images/exp1b_trial_166_colour2_distractors4_r.png,r,3,2,4,1,,,,,0,117,117,117,,,,,,,,,,,,,,,,,,,,,,,,,,,,,,,,,,,,,,,,,,,447.4049237410072,None,2,0.32110063795698807,447.4049237410072,None,,,,,,,,,,,,,,,,None,None,None,,None,None,447.77225415600697,None,3,1,0.9722048360272311,447.77225415600697,None,448.73909796421066,None,None,None,None,,18,001,2023_Jan_20_1550,searchDisc5,2021.2.3,59.95111322180185,
images/exp1b_trial_201_colour2_distractors31_r.png,r,3,2,31,1,,,,,0,118,118,118,,,,,,,,,,,,,,,,,,,,,,,,,,,,,,,,,,,,,,,,,,,448.7553765930352,None,2,0.3208662719698623,448.7553765930352,None,,,,,,,,,,,,,,,,None,None,None,,None,None,449.1219539490412,None,3,1,1.3219839929952286,449.1219539490412,None,450.4390021562169,None,None,None,None,,18,001,2023_Jan_20_1550,searchDisc5,2021.2.3,59.95111322180185,
images/exp1b_trial_296_colour2_distractors19_r.png,r,3,2,19,1,,,,,0,119,119,119,,,,,,,,,,,,,,,,,,,,,,,,,,,,,,,,,,,,,,,,,,,450.45480003702687,None,2,0.26943181204842404,450.45480003702687,None,,,,,,,,,,,,,,,,None,None,None,,None,None,450.77227202401264,None,3,1,1.1542734910035506,450.77227202401264,None,451.92249732221825,None,None,None,None,,18,001,2023_Jan_20_1550,searchDisc5,2021.2.3,59.95111322180185,
images/exp1b_trial_101_colour2_distractors1_r.png,r,3,2,1,1,,,,,0,120,120,120,,,,,,,,,,,,,,,,,,,,,,,,,,,,,,,,,,,,,,,,,,,451.93876201601233,None,2,0.3211325079901144,451.93876201601233,None,,,,,,,,,,,,,,,,None,None,None,,None,None,452.30584431503667,None,3,1,0.6902923710294999,452.30584431503667,None,452.9892808651959,None,None,None,None,,18,001,2023_Jan_20_1550,searchDisc5,2021.2.3,59.95111322180185,
images/exp1b_trial_207_colour1_distractors1_l.png,l,1,1,1,1,,,,,0,121,121,121,,,,,,,,,,,,,,,,,,,,,,,,,,,,,,,,,,,,,,,,,,,453.0051317050238,None,2,0.23905216896673664,453.0051317050238,None,,,,,,,,,,,,,,,,None,None,None,,None,None,453.2889726340072,None,1,1,0.736428918025922,453.2889726340072,None,454.02191139724454,None,None,None,None,,18,001,2023_Jan_20_1550,searchDisc5,2021.2.3,59.95111322180185,
images/exp1b_trial_198_colour2_distractors4_r.png,r,3,2,4,1,,,,,0,122,122,122,,,,,,,,,,,,,,,,,,,,,,,,,,,,,,,,,,,,,,,,,,,454.0381141109974,None,2,0.5555644520209171,454.0381141109974,None,,,,,,,,,,,,,,,,None,None,None,,None,None,454.6408141190186,None,3,1,0.6554054679581895,454.6408141190186,None,455.28909465020405,None,None,None,None,,18,001,2023_Jan_20_1550,searchDisc5,2021.2.3,59.95111322180185,
images/exp1b_trial_316_colour3_distractors19_l.png,l,1,3,19,1,,,,,0,123,123,123,,,,,,,,,,,,,,,,,,,,,,,,,,,,,,,,,,,,,,,,,,,455.3052619130467,None,2,0.5376999779837206,455.3052619130467,None,,,,,,,,,,,,,,,,None,None,None,,None,None,455.891118080006,None,1,1,0.6529094909783453,455.891118080006,None,456.5395494002325,None,None,None,None,,18,001,2023_Jan_20_1550,searchDisc5,2021.2.3,59.95111322180185,
images/exp1b_trial_78_colour3_distractors31_r.png,r,3,3,31,1,,,,,0,124,124,124,,,,,,,,,,,,,,,,,,,,,,,,,,,,,,,,,,,,,,,,,,,456.5555929240072,None,2,0.32088355999439955,456.5555929240072,None,,,,,,,,,,,,,,,,None,None,None,,None,None,456.9224751550355,None,3,1,1.019197624991648,456.9224751550355,None,457.9393100892368,None,None,None,None,,18,001,2023_Jan_20_1550,searchDisc5,2021.2.3,59.95111322180185,
images/exp1b_trial_12_colour3_distractors9_r.png,r,3,3,9,1,,,,,0,125,125,125,,,,,,,,,,,,,,,,,,,,,,,,,,,,,,,,,,,,,,,,,,,457.9550706320442,None,2,0.3066650109831244,457.9550706320442,None,,,,,,,,,,,,,,,,None,None,None,,None,None,458.3073381940485,None,3,1,0.8018269629683346,458.3073381940485,None,459.10612810323363,None,None,None,None,,18,001,2023_Jan_20_1550,searchDisc5,2021.2.3,59.95111322180185,
images/exp1b_trial_151_colour2_distractors19_l.png,l,1,2,19,1,,,,,0,126,126,126,,,,,,,,,,,,,,,,,,,,,,,,,,,,,,,,,,,,,,,,,,,459.1220643640263,None,2,0.22110643895575777,459.1220643640263,None,,,,,,,,,,,,,,,,None,None,None,,None,None,459.39136488200165,None,1,1,0.8040697029791772,459.39136488200165,None,460.18960057421936,None,None,None,None,,18,001,2023_Jan_20_1550,searchDisc5,2021.2.3,59.95111322180185,
images/exp1b_trial_173_colour3_distractors19_r.png,r,3,3,19,1,,,,,0,127,127,127,,,,,,,,,,,,,,,,,,,,,,,,,,,,,,,,,,,,,,,,,,,460.2056635720073,None,2,0.2583414639811963,460.2056635720073,None,,,,,,,,,,,,,,,,None,None,None,,None,None,460.50528431899147,None,3,1,0.8325454259756953,460.50528431899147,None,461.338992656226,None,None,None,None,,18,001,2023_Jan_20_1550,searchDisc5,2021.2.3,59.95111322180185,
images/exp1b_trial_277_colour2_distractors4_l.png,l,1,2,4,1,,,,,0,128,128,128,,,,,,,,,,,,,,,,,,,,,,,,,,,,,,,,,,,,,,,,,,,461.3556983930175,None,2,0.2073347020195797,461.3556983930175,None,,,,,,,,,,,,,,,,None,None,None,,None,None,461.6079812539974,None,1,1,0.7030713889980689,461.6079812539974,None,462.3061473271984,None,None,None,None,,18,001,2023_Jan_20_1550,searchDisc5,2021.2.3,59.95111322180185,
images/exp1b_trial_319_colour0_distractors0_l.png,l,1,0,0,1,,,,,0,129,129,129,,,,,,,,,,,,,,,,,,,,,,,,,,,,,,,,,,,,,,,,,,,462.3222686150111,None,2,0.27314908703556284,462.3222686150111,None,,,,,,,,,,,,,,,,None,None,None,,None,None,462.63908653002,None,1,1,0.6041281039942987,462.63908653002,None,463.2394315062149,None,None,None,None,,18,001,2023_Jan_20_1550,searchDisc5,2021.2.3,59.95111322180185,
images/exp1b_trial_52_colour2_distractors1_l.png,l,1,2,1,1,,,,,0,130,130,130,,,,,,,,,,,,,,,,,,,,,,,,,,,,,,,,,,,,,,,,,,,463.255629204039,None,2,0.22337929299101233,463.255629204039,None,,,,,,,,,,,,,,,,None,None,None,,None,None,463.52259032201255,None,1,1,0.7889251069864258,463.52259032201255,None,464.3073420472385,None,None,None,None,,18,001,2023_Jan_20_1550,searchDisc5,2021.2.3,59.95111322180185,
images/exp1b_trial_67_colour1_distractors19_r.png,r,3,1,19,1,,,,,0,131,131,131,,,,,,,,,,,,,,,,,,,,,,,,,,,,,,,,,,,,,,,,,,,464.32450331101427,None,2,0.28783054498489946,464.32450331101427,None,,,,,,,,,,,,,,,,None,None,None,,None,None,464.65677734301426,None,3,1,0.7849448429769836,464.65677734301426,None,465.43958484621834,None,None,None,None,,18,001,2023_Jan_20_1550,searchDisc5,2021.2.3,59.95111322180185,
images/exp1b_trial_234_colour3_distractors1_r.png,r,3,3,1,1,,,,,0,132,132,132,,,,,,,,,,,,,,,,,,,,,,,,,,,,,,,,,,,,,,,,,,,465.45677583804354,None,2,0.23681790102273226,465.45677583804354,None,,,,,,,,,,,,,,,,None,None,None,,None,None,465.7415188840241,None,3,1,0.9747118559898809,465.7415188840241,None,466.7063930512115,None,None,None,None,,18,001,2023_Jan_20_1550,searchDisc5,2021.2.3,59.95111322180185,
images/exp1b_trial_33_colour1_distractors4_r.png,r,3,1,4,1,,,,,0,133,133,133,,,,,,,,,,,,,,,,,,,,,,,,,,,,,,,,,,,,,,,,,,,466.72286416002316,None,2,0.22226239799056202,466.72286416002316,None,,,,,,,,,,,,,,,,None,None,None,,None,None,466.9924253580393,None,3,1,0.7032747199991718,466.9924253580393,None,467.68963396120233,None,None,None,None,,18,001,2023_Jan_20_1550,searchDisc5,2021.2.3,59.95111322180185,
images/exp1b_trial_250_colour3_distractors4_l.png,l,1,3,4,1,,,,,0,134,134,134,,,,,,,,,,,,,,,,,,,,,,,,,,,,,,,,,,,,,,,,,,,467.7066593700438,None,2,0.22415680898120627,467.7066593700438,None,,,,,,,,,,,,,,,,None,None,None,,None,None,467.9749551000423,None,1,1,0.6363257039920427,467.9749551000423,None,468.6064029182482,None,None,None,None,,18,001,2023_Jan_20_1550,searchDisc5,2021.2.3,59.95111322180185,
images/exp1b_trial_87_colour2_distractors19_l.png,l,1,2,19,1,,,,,0,135,135,135,,,,,,,,,,,,,,,,,,,,,,,,,,,,,,,,,,,,,,,,,,,468.6225662039942,None,2,0.23931560601340607,468.6225662039942,None,,,,,,,,,,,,,,,,None,None,None,,None,None,468.90936278703157,None,1,1,0.6684646919602528,468.90936278703157,None,469.5730345792428,None,None,None,None,,18,001,2023_Jan_20_1550,searchDisc5,2021.2.3,59.95111322180185,
images/exp1b_trial_190_colour0_distractors0_r.png,r,3,0,0,1,,,,,0,136,136,136,,,,,,,,,,,,,,,,,,,,,,,,,,,,,,,,,,,,,,,,,,,469.5898778620176,None,2,0.20457461598562077,469.5898778620176,None,,,,,,,,,,,,,,,,None,None,None,,None,None,469.842426571995,None,3,1,0.7552454249816947,469.842426571995,None,470.58881286021204,None,None,None,None,,18,001,2023_Jan_20_1550,searchDisc5,2021.2.3,59.95111322180185,
images/exp1b_trial_235_colour3_distractors4_r.png,r,3,3,4,1,,,,,0,137,137,137,,,,,,,,,,,,,,,,,,,,,,,,,,,,,,,,,,,,,,,,,,,470.60613045701757,None,2,0.2730708320159465,470.60613045701757,None,,,,,,,,,,,,,,,,None,None,None,,None,None,470.922901700018,None,3,1,0.704346394049935,470.922901700018,None,471.6231689542357,None,None,None,None,,18,001,2023_Jan_20_1550,searchDisc5,2021.2.3,59.95111322180185,
images/exp1b_trial_267_colour3_distractors4_r.png,r,3,3,4,1,,,,,0,138,138,138,,,,,,,,,,,,,,,,,,,,,,,,,,,,,,,,,,,,,,,,,,,471.6401895619929,None,2,0.18841295799938962,471.6401895619929,None,,,,,,,,,,,,,,,,None,None,None,,None,None,471.8757195210201,None,3,1,0.571977281011641,471.8757195210201,None,472.4409384072234,None,None,None,None,,18,001,2023_Jan_20_1550,searchDisc5,2021.2.3,59.95111322180185,
images/exp1b_trial_111_colour1_distractors1_l.png,l,1,1,1,1,,,,,0,139,139,139,,,,,,,,,,,,,,,,,,,,,,,,,,,,,,,,,,,,,,,,,,,472.45697063201806,None,2,0.1875356090022251,472.45697063201806,None,,,,,,,,,,,,,,,,None,None,None,,None,None,472.69261170504615,None,1,1,0.5715488919522613,472.69261170504615,None,473.25648434421163,None,None,None,None,,18,001,2023_Jan_20_1550,searchDisc5,2021.2.3,59.95111322180185,
images/exp1b_trial_247_colour2_distractors19_l.png,l,1,2,19,1,,,,,0,140,140,140,,,,,,,,,,,,,,,,,,,,,,,,,,,,,,,,,,,,,,,,,,,473.2735294160084,None,2,0.18845005298499018,473.2735294160084,None,,,,,,,,,,,,,,,,None,None,None,,None,None,473.5087302920292,None,1,1,0.7870576349669136,473.5087302920292,None,474.28982606625067,None,None,None,None,,18,001,2023_Jan_20_1550,searchDisc5,2021.2.3,59.95111322180185,
images/exp1b_trial_128_colour1_distractors1_r.png,r,3,1,1,1,,,,,0,141,141,141,,,,,,,,,,,,,,,,,,,,,,,,,,,,,,,,,,,,,,,,,,,474.306742040033,None,2,0.2220360659994185,474.306742040033,None,,,,,,,,,,,,,,,,None,None,None,,None,None,474.5757714770152,None,3,1,0.771758692979347,474.5757714770152,None,475.3398410782276,None,None,None,None,,18,001,2023_Jan_20_1550,searchDisc5,2021.2.3,59.95111322180185,
images/exp1b_trial_135_colour2_distractors9_r.png,r,3,2,9,1,,,,,0,142,142,142,,,,,,,,,,,,,,,,,,,,,,,,,,,,,,,,,,,,,,,,,,,475.35877326800255,None,2,0.24095406802371144,475.35877326800255,None,,,,,,,,,,,,,,,,None,None,None,,None,None,475.6398064910318,None,3,1,0.65172512200661,475.6398064910318,None,476.28980544420773,None,None,None,None,,18,001,2023_Jan_20_1550,searchDisc5,2021.2.3,59.95111322180185,
images/exp1b_trial_182_colour2_distractors9_l.png,l,1,2,9,1,,,,,0,143,143,143,,,,,,,,,,,,,,,,,,,,,,,,,,,,,,,,,,,,,,,,,,,476.30889862100594,None,2,0.22133781301090494,476.30889862100594,None,,,,,,,,,,,,,,,,None,None,None,,None,None,476.57324981701095,None,1,1,0.757648547005374,476.57324981701095,None,477.32333157422835,None,None,None,None,,18,001,2023_Jan_20_1550,searchDisc5,2021.2.3,59.95111322180185,
images/exp1b_trial_37_colour2_distractors1_r.png,r,3,2,1,1,,,,,0,144,144,144,,,,,,,,,,,,,,,,,,,,,,,,,,,,,,,,,,,,,,,,,,,477.33948831103044,None,2,0.25532783597009256,477.33948831103044,None,,,,,,,,,,,,,,,,None,None,None,,None,None,477.63977357704425,None,3,1,0.669153978000395,477.63977357704425,None,478.306512870203,None,None,None,None,,18,001,2023_Jan_20_1550,searchDisc5,2021.2.3,59.95111322180185,
images/exp1b_trial_300_colour3_distractors9_r.png,r,3,3,9,1,,,,,0,145,145,145,,,,,,,,,,,,,,,,,,,,,,,,,,,,,,,,,,,,,,,,,,,478.32294271403225,None,2,0.20750591799151152,478.32294271403225,None,,,,,,,,,,,,,,,,None,None,None,,None,None,478.5757404350443,None,3,1,0.6846135350060649,478.5757404350443,None,479.2565715622215,None,None,None,None,,18,001,2023_Jan_20_1550,searchDisc5,2021.2.3,59.95111322180185,
images/exp1b_trial_153_colour3_distractors1_l.png,l,1,3,1,1,,,,,0,146,146,146,,,,,,,,,,,,,,,,,,,,,,,,,,,,,,,,,,,,,,,,,,,479.27296868601115,None,2,0.187178299005609,479.27296868601115,None,,,,,,,,,,,,,,,,None,None,None,,None,None,479.5063638089923,None,1,1,0.6557059949846007,479.5063638089923,None,480.1556967522076,None,None,None,None,,18,001,2023_Jan_20_1550,searchDisc5,2021.2.3,59.95111322180185,
images/exp1b_trial_27_colour3_distractors9_l.png,l,1,3,9,1,,,,,0,147,147,147,,,,,,,,,,,,,,,,,,,,,,,,,,,,,,,,,,,,,,,,,,,480.1721656290465,None,2,0.18879390298388898,480.1721656290465,None,,,,,,,,,,,,,,,,None,None,None,,None,None,480.4091402970371,None,1,1,1.154386317008175,480.4091402970371,None,481.55665848021744,None,None,None,None,,18,001,2023_Jan_20_1550,searchDisc5,2021.2.3,59.95111322180185,
images/exp1b_trial_240_colour1_distractors4_l.png,l,1,1,4,1,,,,,0,148,148,148,,,,,,,,,,,,,,,,,,,,,,,,,,,,,,,,,,,,,,,,,,,481.5757684330456,None,2,0.23797224299050868,481.5757684330456,None,,,,,,,,,,,,,,,,None,None,None,,None,None,481.85688788600964,None,1,1,0.8547054550144821,481.85688788600964,None,482.706006227195,None,None,None,None,,18,001,2023_Jan_20_1550,searchDisc5,2021.2.3,59.95111322180185,
images/exp1b_trial_200_colour2_distractors19_r.png,r,3,2,19,1,,,,,0,149,149,149,,,,,,,,,,,,,,,,,,,,,,,,,,,,,,,,,,,,,,,,,,,482.7241605410236,None,2,0.2560468760202639,482.7241605410236,None,,,,,,,,,,,,,,,,None,None,None,,None,None,483.02597640204476,None,3,1,0.9704123340197839,483.02597640204476,None,483.99010712422313,None,None,None,None,,18,001,2023_Jan_20_1550,searchDisc5,2021.2.3,59.95111322180185,
images/exp1b_trial_43_colour3_distractors4_r.png,r,3,3,4,1,,,,,0,150,150,150,,,,,,,,,,,,,,,,,,,,,,,,,,,,,,,,,,,,,,,,,,,484.00654192699585,None,2,0.19074641301995143,484.00654192699585,None,,,,,,,,,,,,,,,,None,None,None,,None,None,484.24250299501,None,3,1,0.6649005520157516,484.24250299501,None,484.90676751222344,None,None,None,None,,18,001,2023_Jan_20_1550,searchDisc5,2021.2.3,59.95111322180185,
images/exp1b_trial_158_colour0_distractors0_r.png,r,3,0,0,1,,,,,0,151,151,151,,,,,,,,,,,,,,,,,,,,,,,,,,,,,,,,,,,,,,,,,,,484.92378135601757,None,2,0.13872973300749436,484.92378135601757,None,,,,,,,,,,,,,,,,None,None,None,,None,None,485.1072443140438,None,3,1,0.7221339780371636,485.1072443140438,None,485.8235930281982,None,None,None,None,,18,001,2023_Jan_20_1550,searchDisc5,2021.2.3,59.95111322180185,
images/exp1b_trial_21_colour2_distractors4_l.png,l,1,2,4,1,,,,,0,152,152,152,,,,,,,,,,,,,,,,,,,,,,,,,,,,,,,,,,,,,,,,,,,485.8405036100303,None,2,0.20949697098694742,485.8405036100303,None,,,,,,,,,,,,,,,,None,None,None,,None,None,486.0925426360336,None,1,1,0.8671579589718021,486.0925426360336,None,486.9568693082139,None,None,None,None,,18,001,2023_Jan_20_1550,searchDisc5,2021.2.3,59.95111322180185,
images/exp1b_trial_314_colour3_distractors4_l.png,l,1,3,4,1,,,,,0,153,153,153,,,,,,,,,,,,,,,,,,,,,,,,,,,,,,,,,,,,,,,,,,,486.97328862699214,None,2,0.20458780403714627,486.97328862699214,None,,,,,,,,,,,,,,,,None,None,None,,None,None,487.22636457701446,None,1,1,0.9884777650004253,487.22636457701446,None,488.2068529921991,None,None,None,None,,18,001,2023_Jan_20_1550,searchDisc5,2021.2.3,59.95111322180185,
images/exp1b_trial_216_colour2_distractors31_l.png,l,1,2,31,1,,,,,0,154,154,154,,,,,,,,,,,,,,,,,,,,,,,,,,,,,,,,,,,,,,,,,,,488.22328444599407,None,2,0.20706826797686517,488.22328444599407,None,,,,,,,,,,,,,,,,None,None,None,,None,None,488.476119287021,None,1,1,0.8840229579946026,488.476119287021,None,489.3569296912348,None,None,None,None,,18,001,2023_Jan_20_1550,searchDisc5,2021.2.3,59.95111322180185,
images/exp1b_trial_23_colour2_distractors19_l.png,l,1,2,19,1,,,,,0,155,155,155,,,,,,,,,,,,,,,,,,,,,,,,,,,,,,,,,,,,,,,,,,,489.37340976903215,None,2,0.20667520398274064,489.37340976903215,None,,,,,,,,,,,,,,,,None,None,None,,None,None,489.62550475500757,None,1,1,0.6208133699838072,489.62550475500757,None,490.24139057322753,None,None,None,None,,18,001,2023_Jan_20_1550,searchDisc5,2021.2.3,59.95111322180185,
images/exp1b_trial_189_colour3_distractors31_l.png,l,1,3,31,1,,,,,0,156,156,156,,,,,,,,,,,,,,,,,,,,,,,,,,,,,,,,,,,,,,,,,,,490.256845327036,None,2,0.2372924779774621,490.256845327036,None,,,,,,,,,,,,,,,,None,None,None,,None,None,490.5430100780213,None,1,1,0.5836920650326647,490.5430100780213,None,491.12368435222305,None,None,None,None,,18,001,2023_Jan_20_1550,searchDisc5,2021.2.3,59.95111322180185,
images/exp1b_trial_117_colour2_distractors4_l.png,l,1,2,4,1,,,,,0,157,157,157,,,,,,,,,,,,,,,,,,,,,,,,,,,,,,,,,,,,,,,,,,,491.14076355699217,None,2,0.3065780809847638,491.14076355699217,None,,,,,,,,,,,,,,,,None,None,None,,None,None,491.4909494110034,None,1,1,0.7533482920262031,491.4909494110034,None,492.24041473721735,None,None,None,None,,18,001,2023_Jan_20_1550,searchDisc5,2021.2.3,59.95111322180185,
images/exp1b_trial_181_colour2_distractors4_l.png,l,1,2,4,1,,,,,0,158,158,158,,,,,,,,,,,,,,,,,,,,,,,,,,,,,,,,,,,,,,,,,,,492.25665294600185,None,2,0.25525752699468285,492.25665294600185,None,,,,,,,,,,,,,,,,None,None,None,,None,None,492.5565338790184,None,1,1,0.5402023529750295,492.5565338790184,None,493.0903568572423,None,None,None,None,,18,001,2023_Jan_20_1550,searchDisc5,2021.2.3,59.95111322180185,
images/exp1b_trial_313_colour3_distractors1_l.png,l,1,3,1,1,,,,,0,159,159,159,,,,,,,,,,,,,,,,,,,,,,,,,,,,,,,,,,,,,,,,,,,493.1065504270373,None,2,0.319356931024231,493.1065504270373,None,,,,,,,,,,,,,,,,None,None,None,,None,None,493.4737479460309,None,1,1,0.5068766300100833,493.4737479460309,None,493.9738871662004,None,None,None,None,,18,001,2023_Jan_20_1550,searchDisc5,2021.2.3,59.95111322180185,
images/exp1b_trial_130_colour1_distractors9_r.png,r,3,1,9,1,,,,,0,160,160,160,,,,,,,,,,,,,,,,,,,,,,,,,,,,,,,,,,,,,,,,,,,493.990922758996,None,2,0.3057164619676769,493.990922758996,None,,,,,,,,,,,,,,,,None,None,None,,None,None,494.34027365903603,None,3,1,0.5723936409922317,494.34027365903603,None,494.9070673552516,None,None,None,None,,18,001,2023_Jan_20_1550,searchDisc5,2021.2.3,59.95111322180185,
images/exp1b_trial_95_colour0_distractors0_l.png,l,1,0,0,1,,,,,0,161,161,161,,,,,,,,,,,,,,,,,,,,,,,,,,,,,,,,,,,,,,,,,,,494.9239203390316,None,2,0.2857644369942136,494.9239203390316,None,,,,,,,,,,,,,,,,None,None,None,,None,None,495.25701116601704,None,1,1,0.6717019680072553,495.25701116601704,None,495.9235747342056,None,None,None,None,,18,001,2023_Jan_20_1550,searchDisc5,2021.2.3,59.95111322180185,
images/exp1b_trial_74_colour3_distractors1_r.png,r,3,3,1,1,,,,,0,162,162,162,,,,,,,,,,,,,,,,,,,,,,,,,,,,,,,,,,,,,,,,,,,495.93993695103563,None,2,0.2862524630036205,495.93993695103563,None,,,,,,,,,,,,,,,,None,None,None,,None,None,496.27369215199724,None,1,0,0.6887439819984138,496.27369215199724,None,496.9567144172208,None,None,None,None,,18,001,2023_Jan_20_1550,searchDisc5,2021.2.3,59.95111322180185,
images/exp1b_trial_107_colour3_distractors4_r.png,r,3,3,4,1,,,,,0,163,163,163,,,,,,,,,,,,,,,,,,,,,,,,,,,,,,,,,,,,,,,,,,,496.9737111290451,None,2,2.121801617962774,496.9737111290451,None,,,,,,,,,,,,,,,,None,None,None,,None,None,499.1425215060008,None,3,1,0.737755828013178,499.1425215060008,None,499.8736607912171,None,None,None,None,,18,001,2023_Jan_20_1550,searchDisc5,2021.2.3,59.95111322180185,
images/exp1b_trial_170_colour3_distractors1_r.png,r,3,3,1,1,,,,,0,164,164,164,,,,,,,,,,,,,,,,,,,,,,,,,,,,,,,,,,,,,,,,,,,499.89062042499427,None,2,0.35562100796960294,499.89062042499427,None,,,,,,,,,,,,,,,,None,None,None,,None,None,500.29041777999373,None,3,1,0.6890025230241008,500.29041777999373,None,500.9748902942112,None,None,None,None,,18,001,2023_Jan_20_1550,searchDisc5,2021.2.3,59.95111322180185,
images/exp1b_trial_211_colour1_distractors31_l.png,l,1,1,31,1,,,,,0,165,165,165,,,,,,,,,,,,,,,,,,,,,,,,,,,,,,,,,,,,,,,,,,,500.9928712990368,None,2,0.2707456760108471,500.9928712990368,None,,,,,,,,,,,,,,,,None,None,None,,None,None,501.30715834500734,None,1,1,0.8183257759665139,501.30715834500734,None,502.1239248432277,None,None,None,None,,18,001,2023_Jan_20_1550,searchDisc5,2021.2.3,59.95111322180185,
images/exp1b_trial_28_colour3_distractors19_l.png,l,1,3,19,1,,,,,0,166,166,166,,,,,,,,,,,,,,,,,,,,,,,,,,,,,,,,,,,,,,,,,,,502.1423315600259,None,2,0.23800618801033124,502.1423315600259,None,,,,,,,,,,,,,,,,None,None,None,,None,None,502.4239804720273,None,1,1,0.7190931850345805,502.4239804720273,None,503.14057225322466,None,None,None,None,,18,001,2023_Jan_20_1550,searchDisc5,2021.2.3,59.95111322180185,
images/exp1b_trial_104_colour2_distractors19_r.png,r,3,2,19,1,,,,,0,167,167,167,,,,,,,,,,,,,,,,,,,,,,,,,,,,,,,,,,,,,,,,,,,503.1569159940118,None,2,0.20727446698583663,503.1569159940118,None,,,,,,,,,,,,,,,,None,None,None,,None,None,503.40979202999733,None,3,1,0.7346715049934573,503.40979202999733,None,504.140635243227,None,None,None,None,,18,001,2023_Jan_20_1550,searchDisc5,2021.2.3,59.95111322180185,
images/exp1b_trial_167_colour2_distractors9_r.png,r,3,2,9,1,,,,,0,168,168,168,,,,,,,,,,,,,,,,,,,,,,,,,,,,,,,,,,,,,,,,,,,504.1570039310027,None,2,0.187912912981119,504.1570039310027,None,,,,,,,,,,,,,,,,None,None,None,,None,None,504.3906782559934,None,3,1,1.0044539520167746,504.3906782559934,None,505.3906156541954,None,None,None,None,,18,001,2023_Jan_20_1550,searchDisc5,2021.2.3,59.95111322180185,
images/exp1b_trial_239_colour1_distractors1_l.png,l,1,1,1,1,,,,,0,169,169,169,,,,,,,,,,,,,,,,,,,,,,,,,,,,,,,,,,,,,,,,,,,505.40702455700375,None,2,0.1879525809781626,505.40702455700375,None,,,,,,,,,,,,,,,,None,None,None,,None,None,505.6417568590259,None,1,1,0.7739484889898449,505.6417568590259,None,506.4084626952128,None,None,None,None,,18,001,2023_Jan_20_1550,searchDisc5,2021.2.3,59.95111322180185,
images/exp1b_trial_94_colour0_distractors0_r.png,r,3,0,0,1,,,,,0,170,170,170,,,,,,,,,,,,,,,,,,,,,,,,,,,,,,,,,,,,,,,,,,,506.4234158070176,None,2,0.1697081369929947,506.4234158070176,None,,,,,,,,,,,,,,,,None,None,None,,None,None,506.6419245870202,None,3,1,0.7249211969901808,506.6419245870202,None,507.35748709320904,None,None,None,None,,18,001,2023_Jan_20_1550,searchDisc5,2021.2.3,59.95111322180185,
images/exp1b_trial_79_colour1_distractors1_l.png,l,1,1,1,1,,,,,0,171,171,171,,,,,,,,,,,,,,,,,,,,,,,,,,,,,,,,,,,,,,,,,,,507.37331170903053,None,2,0.1378173339762725,507.37331170903053,None,,,,,,,,,,,,,,,,None,None,None,,None,None,507.5593676030403,None,1,1,0.721284571045544,507.5593676030403,None,508.2742475102015,None,None,None,None,,18,001,2023_Jan_20_1550,searchDisc5,2021.2.3,59.95111322180185,
images/exp1b_trial_278_colour2_distractors9_l.png,l,1,2,9,1,,,,,0,172,172,172,,,,,,,,,,,,,,,,,,,,,,,,,,,,,,,,,,,,,,,,,,,508.29112019902095,None,2,0.1378844900173135,508.29112019902095,None,,,,,,,,,,,,,,,,None,None,None,,None,None,508.4756596950465,None,1,1,0.9214303719927557,508.4756596950465,None,509.3908043232106,None,None,None,None,,18,001,2023_Jan_20_1550,searchDisc5,2021.2.3,59.95111322180185,
images/exp1b_trial_131_colour1_distractors19_r.png,r,3,1,19,1,,,,,0,173,173,173,,,,,,,,,,,,,,,,,,,,,,,,,,,,,,,,,,,,,,,,,,,509.4070830300334,None,2,0.1390871279872954,509.4070830300334,None,,,,,,,,,,,,,,,,None,None,None,,None,None,509.5934611920384,None,3,1,0.9689175499952398,509.5934611920384,None,510.5575995052524,None,None,None,None,,18,001,2023_Jan_20_1550,searchDisc5,2021.2.3,59.95111322180185,
images/exp1b_trial_289_colour1_distractors4_r.png,r,3,1,4,1,,,,,0,174,174,174,,,,,,,,,,,,,,,,,,,,,,,,,,,,,,,,,,,,,,,,,,,510.57400342001347,None,2,0.2040837780223228,510.57400342001347,None,,,,,,,,,,,,,,,,None,None,None,,None,None,510.8246243800386,None,3,1,0.822147472994402,510.8246243800386,None,511.64053561324835,None,None,None,None,,18,001,2023_Jan_20_1550,searchDisc5,2021.2.3,59.95111322180185,
images/exp1b_trial_141_colour3_distractors19_r.png,r,3,3,19,1,,,,,0,175,175,175,,,,,,,,,,,,,,,,,,,,,,,,,,,,,,,,,,,,,,,,,,,511.6592371580191,None,2,0.23755152098601684,511.6592371580191,None,,,,,,,,,,,,,,,,None,None,None,,None,None,511.94087818299886,None,3,1,1.5058465480105951,511.94087818299886,None,513.4409274432285,None,None,None,None,,18,001,2023_Jan_20_1550,searchDisc5,2021.2.3,59.95111322180185,
images/exp1b_trial_237_colour3_distractors19_r.png,r,3,3,19,1,,,,,0,176,176,176,,,,,,,,,,,,,,,,,,,,,,,,,,,,,,,,,,,,,,,,,,,513.4601988010108,None,2,0.703214865992777,513.4601988010108,None,,,,,,,,,,,,,,,,None,None,None,,None,None,514.2103435150348,None,3,1,1.1720971050090156,514.2103435150348,None,515.3764594242268,None,None,None,None,,18,001,2023_Jan_20_1550,searchDisc5,2021.2.3,59.95111322180185,
images/exp1b_trial_257_colour1_distractors4_r.png,r,3,1,4,1,,,,,0,177,177,177,,,,,,,,,,,,,,,,,,,,,,,,,,,,,,,,,,,,,,,,,,,515.3916171360179,None,2,0.26785567903425545,515.3916171360179,None,,,,,,,,,,,,,,,,None,None,None,,None,None,515.7104462250136,None,3,1,0.6555221119779162,515.7104462250136,None,516.357771206199,None,None,None,None,,18,001,2023_Jan_20_1550,searchDisc5,2021.2.3,59.95111322180185,
images/exp1b_trial_263_colour2_distractors9_r.png,r,3,2,9,1,,,,,0,178,178,178,,,,,,,,,,,,,,,,,,,,,,,,,,,,,,,,,,,,,,,,,,,516.3748333870317,None,2,0.18766351998783648,516.3748333870317,None,,,,,,,,,,,,,,,,None,None,None,,None,None,516.6104924030369,None,3,1,0.7551449260208756,516.6104924030369,None,517.3577401462419,None,None,None,None,,18,001,2023_Jan_20_1550,searchDisc5,2021.2.3,59.95111322180185,
images/exp1b_trial_280_colour2_distractors31_l.png,l,1,2,31,1,,,,,0,179,179,179,,,,,,,,,,,,,,,,,,,,,,,,,,,,,,,,,,,,,,,,,,,517.3740192510304,None,2,0.1551680929842405,517.3740192510304,None,,,,,,,,,,,,,,,,None,None,None,,None,None,517.5763643410173,None,1,1,0.6698600329691544,517.5763643410173,None,518.2410125542258,None,None,None,None,,18,001,2023_Jan_20_1550,searchDisc5,2021.2.3,59.95111322180185,
images/exp1b_trial_192_colour1_distractors1_r.png,r,3,1,1,1,,,,,0,180,180,180,,,,,,,,,,,,,,,,,,,,,,,,,,,,,,,,,,,,,,,,,,,518.2574735980015,None,2,0.19085674098460004,518.2574735980015,None,,,,,,,,,,,,,,,,None,None,None,,None,None,518.4932507670019,None,3,1,0.8365798190352507,518.4932507670019,None,519.3245576822258,None,None,None,None,,18,001,2023_Jan_20_1550,searchDisc5,2021.2.3,59.95111322180185,
images/exp1b_trial_100_colour1_distractors31_r.png,r,3,1,31,1,,,,,0,181,181,181,,,,,,,,,,,,,,,,,,,,,,,,,,,,,,,,,,,,,,,,,,,519.3407786230091,None,2,0.15519544802373275,519.3407786230091,None,,,,,,,,,,,,,,,,None,None,None,,None,None,519.5411530690035,None,3,1,0.934924042026978,519.5411530690035,None,520.4755082572403,None,None,None,None,,18,001,2023_Jan_20_1550,searchDisc5,2021.2.3,59.95111322180185,
images/exp1b_trial_65_colour1_distractors4_r.png,r,3,1,4,1,,,,,0,182,182,182,,,,,,,,,,,,,,,,,,,,,,,,,,,,,,,,,,,,,,,,,,,520.4907017300138,None,2,0.17022368998732418,520.4907017300138,None,,,,,,,,,,,,,,,,None,None,None,,None,None,520.7096976240282,None,3,1,0.8221230839844793,520.7096976240282,None,521.5245003552002,None,None,None,None,,18,001,2023_Jan_20_1550,searchDisc5,2021.2.3,59.95111322180185,
images/exp1b_trial_191_colour0_distractors0_l.png,l,1,0,0,1,,,,,0,183,183,183,,,,,,,,,,,,,,,,,,,,,,,,,,,,,,,,,,,,,,,,,,,521.5404732340248,None,2,0.1545804269844666,521.5404732340248,None,,,,,,,,,,,,,,,,None,None,None,,None,None,521.7430369850481,None,1,1,0.6902226199745201,521.7430369850481,None,522.4245970762161,None,None,None,None,,18,001,2023_Jan_20_1550,searchDisc5,2021.2.3,59.95111322180185,
images/exp1b_trial_148_colour2_distractors1_l.png,l,1,2,1,1,,,,,0,184,184,184,,,,,,,,,,,,,,,,,,,,,,,,,,,,,,,,,,,,,,,,,,,522.4406762010185,None,2,0.1390723279910162,522.4406762010185,None,,,,,,,,,,,,,,,,None,None,None,,None,None,522.6268458600389,None,1,1,0.6911778079811484,522.6268458600389,None,523.3090130922094,None,None,None,None,,18,001,2023_Jan_20_1550,searchDisc5,2021.2.3,59.95111322180185,
images/exp1b_trial_219_colour3_distractors9_l.png,l,1,3,9,1,,,,,0,185,185,185,,,,,,,,,,,,,,,,,,,,,,,,,,,,,,,,,,,,,,,,,,,523.3248773870291,None,2,0.15459242498036474,523.3248773870291,None,,,,,,,,,,,,,,,,None,None,None,,None,None,523.527375426027,None,1,1,0.6882349440129474,523.527375426027,None,524.2088986602205,None,None,None,None,,18,001,2023_Jan_20_1550,searchDisc5,2021.2.3,59.95111322180185,
images/exp1b_trial_108_colour3_distractors9_r.png,r,3,3,9,1,,,,,0,186,186,186,,,,,,,,,,,,,,,,,,,,,,,,,,,,,,,,,,,,,,,,,,,524.2248297840124,None,2,0.2057253490202129,524.2248297840124,None,,,,,,,,,,,,,,,,None,None,None,,None,None,524.4774988010176,None,3,1,0.8178337429999374,524.4774988010176,None,525.2905691792432,None,None,None,None,,18,001,2023_Jan_20_1550,searchDisc5,2021.2.3,59.95111322180185,
images/exp1b_trial_283_colour3_distractors9_l.png,l,1,3,9,1,,,,,0,187,187,187,,,,,,,,,,,,,,,,,,,,,,,,,,,,,,,,,,,,,,,,,,,525.3077313810354,None,2,0.22075376397697255,525.3077313810354,None,,,,,,,,,,,,,,,,None,None,None,,None,None,525.5769975850126,None,1,1,2.1194853800116107,525.5769975850126,None,527.6906409522228,None,None,None,None,,18,001,2023_Jan_20_1550,searchDisc5,2021.2.3,59.95111322180185,
images/exp1b_trial_188_colour3_distractors19_l.png,l,1,3,19,1,,,,,0,188,188,188,,,,,,,,,,,,,,,,,,,,,,,,,,,,,,,,,,,,,,,,,,,527.7084962649969,None,2,0.24135963100707158,527.7084962649969,None,,,,,,,,,,,,,,,,None,None,None,,None,None,527.9939444590127,None,1,1,1.4834636489977129,527.9939444590127,None,529.4746107811982,None,None,None,None,,18,001,2023_Jan_20_1550,searchDisc5,2021.2.3,59.95111322180185,
images/exp1b_trial_25_colour3_distractors1_l.png,l,1,3,1,1,,,,,0,189,189,189,,,,,,,,,,,,,,,,,,,,,,,,,,,,,,,,,,,,,,,,,,,529.4930033780402,None,2,0.2378680770052597,529.4930033780402,None,,,,,,,,,,,,,,,,None,None,None,,None,None,529.7750349980197,None,1,1,1.1743584860232659,529.7750349980197,None,530.9414698672074,None,None,None,None,,18,001,2023_Jan_20_1550,searchDisc5,2021.2.3,59.95111322180185,
images/exp1b_trial_288_colour1_distractors1_r.png,r,3,1,1,1,,,,,0,190,190,190,,,,,,,,,,,,,,,,,,,,,,,,,,,,,,,,,,,,,,,,,,,530.9603428540286,None,2,0.18581101001473144,530.9603428540286,None,,,,,,,,,,,,,,,,None,None,None,,None,None,531.1918668060098,None,3,1,0.8044637970160693,531.1918668060098,None,531.9913423032442,None,None,None,None,,18,001,2023_Jan_20_1550,searchDisc5,2021.2.3,59.95111322180185,
images/exp1b_trial_145_colour1_distractors9_l.png,l,1,1,9,1,,,,,0,191,191,191,,,,,,,,,,,,,,,,,,,,,,,,,,,,,,,,,,,,,,,,,,,532.0077826850465,None,2,0.19038199604256079,532.0077826850465,None,,,,,,,,,,,,,,,,None,None,None,,None,None,532.2435722980299,None,1,1,0.8204573029652238,532.2435722980299,None,533.0592053562461,None,None,None,None,,18,001,2023_Jan_20_1550,searchDisc5,2021.2.3,59.95111322180185,
images/exp1b_trial_318_colour0_distractors0_r.png,r,3,0,0,1,,,,,0,192,192,192,,,,,,,,,,,,,,,,,,,,,,,,,,,,,,,,,,,,,,,,,,,533.074426584004,None,2,0.1710668170126155,533.074426584004,None,,,,,,,,,,,,,,,,None,None,None,,None,None,533.2944151640404,None,3,1,0.9392309180111624,533.2944151640404,None,534.2248231402075,None,None,None,None,,18,001,2023_Jan_20_1550,searchDisc5,2021.2.3,59.95111322180185,
images/exp1b_trial_6_colour2_distractors4_r.png,r,3,2,4,1,,,,,0,193,193,193,,,,,,,,,,,,,,,,,,,,,,,,,,,,,,,,,,,,,,,,,,,534.2436716450029,None,2,0.20533888100180775,534.2436716450029,None,,,,,,,,,,,,,,,,None,None,None,,None,None,534.4906718730344,None,3,1,0.7385110920295119,534.4906718730344,None,535.2246224132425,None,None,None,None,,18,001,2023_Jan_20_1550,searchDisc5,2021.2.3,59.95111322180185,
images/exp1b_trial_284_colour3_distractors19_l.png,l,1,3,19,1,,,,,0,194,194,194,,,,,,,,,,,,,,,,,,,,,,,,,,,,,,,,,,,,,,,,,,,535.2410873750341,None,2,0.15549130999716,535.2410873750341,None,,,,,,,,,,,,,,,,None,None,None,,None,None,535.4445247530239,None,1,1,0.8529931610100903,535.4445247530239,None,536.291537093249,None,None,None,None,,18,001,2023_Jan_20_1550,searchDisc5,2021.2.3,59.95111322180185,
images/exp1b_trial_139_colour3_distractors4_r.png,r,3,3,4,1,,,,,0,195,195,195,,,,,,,,,,,,,,,,,,,,,,,,,,,,,,,,,,,,,,,,,,,536.309749859036,None,2,0.4224864920252003,536.309749859036,None,,,,,,,,,,,,,,,,None,None,None,,None,None,536.7756972200004,None,3,1,0.9876648010103963,536.7756972200004,None,537.7583101062512,None,None,None,None,,18,001,2023_Jan_20_1550,searchDisc5,2021.2.3,59.95111322180185,
images/exp1b_trial_260_colour1_distractors31_r.png,r,3,1,31,1,,,,,0,196,196,196,,,,,,,,,,,,,,,,,,,,,,,,,,,,,,,,,,,,,,,,,,,537.7754080790328,None,2,0.5562586659798399,537.7754080790328,None,,,,,,,,,,,,,,,,None,None,None,,None,None,538.3774749260047,None,3,1,0.800614281964954,538.3774749260047,None,539.1759135222121,None,None,None,None,,18,001,2023_Jan_20_1550,searchDisc5,2021.2.3,59.95111322180185,
images/exp1b_trial_252_colour3_distractors19_l.png,l,1,3,19,1,,,,,0,197,197,197,,,,,,,,,,,,,,,,,,,,,,,,,,,,,,,,,,,,,,,,,,,539.191833495046,None,2,0.1877082179998979,539.191833495046,None,,,,,,,,,,,,,,,,None,None,None,,None,None,539.4255588600063,None,1,1,0.719723945017904,539.4255588600063,None,540.1426792132145,None,None,None,None,,18,001,2023_Jan_20_1550,searchDisc5,2021.2.3,59.95111322180185,
images/exp1b_trial_224_colour1_distractors1_r.png,r,3,1,1,1,,,,,0,198,198,198,,,,,,,,,,,,,,,,,,,,,,,,,,,,,,,,,,,,,,,,,,,540.1579184560105,None,2,0.16930333100026473,540.1579184560105,None,,,,,,,,,,,,,,,,None,None,None,,None,None,540.377009007032,None,3,1,0.7568923700018786,540.377009007032,None,541.1250717182004,None,None,None,None,,18,001,2023_Jan_20_1550,searchDisc5,2021.2.3,59.95111322180185,
images/exp1b_trial_68_colour1_distractors31_r.png,r,3,1,31,1,,,,,0,199,199,199,,,,,,,,,,,,,,,,,,,,,,,,,,,,,,,,,,,,,,,,,,,541.1419129280257,None,2,0.15452718897722661,541.1419129280257,None,,,,,,,,,,,,,,,,None,None,None,,None,None,541.3416749000316,None,3,1,1.201928638969548,541.3416749000316,None,542.5416447082127,None,None,None,None,,18,001,2023_Jan_20_1550,searchDisc5,2021.2.3,59.95111322180185,
images/exp1b_trial_71_colour2_distractors9_r.png,r,3,2,9,1,,,,,0,200,200,200,,,,,,,,,,,,,,,,,,,,,,,,,,,,,,,,,,,,,,,,,,,542.5579901330057,None,2,0.20435121603077278,542.5579901330057,None,,,,,,,,,,,,,,,,None,None,None,,None,None,542.8081514569931,None,3,1,0.7057271159719676,542.8081514569931,None,543.5094237802143,None,None,None,None,,18,001,2023_Jan_20_1550,searchDisc5,2021.2.3,59.95111322180185,
images/exp1b_trial_315_colour3_distractors9_l.png,l,1,3,9,1,,,,,0,201,201,201,,,,,,,,,,,,,,,,,,,,,,,,,,,,,,,,,,,,,,,,,,,543.5258691890049,None,2,0.16977044503437355,543.5258691890049,None,,,,,,,,,,,,,,,,None,None,None,,None,None,543.7447573940153,None,1,1,0.7369269790360704,543.7447573940153,None,544.4750195702247,None,None,None,None,,18,001,2023_Jan_20_1550,searchDisc5,2021.2.3,59.95111322180185,
images/exp1b_trial_177_colour1_distractors9_l.png,l,1,1,9,1,,,,,0,202,202,202,,,,,,,,,,,,,,,,,,,,,,,,,,,,,,,,,,,,,,,,,,,544.4914474130492,None,2,0.18879808904603124,544.4914474130492,None,,,,,,,,,,,,,,,,None,None,None,,None,None,544.7280029529938,None,1,1,2.3548569519771263,544.7280029529938,None,547.07511245723,None,None,None,None,,18,001,2023_Jan_20_1550,searchDisc5,2021.2.3,59.95111322180185,
images/exp1b_trial_53_colour2_distractors4_l.png,l,1,2,4,1,,,,,0,203,203,203,,,,,,,,,,,,,,,,,,,,,,,,,,,,,,,,,,,,,,,,,,,547.0919591240236,None,2,0.15462540101725608,547.0919591240236,None,,,,,,,,,,,,,,,,None,None,None,,None,None,547.2931239620084,None,1,1,0.9550602430244908,547.2931239620084,None,548.2418339812023,None,None,None,None,,18,001,2023_Jan_20_1550,searchDisc5,2021.2.3,59.95111322180185,
images/exp1b_trial_228_colour1_distractors31_r.png,r,3,1,31,1,,,,,0,204,204,204,,,,,,,,,,,,,,,,,,,,,,,,,,,,,,,,,,,,,,,,,,,548.2607442210428,None,2,0.17216441198252141,548.2607442210428,None,,,,,,,,,,,,,,,,None,None,None,,None,None,548.4771025709924,None,3,1,1.300869281985797,548.4771025709924,None,549.7746140122356,None,None,None,None,,18,001,2023_Jan_20_1550,searchDisc5,2021.2.3,59.95111322180185,
images/exp1b_trial_154_colour3_distractors4_l.png,l,1,3,4,1,,,,,0,205,205,205,,,,,,,,,,,,,,,,,,,,,,,,,,,,,,,,,,,,,,,,,,,549.7924820390181,None,2,0.2727306630113162,549.7924820390181,None,,,,,,,,,,,,,,,,None,None,None,,None,None,550.1091372960364,None,1,1,0.9840314509929158,550.1091372960364,None,551.0911551072088,None,None,None,None,,18,001,2023_Jan_20_1550,searchDisc5,2021.2.3,59.95111322180185,
images/exp1b_trial_61_colour3_distractors31_l.png,l,1,3,31,1,,,,,0,206,206,206,,,,,,,,,,,,,,,,,,,,,,,,,,,,,,,,,,,,,,,,,,,551.1109718490043,None,2,0.23853284202050418,551.1109718490043,None,,,,,,,,,,,,,,,,None,None,None,,None,None,551.3917879959918,None,1,1,0.7719854890019633,551.3917879959918,None,552.1588664372277,None,None,None,None,,18,001,2023_Jan_20_1550,searchDisc5,2021.2.3,59.95111322180185,
images/exp1b_trial_64_colour1_distractors1_r.png,r,3,1,1,1,,,,,0,207,207,207,,,,,,,,,,,,,,,,,,,,,,,,,,,,,,,,,,,,,,,,,,,552.1751392630395,None,2,0.21849027404095978,552.1751392630395,None,,,,,,,,,,,,,,,,None,None,None,,None,None,552.442873811,None,3,1,0.8902630569646135,552.442873811,None,553.3264112431964,None,None,None,None,,18,001,2023_Jan_20_1550,searchDisc5,2021.2.3,59.95111322180185,
images/exp1b_trial_261_colour2_distractors1_r.png,r,3,2,1,1,,,,,0,208,208,208,,,,,,,,,,,,,,,,,,,,,,,,,,,,,,,,,,,,,,,,,,,553.342075410008,None,2,0.3044527089805342,553.342075410008,None,,,,,,,,,,,,,,,,None,None,None,,None,None,553.6922067530104,None,3,1,0.704070805979427,553.6922067530104,None,554.3913022751979,None,None,None,None,,18,001,2023_Jan_20_1550,searchDisc5,2021.2.3,59.95111322180185,
images/exp1b_trial_58_colour3_distractors4_l.png,l,1,3,4,1,,,,,0,209,209,209,,,,,,,,,,,,,,,,,,,,,,,,,,,,,,,,,,,,,,,,,,,554.4093342540436,None,2,0.25580021302448586,554.4093342540436,None,,,,,,,,,,,,,,,,None,None,None,,None,None,554.7085601010476,None,1,1,0.9371274170116521,554.7085601010476,None,555.6414498982078,None,None,None,None,,18,001,2023_Jan_20_1550,searchDisc5,2021.2.3,59.95111322180185,
images/exp1b_trial_85_colour2_distractors4_l.png,l,1,2,4,1,,,,,0,210,210,210,,,,,,,,,,,,,,,,,,,,,,,,,,,,,,,,,,,,,,,,,,,555.6583124070312,None,2,0.3715897870133631,555.6583124070312,None,,,,,,,,,,,,,,,,None,None,None,,None,None,556.0773078750353,None,1,1,0.6909327570465393,556.0773078750353,None,556.7607816012053,None,None,None,None,,18,001,2023_Jan_20_1550,searchDisc5,2021.2.3,59.95111322180185,
images/exp1b_trial_0_colour1_distractors1_r.png,r,3,1,1,1,,,,,0,211,211,211,,,,,,,,,,,,,,,,,,,,,,,,,,,,,,,,,,,,,,,,,,,556.7778814420453,None,2,0.3705334640108049,556.7778814420453,None,,,,,,,,,,,,,,,,None,None,None,,None,None,557.1941404780373,None,3,1,0.6546109479968436,557.1941404780373,None,557.8420647022024,None,None,None,None,,18,001,2023_Jan_20_1550,searchDisc5,2021.2.3,59.95111322180185,
images/exp1b_trial_275_colour1_distractors31_l.png,l,1,1,31,1,,,,,0,212,212,212,,,,,,,,,,,,,,,,,,,,,,,,,,,,,,,,,,,,,,,,,,,557.8592433760059,None,2,0.3040503570227884,557.8592433760059,None,,,,,,,,,,,,,,,,None,None,None,,None,None,558.2086492640083,None,1,1,0.8351074560196139,558.2086492640083,None,559.0423099832435,None,None,None,None,,18,001,2023_Jan_20_1550,searchDisc5,2021.2.3,59.95111322180185,
images/exp1b_trial_306_colour1_distractors19_l.png,l,1,1,19,1,,,,,0,213,213,213,,,,,,,,,,,,,,,,,,,,,,,,,,,,,,,,,,,,,,,,,,,559.0587420790107,None,2,0.3385611380217597,559.0587420790107,None,,,,,,,,,,,,,,,,None,None,None,,None,None,559.4429667390068,None,1,1,0.7524465299793519,559.4429667390068,None,560.1922232162499,None,None,None,None,,18,001,2023_Jan_20_1550,searchDisc5,2021.2.3,59.95111322180185,
images/exp1b_trial_180_colour2_distractors1_l.png,l,1,2,1,1,,,,,0,214,214,214,,,,,,,,,,,,,,,,,,,,,,,,,,,,,,,,,,,,,,,,,,,560.2093030030373,None,2,0.3384265410131775,560.2093030030373,None,,,,,,,,,,,,,,,,None,None,None,,None,None,560.5923773950199,None,1,1,1.088610212027561,560.5923773950199,None,561.6755690042221,None,None,None,None,,18,001,2023_Jan_20_1550,searchDisc5,2021.2.3,59.95111322180185,
images/exp1b_trial_8_colour2_distractors19_r.png,r,3,2,19,1,,,,,0,215,215,215,,,,,,,,,,,,,,,,,,,,,,,,,,,,,,,,,,,,,,,,,,,561.6920612480026,None,2,0.5900777889764868,561.6920612480026,None,,,,,,,,,,,,,,,,None,None,None,,None,None,562.3280324939988,None,3,1,0.6705542100244202,562.3280324939988,None,562.9923869922234,None,None,None,None,,18,001,2023_Jan_20_1550,searchDisc5,2021.2.3,59.95111322180185,
images/exp1b_trial_147_colour1_distractors31_l.png,l,1,1,31,1,,,,,0,216,216,216,,,,,,,,,,,,,,,,,,,,,,,,,,,,,,,,,,,,,,,,,,,563.0096779810265,None,2,0.3519555419916287,563.0096779810265,None,,,,,,,,,,,,,,,,None,None,None,,None,None,563.4088449040428,None,1,1,0.836047557007987,563.4088449040428,None,564.2424218802073,None,None,None,None,,18,001,2023_Jan_20_1550,searchDisc5,2021.2.3,59.95111322180185,
images/exp1b_trial_45_colour3_distractors19_r.png,r,3,3,19,1,,,,,0,217,217,217,,,,,,,,,,,,,,,,,,,,,,,,,,,,,,,,,,,,,,,,,,,564.2586276530055,None,2,0.3043846699874848,564.2586276530055,None,,,,,,,,,,,,,,,,None,None,None,,None,None,564.609128768032,None,3,1,0.7537893209955655,564.609128768032,None,565.3589430592431,None,None,None,None,,18,001,2023_Jan_20_1550,searchDisc5,2021.2.3,59.95111322180185,
images/exp1b_trial_114_colour1_distractors19_l.png,l,1,1,19,1,,,,,0,218,218,218,,,,,,,,,,,,,,,,,,,,,,,,,,,,,,,,,,,,,,,,,,,565.3773375040037,None,2,0.2721847210195847,565.3773375040037,None,,,,,,,,,,,,,,,,None,None,None,,None,None,565.6917130630463,None,1,1,0.6356511280173436,565.6917130630463,None,566.3256555802247,None,None,None,None,,18,001,2023_Jan_20_1550,searchDisc5,2021.2.3,59.95111322180185,
images/exp1b_trial_140_colour3_distractors9_r.png,r,3,3,9,1,,,,,0,219,219,219,,,,,,,,,,,,,,,,,,,,,,,,,,,,,,,,,,,,,,,,,,,566.3418019040255,None,2,0.27128846204141155,566.3418019040255,None,,,,,,,,,,,,,,,,None,None,None,,None,None,566.6596913260291,None,3,1,0.871892202005256,566.6596913260291,None,567.5267178222014,None,None,None,None,,18,001,2023_Jan_20_1550,searchDisc5,2021.2.3,59.95111322180185,
images/exp1b_trial_149_colour2_distractors4_l.png,l,1,2,4,1,,,,,0,220,220,220,,,,,,,,,,,,,,,,,,,,,,,,,,,,,,,,,,,,,,,,,,,567.5420609150315,None,2,0.18789124197792262,567.5420609150315,None,,,,,,,,,,,,,,,,None,None,None,,None,None,567.778676640999,None,1,1,0.5902527820435353,567.778676640999,None,568.3588923132222,None,None,None,None,,18,001,2023_Jan_20_1550,searchDisc5,2021.2.3,59.95111322180185,
images/exp1b_trial_311_colour2_distractors19_l.png,l,1,2,19,1,,,,,0,221,221,221,,,,,,,,,,,,,,,,,,,,,,,,,,,,,,,,,,,,,,,,,,,568.3753578070318,None,2,0.28506737999850884,568.3753578070318,None,,,,,,,,,,,,,,,,None,None,None,,None,None,568.7098542629974,None,1,1,0.7215834980015643,568.7098542629974,None,569.4257962142176,None,None,None,None,,18,001,2023_Jan_20_1550,searchDisc5,2021.2.3,59.95111322180185,
images/exp1b_trial_7_colour2_distractors9_r.png,r,3,2,9,1,,,,,0,222,222,222,,,,,,,,,,,,,,,,,,,,,,,,,,,,,,,,,,,,,,,,,,,569.4426088150358,None,2,0.30410552403191105,569.4426088150358,None,,,,,,,,,,,,,,,,None,None,None,,None,None,569.7939282440348,None,3,1,0.8709050390170887,569.7939282440348,None,570.6584970242286,None,None,None,None,,18,001,2023_Jan_20_1550,searchDisc5,2021.2.3,59.95111322180185,
images/exp1b_trial_146_colour1_distractors19_l.png,l,1,1,19,1,,,,,0,223,223,223,,,,,,,,,,,,,,,,,,,,,,,,,,,,,,,,,,,,,,,,,,,570.6763465719996,None,2,0.6893170090042986,570.6763465719996,None,,,,,,,,,,,,,,,,None,None,None,,None,None,571.4090088190278,None,1,1,0.6024632700136863,571.4090088190278,None,572.009296578198,None,None,None,None,,18,001,2023_Jan_20_1550,searchDisc5,2021.2.3,59.95111322180185,
images/exp1b_trial_217_colour3_distractors1_l.png,l,1,3,1,1,,,,,0,224,224,224,,,,,,,,,,,,,,,,,,,,,,,,,,,,,,,,,,,,,,,,,,,572.0263052710216,None,2,0.3043729179771617,572.0263052710216,None,,,,,,,,,,,,,,,,None,None,None,,None,None,572.3765712910099,None,1,1,0.9728477369644679,572.3765712910099,None,573.3427546842315,None,None,None,None,,18,001,2023_Jan_20_1550,searchDisc5,2021.2.3,59.95111322180185,
images/exp1b_trial_40_colour2_distractors19_r.png,r,3,2,19,1,,,,,0,225,225,225,,,,,,,,,,,,,,,,,,,,,,,,,,,,,,,,,,,,,,,,,,,573.3597232589964,None,2,0.27073439699597657,573.3597232589964,None,,,,,,,,,,,,,,,,None,None,None,,None,None,573.6764417410013,None,3,1,0.9718681729864329,573.6764417410013,None,574.6435518312094,None,None,None,None,,18,001,2023_Jan_20_1550,searchDisc5,2021.2.3,59.95111322180185,
