ImageFile,targ_side,correctAnswer,colour,distNo,targetType,trials_2.thisRepN,trials_2.thisTrialN,trials_2.thisN,trials_2.thisIndex,trials.thisRepN,trials.thisTrialN,trials.thisN,trials.thisIndex,text_6.started,text_6.stopped,buttonBox.keys,buttonBox.rt,buttonBox.started,buttonBox.stopped,text_7.started,text_7.stopped,buttonBox_3.keys,buttonBox_3.rt,buttonBox_3.started,buttonBox_3.stopped,text_8.started,text_8.stopped,buttonBox_4.keys,buttonBox_4.rt,buttonBox_4.started,buttonBox_4.stopped,text_9.started,text_9.stopped,buttonBox_5.keys,buttonBox_5.rt,buttonBox_5.started,buttonBox_5.stopped,text_2.started,text_2.stopped,buttonBox_6.keys,buttonBox_6.rt,buttonBox_6.started,buttonBox_6.stopped,text_5.started,text_5.stopped,buttonBox_7.keys,buttonBox_7.rt,image_2.started,image_2.stopped,image_3.started,image_3.stopped,buttonBox_8.keys,buttonBox_8.rt,buttonBox_8.started,buttonBox_8.stopped,polygon.started,polygon.stopped,buttonBox_9.keys,buttonBox_9.rt,buttonBox_9.started,buttonBox_9.stopped,image.started,image.stopped,buttonBox_10.keys,buttonBox_10.corr,buttonBox_10.rt,buttonBox_10.started,buttonBox_10.stopped,text_4.started,text_4.stopped,text.started,text.stopped,buttonBox_11.keys,buttonBox_11.rt,buttonBox_11.started,buttonBox_11.stopped,targetTypeInstruction.started,targetTypeInstruction.stopped,buttonBox_2.keys,buttonBox_2.rt,buttonBox_2.started,buttonBox_2.stopped,dispStimuli.started,dispStimuli.stopped,buttonBox_12.keys,buttonBox_12.corr,buttonBox_12.rt,buttonBox_12.started,buttonBox_12.stopped,breakMessage.started,breakMessage.stopped,buttonBox_13.keys,buttonBox_13.started,buttonBox_13.stopped,buttonBox_13.rt,participant,session,date,expName,psychopyVersion,frameRate,
,,,,,,,,,,,,,,105.73350018297788,None,2,101.74122844700469,105.73350018297788,None,,,,,,,,,,,,,,,,,,,,,,,,,,,,,,,,,,,,,,,,,,,,,,,,,,,,,,,,,,,,,,,,,,,,,,,,,,,,,21,001,2023_Jan_23_1115,searchDisc5,2021.2.3,59.97145394304753,
,,,,,,,,,,,,,,,,,,,,207.46685757499654,None,2,136.9526664770092,207.46685757499654,None,,,,,,,,,,,,,,,,,,,,,,,,,,,,,,,,,,,,,,,,,,,,,,,,,,,,,,,,,,,,,,,,,,,,,,,21,001,2023_Jan_23_1115,searchDisc5,2021.2.3,59.97145394304753,
,,,,,,,,,,,,,,,,,,,,,,,,,,344.42048793297727,None,2,13.429369507997762,344.42048793297727,None,,,,,,,,,,,,,,,,,,,,,,,,,,,,,,,,,,,,,,,,,,,,,,,,,,,,,,,,,,,,,,,,,21,001,2023_Jan_23_1115,searchDisc5,2021.2.3,59.97145394304753,
,,,,,,,,,,,,,,,,,,,,,,,,,,,,,,,,357.8542978189653,None,2,13.433552085014526,357.8542978189653,None,,,,,,,,,,,,,,,,,,,,,,,,,,,,,,,,,,,,,,,,,,,,,,,,,,,,,,,,,,,21,001,2023_Jan_23_1115,searchDisc5,2021.2.3,59.97145394304753,
,,,,,,,,,,,,,,,,,,,,,,,,,,,,,,,,,,,,,,371.2879481440177,None,2,23.96733740903437,372.27330494701164,None,,,,,,,,,,,,,,,,,,,,,,,,,,,,,,,,,,,,,,,,,,,,,,,,,,,,,21,001,2023_Jan_23_1115,searchDisc5,2021.2.3,59.97145394304753,
,,,,,,,,,,,,,,,,,,,,,,,,,,,,,,,,,,,,,,,,,,,,396.2406233199872,None,2,11.465867764956784,,,,,,,,,,,,,,,,,,,,,,,,,,,,,,,,,,,,,,,,,,,,,,,,,21,001,2023_Jan_23_1115,searchDisc5,2021.2.3,59.97145394304753,
,,,,,,,,,,,,,,,,,,,,,,,,,,,,,,,,,,,,,,,,,,,,,,,,410.7056661659735,None,410.7056661659735,None,2,9.565816148999147,410.7056661659735,None,,,,,,,,,,,,,,,,,,,,,,,,,,,,,,,,,,,,,,,,,21,001,2023_Jan_23_1115,searchDisc5,2021.2.3,59.97145394304753,
Practice arrays/exp1a_trial_7_colour2_distractors9_r.png,r,3,,,,0,0,0,2,,,,,,,,,,,,,,,,,,,,,,,,,,,,,,,,,,,,,,,,,,,,,,,420.3088076469721,None,2,33.518731335003395,420.3088076469721,None,453.8768942099996,None,3,1,4.171704895037692,453.8768942099996,None,458.0403389320127,None,,,,,,,,,,,,,,,,,,,,,,,,,,21,001,2023_Jan_23_1115,searchDisc5,2021.2.3,59.97145394304753,
Practice arrays/exp1a_trial_0_colour1_distractors1_r.png,r,3,,,,0,1,1,0,,,,,,,,,,,,,,,,,,,,,,,,,,,,,,,,,,,,,,,,,,,,,,,460.04269259696594,None,2,1.7638821179862134,460.04269259696594,None,461.8583943619742,None,3,1,2.204920595046133,461.8583943619742,None,464.05818529298995,None,,,,,,,,,,,,,,,,,,,,,,,,,,21,001,2023_Jan_23_1115,searchDisc5,2021.2.3,59.97145394304753,
Practice arrays/exp1a_trial_1_colour1_distractors4_r.png,r,3,,,,0,2,2,1,,,,,,,,,,,,,,,,,,,,,,,,,,,,,,,,,,,,,,,,,,,,,,,466.05929840396857,None,2,1.1150471619912423,466.05929840396857,None,467.22494591999566,None,3,1,2.51929103594739,467.22494591999566,None,469.7417174910079,None,,,,,,,,,,,,,,,,,,,,,,,,,,21,001,2023_Jan_23_1115,searchDisc5,2021.2.3,59.97145394304753,
Practice arrays/exp1a_trial_8_colour2_distractors19_r.png,r,3,,,,0,3,3,3,,,,,,,,,,,,,,,,,,,,,,,,,,,,,,,,,,,,,,,,,,,,,,,471.7430081809871,None,2,2.9002762279706076,471.7430081809871,None,474.6942306010169,None,3,1,3.479900059988722,474.6942306010169,None,478.1742135430104,None,,,,,,,,,,,,,,,,,,,,,,,,,,21,001,2023_Jan_23_1115,searchDisc5,2021.2.3,59.97145394304753,
Practice arrays/exp1a_trial_16_colour1_distractors4_l.png,l,1,,,,0,4,4,13,,,,,,,,,,,,,,,,,,,,,,,,,,,,,,,,,,,,,,,,,,,,,,,480.176314826007,None,2,0.5463194740004838,480.176314826007,None,480.7754133249982,None,1,1,1.5562335710274056,480.7754133249982,None,482.3244476940017,None,,,,,,,,,,,,,,,,,,,,,,,,,,21,001,2023_Jan_23_1115,searchDisc5,2021.2.3,59.97145394304753,
Practice arrays/exp1a_trial_14_colour3_distractors31_r.png,r,3,,,,0,5,5,6,,,,,,,,,,,,,,,,,,,,,,,,,,,,,,,,,,,,,,,,,,,,,,,484.3266478650039,None,2,0.397027620987501,484.3266478650039,None,484.7746926409891,None,3,1,1.6684855720377527,484.7746926409891,None,486.44112427101936,None,,,,,,,,,,,,,,,,,,,,,,,,,,21,001,2023_Jan_23_1115,searchDisc5,2021.2.3,59.97145394304753,
Practice arrays/exp1a_trial_18_colour1_distractors19_l.png,l,1,,,,0,6,6,8,,,,,,,,,,,,,,,,,,,,,,,,,,,,,,,,,,,,,,,,,,,,,,,488.4432387800189,None,2,0.8807011399767362,488.4432387800189,None,489.37483321200125,None,1,1,1.8513635559938848,489.37483321200125,None,491.2249144479865,None,,,,,,,,,,,,,,,,,,,,,,,,,,21,001,2023_Jan_23_1115,searchDisc5,2021.2.3,59.97145394304753,
Practice arrays/exp1a_trial_25_colour3_distractors1_l.png,l,1,,,,0,7,7,11,,,,,,,,,,,,,,,,,,,,,,,,,,,,,,,,,,,,,,,,,,,,,,,493.2267944199848,None,2,0.7816556100151502,493.2267944199848,None,494.06124948797515,None,1,1,1.0876041039591655,494.06124948797515,None,495.14137126499554,None,,,,,,,,,,,,,,,,,,,,,,,,,,21,001,2023_Jan_23_1115,searchDisc5,2021.2.3,59.97145394304753,
Practice arrays/exp1a_trial_30_colour0_distractors0_r.png,r,3,,,,0,8,8,14,,,,,,,,,,,,,,,,,,,,,,,,,,,,,,,,,,,,,,,,,,,,,,,497.14359455398517,None,2,0.3803231440251693,497.14359455398517,None,497.5752626970061,None,3,1,0.7036846199771389,497.5752626970061,None,498.27587664098246,None,,,,,,,,,,,,,,,,,,,,,,,,,,21,001,2023_Jan_23_1115,searchDisc5,2021.2.3,59.97145394304753,
Practice arrays/exp1a_trial_10_colour3_distractors1_r.png,r,3,,,,0,9,9,4,,,,,,,,,,,,,,,,,,,,,,,,,,,,,,,,,,,,,,,,,,,,,,,500.27693335997174,None,2,0.8140289559960365,500.27693335997174,None,501.14379368099617,None,3,1,0.8574679680168629,501.14379368099617,None,501.992673397006,None,,,,,,,,,,,,,,,,,,,,,,,,,,21,001,2023_Jan_23_1115,searchDisc5,2021.2.3,59.97145394304753,
Practice arrays/exp1a_trial_21_colour2_distractors4_l.png,l,1,,,,0,10,10,9,,,,,,,,,,,,,,,,,,,,,,,,,,,,,,,,,,,,,,,,,,,,,,,503.9937340610195,None,2,0.4988641960080713,503.9937340610195,None,504.54395362798823,None,1,1,1.369464959949255,504.54395362798823,None,505.90811117598787,None,,,,,,,,,,,,,,,,,,,,,,,,,,21,001,2023_Jan_23_1115,searchDisc5,2021.2.3,59.97145394304753,
Practice arrays/exp1a_trial_27_colour3_distractors9_l.png,l,1,,,,0,11,11,12,,,,,,,,,,,,,,,,,,,,,,,,,,,,,,,,,,,,,,,,,,,,,,,507.91052154800855,None,2,1.1640585280256346,507.91052154800855,None,509.12581693398533,None,1,1,1.0377134580048732,509.12581693398533,None,510.1593437069678,None,,,,,,,,,,,,,,,,,,,,,,,,,,21,001,2023_Jan_23_1115,searchDisc5,2021.2.3,59.97145394304753,
Practice arrays/exp1a_trial_23_colour2_distractors19_l.png,l,1,,,,0,12,12,10,,,,,,,,,,,,,,,,,,,,,,,,,,,,,,,,,,,,,,,,,,,,,,,512.1604691809625,None,2,0.9472955240053125,512.1604691809625,None,513.1617209580145,None,1,1,2.2005883660167456,513.1617209580145,None,515.3586392319994,None,,,,,,,,,,,,,,,,,,,,,,,,,,21,001,2023_Jan_23_1115,searchDisc5,2021.2.3,59.97145394304753,
Practice arrays/exp1a_trial_12_colour3_distractors9_r.png,r,3,,,,0,13,13,5,,,,,,,,,,,,,,,,,,,,,,,,,,,,,,,,,,,,,,,,,,,,,,,517.360744052974,None,2,3.3638390980195254,517.360744052974,None,520.778483424976,None,3,1,1.0053895550081506,520.778483424976,None,521.775532611995,None,,,,,,,,,,,,,,,,,,,,,,,,,,21,001,2023_Jan_23_1115,searchDisc5,2021.2.3,59.97145394304753,
Practice arrays/exp1a_trial_31_colour0_distractors0_l.png,l,1,,,,0,14,14,15,,,,,,,,,,,,,,,,,,,,,,,,,,,,,,,,,,,,,,,,,,,,,,,523.7775054699741,None,2,0.5342258390155621,523.7775054699741,None,524.3609505890054,None,1,1,0.6724122180021368,524.3609505890054,None,525.0266017419635,None,,,,,,,,,,,,,,,,,,,,,,,,,,21,001,2023_Jan_23_1115,searchDisc5,2021.2.3,59.97145394304753,
Practice arrays/exp1a_trial_17_colour1_distractors9_l.png,l,1,,,,0,15,15,7,,,,,,,,,,,,,,,,,,,,,,,,,,,,,,,,,,,,,,,,,,,,,,,527.0276235539932,None,2,0.5468507549958304,527.0276235539932,None,527.6264374179882,None,1,1,1.086441469960846,527.6264374179882,None,528.7082820910146,None,,,,,,,,,,,,,,,,,,,,,,,,,,21,001,2023_Jan_23_1115,searchDisc5,2021.2.3,59.97145394304753,
,,,,,,,,,,,,,,,,,,,,,,,,,,,,,,,,,,,,,,,,,,,,,,,,,,,,,,,,,,,,,,,,,,,,,,,530.7942750210059,None,2,11.615683031035587,531.7612669210066,None,,,,,,,,,,,,,,,,,,,,21,001,2023_Jan_23_1115,searchDisc5,2021.2.3,59.97145394304753,
images/exp1a_trial_304_colour1_distractors4_l.png,l,1,1,4,0,,,,,0,0,0,0,,,,,,,,,,,,,,,,,,,,,,,,,,,,,,,,,,,,,,,,,,,555.2258587449905,None,2,0.6437696299981326,555.2258587449905,None,,,,,,,,,,,,,,,,543.9790717489668,None,2,9.267018370039295,545.9619254429708,None,555.9264092610101,None,1,1,1.598497043014504,555.9264092610101,None,557.5427766167675,None,None,None,None,,21,001,2023_Jan_23_1115,searchDisc5,2021.2.3,59.97145394304753,
images/exp1a_trial_50_colour1_distractors19_l.png,l,1,1,19,0,,,,,0,1,1,1,,,,,,,,,,,,,,,,,,,,,,,,,,,,,,,,,,,,,,,,,,,557.5604543969966,None,2,0.8876309670158662,557.5604543969966,None,,,,,,,,,,,,,,,,None,None,None,,None,None,558.4960385049926,563.51041300199,3,0,16.952855663956143,558.4960385049926,None,575.4443178279092,None,None,None,None,,21,001,2023_Jan_23_1115,searchDisc5,2021.2.3,59.97145394304753,
images/exp1a_trial_168_colour2_distractors19_r.png,r,3,2,19,0,,,,,0,2,2,2,,,,,,,,,,,,,,,,,,,,,,,,,,,,,,,,,,,,,,,,,,,575.461060038011,None,2,0.7355706490343437,575.461060038011,None,,,,,,,,,,,,,,,,None,None,None,,None,None,576.2447462980053,None,3,1,0.86794532998465,576.2447462980053,None,577.1113005148712,None,None,None,None,,21,001,2023_Jan_23_1115,searchDisc5,2021.2.3,59.97145394304753,
images/exp2c_trial_309_colour2_distractors4_l.png,l,1,2,4,0,,,,,0,3,3,3,,,,,,,,,,,,,,,,,,,,,,,,,,,,,,,,,,,,,,,,,,,577.1275149229914,None,2,0.7368811230408028,577.1275149229914,None,,,,,,,,,,,,,,,,None,None,None,,None,None,577.9114082789747,None,1,1,0.7718522500363179,577.9114082789747,None,578.6768031068844,None,None,None,None,,21,001,2023_Jan_23_1115,searchDisc5,2021.2.3,59.97145394304753,
images/exp1a_trial_160_colour1_distractors1_r.png,r,3,1,1,0,,,,,0,4,4,4,,,,,,,,,,,,,,,,,,,,,,,,,,,,,,,,,,,,,,,,,,,578.6953290060046,None,2,0.7052032590145245,578.6953290060046,None,,,,,,,,,,,,,,,,None,None,None,,None,None,579.4460012390045,None,3,1,0.8537951430189423,579.4460012390045,None,580.2935621778946,None,None,None,None,,21,001,2023_Jan_23_1115,searchDisc5,2021.2.3,59.97145394304753,
images/exp2b_trial_47_colour1_distractors1_l.png,l,1,1,1,0,,,,,0,5,5,5,,,,,,,,,,,,,,,,,,,,,,,,,,,,,,,,,,,,,,,,,,,580.3131074109697,None,2,0.4896430179942399,580.3131074109697,None,,,,,,,,,,,,,,,,None,None,None,,None,None,580.8459018989815,None,1,1,0.7211649399832822,580.8459018989815,None,581.560227386863,None,None,None,None,,21,001,2023_Jan_23_1115,searchDisc5,2021.2.3,59.97145394304753,
images/exp2a_trial_194_colour1_distractors9_r.png,r,3,1,9,0,,,,,0,6,6,6,,,,,,,,,,,,,,,,,,,,,,,,,,,,,,,,,,,,,,,,,,,581.5768222360057,None,2,0.43953925103414804,581.5768222360057,None,,,,,,,,,,,,,,,,None,None,None,,None,None,582.0615714699961,None,3,1,0.6865086269681342,582.0615714699961,None,582.7435813749092,None,None,None,None,,21,001,2023_Jan_23_1115,searchDisc5,2021.2.3,59.97145394304753,
images/exp2c_trial_91_colour3_distractors9_l.png,l,1,3,9,0,,,,,0,7,7,7,,,,,,,,,,,,,,,,,,,,,,,,,,,,,,,,,,,,,,,,,,,582.7624293689732,None,2,0.6900184060214087,582.7624293689732,None,,,,,,,,,,,,,,,,None,None,None,,None,None,583.4967827749788,None,1,1,1.7191480610053986,583.4967827749788,None,585.2104183778632,None,None,None,None,,21,001,2023_Jan_23_1115,searchDisc5,2021.2.3,59.97145394304753,
images/exp2b_trial_240_colour1_distractors4_l.png,l,1,1,4,0,,,,,0,8,8,8,,,,,,,,,,,,,,,,,,,,,,,,,,,,,,,,,,,,,,,,,,,585.2273314080085,None,2,0.45442853803979233,585.2273314080085,None,,,,,,,,,,,,,,,,None,None,None,,None,None,585.730483700987,None,1,1,0.8862138620461337,585.730483700987,None,586.6112214298686,None,None,None,None,,21,001,2023_Jan_23_1115,searchDisc5,2021.2.3,59.97145394304753,
images/exp2a_trial_189_colour3_distractors31_l.png,l,1,3,31,0,,,,,0,9,9,9,,,,,,,,,,,,,,,,,,,,,,,,,,,,,,,,,,,,,,,,,,,586.6290032760007,None,2,0.5878730999538675,586.6290032760007,None,,,,,,,,,,,,,,,,None,None,None,,None,None,587.2616592529812,None,1,1,0.720919088984374,587.2616592529812,None,587.9771063239081,None,None,None,None,,21,001,2023_Jan_23_1115,searchDisc5,2021.2.3,59.97145394304753,
images/exp2a_trial_309_colour2_distractors4_l.png,l,1,2,4,0,,,,,0,10,10,10,,,,,,,,,,,,,,,,,,,,,,,,,,,,,,,,,,,,,,,,,,,587.9939495360013,None,2,0.6535109269898385,587.9939495360013,None,,,,,,,,,,,,,,,,None,None,None,,None,None,588.6940998240025,None,1,1,0.7035346049815416,588.6940998240025,None,589.3937412388972,None,None,None,None,,21,001,2023_Jan_23_1115,searchDisc5,2021.2.3,59.97145394304753,
images/exp2a_trial_66_colour1_distractors9_r.png,r,3,1,9,0,,,,,0,11,11,11,,,,,,,,,,,,,,,,,,,,,,,,,,,,,,,,,,,,,,,,,,,589.4132963750162,None,2,0.45441982900956646,589.4132963750162,None,,,,,,,,,,,,,,,,None,None,None,,None,None,589.9131828419631,None,3,1,0.8217925589997321,589.9131828419631,None,590.7273071589065,None,None,None,None,,21,001,2023_Jan_23_1115,searchDisc5,2021.2.3,59.97145394304753,
images/exp2a_trial_319_colour0_distractors0_l.png,l,1,0,0,0,,,,,0,12,12,12,,,,,,,,,,,,,,,,,,,,,,,,,,,,,,,,,,,,,,,,,,,590.7446200289996,None,2,0.4728918460314162,590.7446200289996,None,,,,,,,,,,,,,,,,None,None,None,,None,None,591.2630317329895,None,1,1,0.604859909042716,591.2630317329895,None,591.8605327388854,None,None,None,None,,21,001,2023_Jan_23_1115,searchDisc5,2021.2.3,59.97145394304753,
images/exp2a_trial_287_colour0_distractors0_l.png,l,1,0,0,0,,,,,0,13,13,13,,,,,,,,,,,,,,,,,,,,,,,,,,,,,,,,,,,,,,,,,,,591.8799314849894,None,2,0.5883709450135939,591.8799314849894,None,,,,,,,,,,,,,,,,None,None,None,,None,None,592.5110864819726,None,1,1,0.5385335450409912,592.5110864819726,None,593.0429655699176,None,None,None,None,,21,001,2023_Jan_23_1115,searchDisc5,2021.2.3,59.97145394304753,
images/exp2b_trial_173_colour3_distractors19_r.png,r,3,3,19,0,,,,,0,14,14,14,,,,,,,,,,,,,,,,,,,,,,,,,,,,,,,,,,,,,,,,,,,593.0607740199775,None,2,0.33891032298561186,593.0607740199775,None,,,,,,,,,,,,,,,,None,None,None,,None,None,593.4466031920165,None,3,1,0.737436159979552,593.4466031920165,None,594.1774213419179,None,None,None,None,,21,001,2023_Jan_23_1115,searchDisc5,2021.2.3,59.97145394304753,
images/exp2b_trial_223_colour0_distractors0_l.png,l,1,0,0,0,,,,,0,15,15,15,,,,,,,,,,,,,,,,,,,,,,,,,,,,,,,,,,,,,,,,,,,594.1941917589866,None,2,0.4229146310244687,594.1941917589866,None,,,,,,,,,,,,,,,,None,None,None,,None,None,594.6601828139974,None,1,1,0.5045925219892524,594.6601828139974,None,595.1606925569125,None,None,None,None,,21,001,2023_Jan_23_1115,searchDisc5,2021.2.3,59.97145394304753,
images/exp2a_trial_125_colour3_distractors31_l.png,l,1,3,31,0,,,,,0,16,16,16,,,,,,,,,,,,,,,,,,,,,,,,,,,,,,,,,,,,,,,,,,,595.1780976770096,None,2,0.4397422320325859,595.1780976770096,None,,,,,,,,,,,,,,,,None,None,None,,None,None,595.6618415109697,None,1,1,0.7975526039954275,595.6618415109697,None,596.4603865119046,None,None,None,None,,21,001,2023_Jan_23_1115,searchDisc5,2021.2.3,59.97145394304753,
images/exp2a_trial_164_colour1_distractors31_r.png,r,3,1,31,0,,,,,0,17,17,17,,,,,,,,,,,,,,,,,,,,,,,,,,,,,,,,,,,,,,,,,,,596.4778985480079,None,2,0.4903637890238315,596.4778985480079,None,,,,,,,,,,,,,,,,None,None,None,,None,None,597.0109888309962,None,3,1,0.8499595620087348,597.0109888309962,None,597.8598108718637,None,None,None,None,,21,001,2023_Jan_23_1115,searchDisc5,2021.2.3,59.97145394304753,
images/exp2b_trial_257_colour1_distractors4_r.png,r,3,1,4,0,,,,,0,18,18,18,,,,,,,,,,,,,,,,,,,,,,,,,,,,,,,,,,,,,,,,,,,597.8781020069728,None,2,0.5387356889550574,597.8781020069728,None,,,,,,,,,,,,,,,,None,None,None,,None,None,598.4641471509822,None,3,1,0.5710616969736293,598.4641471509822,None,599.0274577078875,None,None,None,None,,21,001,2023_Jan_23_1115,searchDisc5,2021.2.3,59.97145394304753,
images/exp1a_trial_202_colour3_distractors1_r.png,r,3,3,1,0,,,,,0,19,19,19,,,,,,,,,,,,,,,,,,,,,,,,,,,,,,,,,,,,,,,,,,,599.0443658299628,None,2,0.47042315697763115,599.0443658299628,None,,,,,,,,,,,,,,,,None,None,None,,None,None,599.5611189670162,None,3,1,0.5716064959997311,599.5611189670162,None,600.1274150968878,None,None,None,None,,21,001,2023_Jan_23_1115,searchDisc5,2021.2.3,59.97145394304753,
images/exp2a_trial_282_colour3_distractors4_l.png,l,1,3,4,0,,,,,0,20,20,20,,,,,,,,,,,,,,,,,,,,,,,,,,,,,,,,,,,,,,,,,,,600.1440942269983,None,2,0.3555144550045952,600.1440942269983,None,,,,,,,,,,,,,,,,None,None,None,,None,None,600.5466374619864,None,1,1,0.5211278250208125,600.5466374619864,None,601.0604557858663,None,None,None,None,,21,001,2023_Jan_23_1115,searchDisc5,2021.2.3,59.97145394304753,
images/exp2b_trial_250_colour3_distractors4_l.png,l,1,3,4,0,,,,,0,21,21,21,,,,,,,,,,,,,,,,,,,,,,,,,,,,,,,,,,,,,,,,,,,601.076776271977,None,2,0.3874780389596708,601.076776271977,None,,,,,,,,,,,,,,,,None,None,None,,None,None,601.5132926590159,None,1,1,0.8233163310214877,601.5132926590159,None,602.3273936538957,None,None,None,None,,21,001,2023_Jan_23_1115,searchDisc5,2021.2.3,59.97145394304753,
images/exp1a_trial_52_colour2_distractors1_l.png,l,1,2,1,0,,,,,0,22,22,22,,,,,,,,,,,,,,,,,,,,,,,,,,,,,,,,,,,,,,,,,,,602.3438815029804,None,2,0.3882994910236448,602.3438815029804,None,,,,,,,,,,,,,,,,None,None,None,,None,None,602.7777232829831,None,1,1,0.555702256038785,602.7777232829831,None,603.3274558718898,None,None,None,None,,21,001,2023_Jan_23_1115,searchDisc5,2021.2.3,59.97145394304753,
images/exp1a_trial_95_colour0_distractors0_l.png,l,1,0,0,0,,,,,0,23,23,23,,,,,,,,,,,,,,,,,,,,,,,,,,,,,,,,,,,,,,,,,,,603.344219873019,None,2,0.3877950250171125,603.344219873019,None,,,,,,,,,,,,,,,,None,None,None,,None,None,603.7804508889676,None,1,1,0.4563979359809309,603.7804508889676,None,604.2275641789078,None,None,None,None,,21,001,2023_Jan_23_1115,searchDisc5,2021.2.3,59.97145394304753,
images/exp2b_trial_21_colour2_distractors4_l.png,l,1,2,4,0,,,,,0,24,24,24,,,,,,,,,,,,,,,,,,,,,,,,,,,,,,,,,,,,,,,,,,,604.246787592012,None,2,0.3554867019993253,604.246787592012,None,,,,,,,,,,,,,,,,None,None,None,,None,None,604.6467544629704,None,1,1,0.8351097169797868,604.6467544629704,None,605.4765325808897,None,None,None,None,,21,001,2023_Jan_23_1115,searchDisc5,2021.2.3,59.97145394304753,
images/exp1a_trial_93_colour3_distractors31_l.png,l,1,3,31,0,,,,,0,25,25,25,,,,,,,,,,,,,,,,,,,,,,,,,,,,,,,,,,,,,,,,,,,605.4941789219738,None,2,0.3888767250464298,605.4941789219738,None,,,,,,,,,,,,,,,,None,None,None,,None,None,605.928554299986,None,1,1,0.6356849989970215,605.928554299986,None,606.561918192869,None,None,None,None,,21,001,2023_Jan_23_1115,searchDisc5,2021.2.3,59.97145394304753,
images/exp2b_trial_86_colour2_distractors9_l.png,l,1,2,9,0,,,,,0,26,26,26,,,,,,,,,,,,,,,,,,,,,,,,,,,,,,,,,,,,,,,,,,,606.5787408379838,None,2,0.37018772395094857,606.5787408379838,None,,,,,,,,,,,,,,,,None,None,None,,None,None,606.9954424959724,None,1,1,0.5716594720142893,606.9954424959724,None,607.5609981508809,None,None,None,None,,21,001,2023_Jan_23_1115,searchDisc5,2021.2.3,59.97145394304753,
images/exp2c_trial_284_colour3_distractors19_l.png,l,1,3,19,0,,,,,0,27,27,27,,,,,,,,,,,,,,,,,,,,,,,,,,,,,,,,,,,,,,,,,,,607.5779811149696,None,2,0.42392047098837793,607.5779811149696,None,,,,,,,,,,,,,,,,None,None,None,,None,None,608.0475772249629,None,1,1,1.3509227589820512,608.0475772249629,None,609.394208239892,None,None,None,None,,21,001,2023_Jan_23_1115,searchDisc5,2021.2.3,59.97145394304753,
images/exp2c_trial_64_colour1_distractors1_r.png,r,3,1,1,0,,,,,0,28,28,28,,,,,,,,,,,,,,,,,,,,,,,,,,,,,,,,,,,,,,,,,,,609.4113376279711,None,2,0.33818344899918884,609.4113376279711,None,,,,,,,,,,,,,,,,None,None,None,,None,None,609.7953178239986,None,3,1,0.5072562849964015,609.7953178239986,None,610.2951350768911,None,None,None,None,,21,001,2023_Jan_23_1115,searchDisc5,2021.2.3,59.97145394304753,
images/exp2a_trial_274_colour1_distractors19_l.png,l,1,1,19,0,,,,,0,29,29,29,,,,,,,,,,,,,,,,,,,,,,,,,,,,,,,,,,,,,,,,,,,610.3113220829982,None,2,0.43917484395205975,610.3113220829982,None,,,,,,,,,,,,,,,,None,None,None,,None,None,610.7972435789998,None,1,1,0.803020618041046,610.7972435789998,None,611.5942881558789,None,None,None,None,,21,001,2023_Jan_23_1115,searchDisc5,2021.2.3,59.97145394304753,
images/exp2c_trial_147_colour1_distractors31_l.png,l,1,1,31,0,,,,,0,30,30,30,,,,,,,,,,,,,,,,,,,,,,,,,,,,,,,,,,,,,,,,,,,611.6110028309631,None,2,0.3536063659703359,611.6110028309631,None,,,,,,,,,,,,,,,,None,None,None,,None,None,612.0106925690197,None,1,1,0.5678500850335695,612.0106925690197,None,612.5776989788632,None,None,None,None,,21,001,2023_Jan_23_1115,searchDisc5,2021.2.3,59.97145394304753,
images/exp2b_trial_18_colour1_distractors19_l.png,l,1,1,19,0,,,,,0,31,31,31,,,,,,,,,,,,,,,,,,,,,,,,,,,,,,,,,,,,,,,,,,,612.595199214993,None,2,0.3717732909717597,612.595199214993,None,,,,,,,,,,,,,,,,None,None,None,,None,None,613.0138134330045,None,1,1,0.7703174889902584,613.0138134330045,None,613.7778563619125,None,None,None,None,,21,001,2023_Jan_23_1115,searchDisc5,2021.2.3,59.97145394304753,
images/exp2c_trial_12_colour3_distractors9_r.png,r,3,3,9,0,,,,,0,32,32,32,,,,,,,,,,,,,,,,,,,,,,,,,,,,,,,,,,,,,,,,,,,613.7951523619704,None,2,0.4376652020146139,613.7951523619704,None,,,,,,,,,,,,,,,,None,None,None,,None,None,614.2789287350024,None,3,1,0.555097266973462,614.2789287350024,None,614.8277121478808,None,None,None,None,,21,001,2023_Jan_23_1115,searchDisc5,2021.2.3,59.97145394304753,
images/exp2b_trial_119_colour2_distractors19_l.png,l,1,2,19,0,,,,,0,33,33,33,,,,,,,,,,,,,,,,,,,,,,,,,,,,,,,,,,,,,,,,,,,614.8444343729643,None,2,0.43797834805445746,614.8444343729643,None,,,,,,,,,,,,,,,,None,None,None,,None,None,615.3303314389777,None,1,1,0.5704827579902485,615.3303314389777,None,615.8944661309127,None,None,None,None,,21,001,2023_Jan_23_1115,searchDisc5,2021.2.3,59.97145394304753,
images/exp1a_trial_243_colour1_distractors31_l.png,l,1,1,31,0,,,,,0,34,34,34,,,,,,,,,,,,,,,,,,,,,,,,,,,,,,,,,,,,,,,,,,,615.9109953789739,None,2,0.30535773700103164,615.9109953789739,None,,,,,,,,,,,,,,,,None,None,None,,None,None,616.261172694969,None,1,1,3.1329865350271575,616.261172694969,None,619.3946582608972,None,None,None,None,,21,001,2023_Jan_23_1115,searchDisc5,2021.2.3,59.97145394304753,
images/exp1a_trial_117_colour2_distractors4_l.png,l,1,2,4,0,,,,,0,35,35,35,,,,,,,,,,,,,,,,,,,,,,,,,,,,,,,,,,,,,,,,,,,619.4121822189773,None,2,0.4873870590236038,619.4121822189773,None,,,,,,,,,,,,,,,,None,None,None,,None,None,619.9449318789993,None,1,1,1.1049887299886905,619.9449318789993,None,621.044479633891,None,None,None,None,,21,001,2023_Jan_23_1115,searchDisc5,2021.2.3,59.97145394304753,
images/exp2c_trial_175_colour1_distractors1_l.png,l,1,1,1,0,,,,,0,36,36,36,,,,,,,,,,,,,,,,,,,,,,,,,,,,,,,,,,,,,,,,,,,621.0618303070078,None,2,0.5882079359726049,621.0618303070078,None,,,,,,,,,,,,,,,,None,None,None,,None,None,621.6955381400185,None,1,1,0.4888103239936754,621.6955381400185,None,622.1770882468903,None,None,None,None,,21,001,2023_Jan_23_1115,searchDisc5,2021.2.3,59.97145394304753,
images/exp2c_trial_5_colour2_distractors1_r.png,r,3,2,1,0,,,,,0,37,37,37,,,,,,,,,,,,,,,,,,,,,,,,,,,,,,,,,,,,,,,,,,,622.1953701410093,None,2,0.33992947405204177,622.1953701410093,None,,,,,,,,,,,,,,,,None,None,None,,None,None,622.5786883879919,None,3,1,0.6902213539578952,622.5786883879919,None,623.2634228789015,None,None,None,None,,21,001,2023_Jan_23_1115,searchDisc5,2021.2.3,59.97145394304753,
images/exp2a_trial_1_colour1_distractors4_r.png,r,3,1,4,0,,,,,0,38,38,38,,,,,,,,,,,,,,,,,,,,,,,,,,,,,,,,,,,,,,,,,,,623.2780917399796,None,2,0.3388645359664224,623.2780917399796,None,,,,,,,,,,,,,,,,None,None,None,,None,None,623.6643531990121,None,3,1,0.770236439013388,623.6643531990121,None,624.4281150038936,None,None,None,None,,21,001,2023_Jan_23_1115,searchDisc5,2021.2.3,59.97145394304753,
images/exp2c_trial_188_colour3_distractors19_l.png,l,1,3,19,0,,,,,0,39,39,39,,,,,,,,,,,,,,,,,,,,,,,,,,,,,,,,,,,,,,,,,,,624.4457200620091,None,2,0.3708026410313323,624.4457200620091,None,,,,,,,,,,,,,,,,None,None,None,,None,None,624.8625562399975,None,1,1,0.8357091340003535,624.8625562399975,None,625.6949964918662,None,None,None,None,,21,001,2023_Jan_23_1115,searchDisc5,2021.2.3,59.97145394304753,
images/exp2a_trial_157_colour3_distractors31_l.png,l,1,3,31,0,,,,,0,40,40,40,,,,,,,,,,,,,,,,,,,,,,,,,,,,,,,,,,,,,,,,,,,625.7121938390192,None,2,0.437042131961789,625.7121938390192,None,,,,,,,,,,,,,,,,None,None,None,,None,None,626.1950877580093,None,1,1,0.5532267650123686,626.1950877580093,None,626.7445025269175,None,None,None,None,,21,001,2023_Jan_23_1115,searchDisc5,2021.2.3,59.97145394304753,
images/exp2b_trial_80_colour1_distractors4_l.png,l,1,1,4,0,,,,,0,41,41,41,,,,,,,,,,,,,,,,,,,,,,,,,,,,,,,,,,,,,,,,,,,626.7614370129886,None,2,0.3549166709999554,626.7614370129886,None,,,,,,,,,,,,,,,,None,None,None,,None,None,627.1620278949849,None,1,1,0.706159368972294,627.1620278949849,None,627.8615475129103,None,None,None,None,,21,001,2023_Jan_23_1115,searchDisc5,2021.2.3,59.97145394304753,
images/exp1a_trial_301_colour3_distractors19_r.png,r,3,3,19,0,,,,,0,42,42,42,,,,,,,,,,,,,,,,,,,,,,,,,,,,,,,,,,,,,,,,,,,627.8787133569713,None,2,0.30341968801803887,627.8787133569713,None,,,,,,,,,,,,,,,,None,None,None,,None,None,628.229487339966,None,3,1,0.568761483009439,628.229487339966,None,628.7958516299026,None,None,None,None,,21,001,2023_Jan_23_1115,searchDisc5,2021.2.3,59.97145394304753,
images/exp2b_trial_247_colour2_distractors19_l.png,l,1,2,19,0,,,,,0,43,43,43,,,,,,,,,,,,,,,,,,,,,,,,,,,,,,,,,,,,,,,,,,,628.8123707890045,None,2,0.36916362697957084,628.8123707890045,None,,,,,,,,,,,,,,,,None,None,None,,None,None,629.2306246020016,None,1,1,0.5878613219829276,629.2306246020016,None,629.811579400883,None,None,None,None,,21,001,2023_Jan_23_1115,searchDisc5,2021.2.3,59.97145394304753,
images/exp1a_trial_154_colour3_distractors4_l.png,l,1,3,4,0,,,,,0,44,44,44,,,,,,,,,,,,,,,,,,,,,,,,,,,,,,,,,,,,,,,,,,,629.8281024000025,None,2,0.32038594101322815,629.8281024000025,None,,,,,,,,,,,,,,,,None,None,None,,None,None,630.1958268340095,None,1,1,0.6903990780119784,630.1958268340095,None,630.8793433318846,None,None,None,None,,21,001,2023_Jan_23_1115,searchDisc5,2021.2.3,59.97145394304753,
images/exp2b_trial_45_colour3_distractors19_r.png,r,3,3,19,0,,,,,0,45,45,45,,,,,,,,,,,,,,,,,,,,,,,,,,,,,,,,,,,,,,,,,,,630.8956351939705,None,2,0.3534663689788431,630.8956351939705,None,,,,,,,,,,,,,,,,None,None,None,,None,None,631.2961102969712,None,3,1,0.7539298789924942,631.2961102969712,None,632.0448203438776,None,None,None,None,,21,001,2023_Jan_23_1115,searchDisc5,2021.2.3,59.97145394304753,
images/exp1a_trial_188_colour3_distractors19_l.png,l,1,3,19,0,,,,,0,46,46,46,,,,,,,,,,,,,,,,,,,,,,,,,,,,,,,,,,,,,,,,,,,632.0613450179808,None,2,0.3897287910222076,632.0613450179808,None,,,,,,,,,,,,,,,,None,None,None,,None,None,632.4978664439986,None,1,1,0.6338819619850256,632.4978664439986,None,633.1284772488638,None,None,None,None,,21,001,2023_Jan_23_1115,searchDisc5,2021.2.3,59.97145394304753,
images/exp1a_trial_250_colour3_distractors4_l.png,l,1,3,4,0,,,,,0,47,47,47,,,,,,,,,,,,,,,,,,,,,,,,,,,,,,,,,,,,,,,,,,,633.1451577689731,None,2,0.33812041202327237,633.1451577689731,None,,,,,,,,,,,,,,,,None,None,None,,None,None,633.5296925239963,None,1,1,0.5047732189996168,633.5296925239963,None,634.0283026268938,None,None,None,None,,21,001,2023_Jan_23_1115,searchDisc5,2021.2.3,59.97145394304753,
images/exp2b_trial_248_colour2_distractors31_l.png,l,1,2,31,0,,,,,0,48,48,48,,,,,,,,,,,,,,,,,,,,,,,,,,,,,,,,,,,,,,,,,,,634.0458985220175,None,2,0.3053277659928426,634.0458985220175,None,,,,,,,,,,,,,,,,None,None,None,,None,None,634.3960143040167,None,1,1,0.5686410189955495,634.3960143040167,None,634.9614257038687,None,None,None,None,,21,001,2023_Jan_23_1115,searchDisc5,2021.2.3,59.97145394304753,
images/exp2b_trial_70_colour2_distractors4_r.png,r,3,2,4,0,,,,,0,49,49,49,,,,,,,,,,,,,,,,,,,,,,,,,,,,,,,,,,,,,,,,,,,634.9785305269761,None,2,0.3068428430124186,634.9785305269761,None,,,,,,,,,,,,,,,,None,None,None,,None,None,635.3289407250122,None,3,1,0.5377945259679109,635.3289407250122,None,635.8625698368763,None,None,None,None,,21,001,2023_Jan_23_1115,searchDisc5,2021.2.3,59.97145394304753,
images/exp2b_trial_164_colour1_distractors31_r.png,r,3,1,31,0,,,,,0,50,50,50,,,,,,,,,,,,,,,,,,,,,,,,,,,,,,,,,,,,,,,,,,,635.8787686629803,None,2,0.38713010703213513,635.8787686629803,None,,,,,,,,,,,,,,,,None,None,None,,None,None,636.3149198209867,None,3,1,1.1363289430155419,636.3149198209867,None,637.4450248309062,None,None,None,None,,21,001,2023_Jan_23_1115,searchDisc5,2021.2.3,59.97145394304753,
images/exp2b_trial_2_colour1_distractors9_r.png,r,3,1,9,0,,,,,0,51,51,51,,,,,,,,,,,,,,,,,,,,,,,,,,,,,,,,,,,,,,,,,,,637.462634778989,None,2,0.3544740950455889,637.462634778989,None,,,,,,,,,,,,,,,,None,None,None,,None,None,637.8643352229847,None,3,1,0.6041749690193683,637.8643352229847,None,638.4609577958821,None,None,None,None,,21,001,2023_Jan_23_1115,searchDisc5,2021.2.3,59.97145394304753,
images/exp2b_trial_133_colour2_distractors1_r.png,r,3,2,1,0,,,,,0,52,52,52,,,,,,,,,,,,,,,,,,,,,,,,,,,,,,,,,,,,,,,,,,,638.4814264720189,None,2,0.3907335320254788,638.4814264720189,None,,,,,,,,,,,,,,,,None,None,None,,None,None,638.9126525209867,None,3,1,0.4873485410353169,638.9126525209867,None,639.3950503109139,None,None,None,None,,21,001,2023_Jan_23_1115,searchDisc5,2021.2.3,59.97145394304753,
images/exp2a_trial_240_colour1_distractors4_l.png,l,1,1,4,0,,,,,0,53,53,53,,,,,,,,,,,,,,,,,,,,,,,,,,,,,,,,,,,,,,,,,,,639.41182931402,None,2,0.35437747300602496,639.41182931402,None,,,,,,,,,,,,,,,,None,None,None,,None,None,639.8144821730093,None,1,1,0.7250319420127198,639.8144821730093,None,640.5285549768945,None,None,None,None,,21,001,2023_Jan_23_1115,searchDisc5,2021.2.3,59.97145394304753,
images/exp2c_trial_150_colour2_distractors9_l.png,l,1,2,9,0,,,,,0,54,54,54,,,,,,,,,,,,,,,,,,,,,,,,,,,,,,,,,,,,,,,,,,,640.5450936519774,None,2,0.38774923101300374,640.5450936519774,None,,,,,,,,,,,,,,,,None,None,None,,None,None,640.9792726159794,None,1,1,0.6052530879969709,640.9792726159794,None,641.5786291229073,None,None,None,None,,21,001,2023_Jan_23_1115,searchDisc5,2021.2.3,59.97145394304753,
images/exp2a_trial_230_colour2_distractors4_r.png,r,3,2,4,0,,,,,0,55,55,55,,,,,,,,,,,,,,,,,,,,,,,,,,,,,,,,,,,,,,,,,,,641.595197023009,None,2,0.3374583960394375,641.595197023009,None,,,,,,,,,,,,,,,,None,None,None,,None,None,641.9812200680026,None,3,1,0.686790250998456,641.9812200680026,None,642.6627709588851,None,None,None,None,,21,001,2023_Jan_23_1115,searchDisc5,2021.2.3,59.97145394304753,
images/exp2a_trial_127_colour0_distractors0_l.png,l,1,0,0,0,,,,,0,56,56,56,,,,,,,,,,,,,,,,,,,,,,,,,,,,,,,,,,,,,,,,,,,642.6785688759992,None,2,0.38715083099668846,642.6785688759992,None,,,,,,,,,,,,,,,,None,None,None,,None,None,643.1149343319703,None,1,1,0.49076865694951266,643.1149343319703,None,643.596260717872,None,None,None,None,,21,001,2023_Jan_23_1115,searchDisc5,2021.2.3,59.97145394304753,
images/exp2c_trial_82_colour1_distractors19_l.png,l,1,1,19,0,,,,,0,57,57,57,,,,,,,,,,,,,,,,,,,,,,,,,,,,,,,,,,,,,,,,,,,643.6141053820029,None,2,0.2710648259962909,643.6141053820029,None,,,,,,,,,,,,,,,,None,None,None,,None,None,643.9287943490199,None,1,1,0.5876583950011991,643.9287943490199,None,644.5129678788711,None,None,None,None,,21,001,2023_Jan_23_1115,searchDisc5,2021.2.3,59.97145394304753,
images/exp2b_trial_303_colour1_distractors1_l.png,l,1,1,1,0,,,,,0,58,58,58,,,,,,,,,,,,,,,,,,,,,,,,,,,,,,,,,,,,,,,,,,,644.5294571159757,None,2,0.30416813696501777,644.5294571159757,None,,,,,,,,,,,,,,,,None,None,None,,None,None,644.8795021189726,None,1,1,0.538874164049048,644.8795021189726,None,645.4112538728863,None,None,None,None,,21,001,2023_Jan_23_1115,searchDisc5,2021.2.3,59.97145394304753,
images/exp1a_trial_150_colour2_distractors9_l.png,l,1,2,9,0,,,,,0,59,59,59,,,,,,,,,,,,,,,,,,,,,,,,,,,,,,,,,,,,,,,,,,,645.4295593560091,None,2,0.30569191003451124,645.4295593560091,None,,,,,,,,,,,,,,,,None,None,None,,None,None,645.7783742779866,None,1,1,0.7380075660184957,645.7783742779866,None,646.5130123818875,None,None,None,None,,21,001,2023_Jan_23_1115,searchDisc5,2021.2.3,59.97145394304753,
images/exp2b_trial_54_colour2_distractors9_l.png,l,1,2,9,0,,,,,0,60,60,60,,,,,,,,,,,,,,,,,,,,,,,,,,,,,,,,,,,,,,,,,,,646.5296246900107,None,2,0.3030727590085007,646.5296246900107,None,,,,,,,,,,,,,,,,None,None,None,,None,None,646.8800785809872,None,1,1,0.5216017189668491,646.8800785809872,None,647.3954379168921,None,None,None,None,,21,001,2023_Jan_23_1115,searchDisc5,2021.2.3,59.97145394304753,
images/exp2b_trial_33_colour1_distractors4_r.png,r,3,1,4,0,,,,,0,61,61,61,,,,,,,,,,,,,,,,,,,,,,,,,,,,,,,,,,,,,,,,,,,647.4126250889967,None,2,0.3221863079816103,647.4126250889967,None,,,,,,,,,,,,,,,,None,None,None,,None,None,647.7789333629771,None,3,1,0.65477311599534,647.7789333629771,None,648.4287719529005,None,None,None,None,,21,001,2023_Jan_23_1115,searchDisc5,2021.2.3,59.97145394304753,
images/exp2b_trial_25_colour3_distractors1_l.png,l,1,3,1,0,,,,,0,62,62,62,,,,,,,,,,,,,,,,,,,,,,,,,,,,,,,,,,,,,,,,,,,648.4453524120036,None,2,0.35448474099393934,648.4453524120036,None,,,,,,,,,,,,,,,,None,None,None,,None,None,648.8482302509947,None,1,1,0.4898556770058349,648.8482302509947,None,649.3288085579173,None,None,None,None,,21,001,2023_Jan_23_1115,searchDisc5,2021.2.3,59.97145394304753,
images/exp2a_trial_28_colour3_distractors19_l.png,l,1,3,19,0,,,,,0,63,63,63,,,,,,,,,,,,,,,,,,,,,,,,,,,,,,,,,,,,,,,,,,,649.3460012709838,None,2,0.3219904159777798,649.3460012709838,None,,,,,,,,,,,,,,,,None,None,None,,None,None,649.7131638409919,None,1,1,0.653232584008947,649.7131638409919,None,650.3622223688639,None,None,None,None,,21,001,2023_Jan_23_1115,searchDisc5,2021.2.3,59.97145394304753,
images/exp2b_trial_310_colour2_distractors9_l.png,l,1,2,9,0,,,,,0,64,64,64,,,,,,,,,,,,,,,,,,,,,,,,,,,,,,,,,,,,,,,,,,,650.3795972130029,None,2,0.27335599798243493,650.3795972130029,None,,,,,,,,,,,,,,,,None,None,None,,None,None,650.6959446030087,None,1,1,0.5693363379687071,650.6959446030087,None,651.2620777289034,None,None,None,None,,21,001,2023_Jan_23_1115,searchDisc5,2021.2.3,59.97145394304753,
images/exp2c_trial_131_colour1_distractors19_r.png,r,3,1,19,0,,,,,0,65,65,65,,,,,,,,,,,,,,,,,,,,,,,,,,,,,,,,,,,,,,,,,,,651.2798779199948,None,2,0.3045039239805192,651.2798779199948,None,,,,,,,,,,,,,,,,None,None,None,,None,None,651.6298355240142,None,3,1,0.5533981900080107,651.6298355240142,None,652.1791023128666,None,None,None,None,,21,001,2023_Jan_23_1115,searchDisc5,2021.2.3,59.97145394304753,
images/exp2a_trial_315_colour3_distractors9_l.png,l,1,3,9,0,,,,,0,66,66,66,,,,,,,,,,,,,,,,,,,,,,,,,,,,,,,,,,,,,,,,,,,652.1954597379663,None,2,0.35659646202111617,652.1954597379663,None,,,,,,,,,,,,,,,,None,None,None,,None,None,652.5961645420175,None,1,1,0.7535522789694369,652.5961645420175,None,653.3464166008984,None,None,None,None,,21,001,2023_Jan_23_1115,searchDisc5,2021.2.3,59.97145394304753,
images/exp1a_trial_81_colour1_distractors9_l.png,l,1,1,9,0,,,,,0,67,67,67,,,,,,,,,,,,,,,,,,,,,,,,,,,,,,,,,,,,,,,,,,,653.3622660840047,None,2,0.32010391901712865,653.3622660840047,None,,,,,,,,,,,,,,,,None,None,None,,None,None,653.7298028959776,None,1,1,1.2208536959951743,653.7298028959776,None,654.9455262719188,None,None,None,None,,21,001,2023_Jan_23_1115,searchDisc5,2021.2.3,59.97145394304753,
images/exp2a_trial_318_colour0_distractors0_r.png,r,3,0,0,0,,,,,0,68,68,68,,,,,,,,,,,,,,,,,,,,,,,,,,,,,,,,,,,,,,,,,,,654.9642981520155,None,2,0.22113230399554595,654.9642981520155,None,,,,,,,,,,,,,,,,None,None,None,,None,None,655.229225247982,None,3,1,0.5893957350053824,655.229225247982,None,655.8121902819024,None,None,None,None,,21,001,2023_Jan_23_1115,searchDisc5,2021.2.3,59.97145394304753,
images/exp2c_trial_213_colour2_distractors4_l.png,l,1,2,4,0,,,,,0,69,69,69,,,,,,,,,,,,,,,,,,,,,,,,,,,,,,,,,,,,,,,,,,,655.8288999159704,None,2,0.33997128100600094,655.8288999159704,None,,,,,,,,,,,,,,,,None,None,None,,None,None,656.2145964279771,None,1,1,0.7036977020325139,656.2145964279771,None,656.9123940178891,None,None,None,None,,21,001,2023_Jan_23_1115,searchDisc5,2021.2.3,59.97145394304753,
images/exp2a_trial_292_colour1_distractors31_r.png,r,3,1,31,0,,,,,0,70,70,70,,,,,,,,,,,,,,,,,,,,,,,,,,,,,,,,,,,,,,,,,,,656.9290285939933,None,2,0.2227700869552791,656.9290285939933,None,,,,,,,,,,,,,,,,None,None,None,,None,None,657.1981828199932,None,3,1,0.6839541270164773,657.1981828199932,None,657.8789439038723,None,None,None,None,,21,001,2023_Jan_23_1115,searchDisc5,2021.2.3,59.97145394304753,
images/exp2c_trial_187_colour3_distractors9_l.png,l,1,3,9,0,,,,,0,71,71,71,,,,,,,,,,,,,,,,,,,,,,,,,,,,,,,,,,,,,,,,,,,657.8957101529813,None,2,0.3721916360082105,657.8957101529813,None,,,,,,,,,,,,,,,,None,None,None,,None,None,658.3125079380115,None,1,1,0.5537796429707669,658.3125079380115,None,658.8622414389159,None,None,None,None,,21,001,2023_Jan_23_1115,searchDisc5,2021.2.3,59.97145394304753,
images/exp2a_trial_97_colour1_distractors4_r.png,r,3,1,4,0,,,,,0,72,72,72,,,,,,,,,,,,,,,,,,,,,,,,,,,,,,,,,,,,,,,,,,,658.8794275679975,None,2,0.2713409689604305,658.8794275679975,None,,,,,,,,,,,,,,,,None,None,None,,None,None,659.1958895960124,None,3,1,0.7060073349857703,659.1958895960124,None,659.8957426118781,None,None,None,None,,21,001,2023_Jan_23_1115,searchDisc5,2021.2.3,59.97145394304753,
images/exp2a_trial_88_colour2_distractors31_l.png,l,1,2,31,0,,,,,0,73,73,73,,,,,,,,,,,,,,,,,,,,,,,,,,,,,,,,,,,,,,,,,,,659.9119930780143,None,2,0.321473806980066,659.9119930780143,None,,,,,,,,,,,,,,,,None,None,None,,None,None,660.2786035009776,None,1,1,0.9609794699936174,660.2786035009776,None,661.2457052019075,None,None,None,None,,21,001,2023_Jan_23_1115,searchDisc5,2021.2.3,59.97145394304753,
images/exp2c_trial_227_colour1_distractors19_r.png,r,3,1,19,0,,,,,0,74,74,74,,,,,,,,,,,,,,,,,,,,,,,,,,,,,,,,,,,,,,,,,,,661.2632903099875,None,2,0.3212596600060351,661.2632903099875,None,,,,,,,,,,,,,,,,None,None,None,,None,None,661.6305531149847,None,3,1,0.5200070470455103,661.6305531149847,None,662.1458220578846,None,None,None,None,,21,001,2023_Jan_23_1115,searchDisc5,2021.2.3,59.97145394304753,
images/exp2b_trial_249_colour3_distractors1_l.png,l,1,3,1,0,,,,,0,75,75,75,,,,,,,,,,,,,,,,,,,,,,,,,,,,,,,,,,,,,,,,,,,662.1631501319935,None,2,0.35413520800648257,662.1631501319935,None,,,,,,,,,,,,,,,,None,None,None,,None,None,662.5633912999765,None,1,1,0.5225670580402948,662.5633912999765,None,663.0790099819191,None,None,None,None,,21,001,2023_Jan_23_1115,searchDisc5,2021.2.3,59.97145394304753,
images/exp1a_trial_203_colour3_distractors4_r.png,r,3,3,4,0,,,,,0,76,76,76,,,,,,,,,,,,,,,,,,,,,,,,,,,,,,,,,,,,,,,,,,,663.0963368889643,None,2,0.2900366460089572,663.0963368889643,None,,,,,,,,,,,,,,,,None,None,None,,None,None,663.4321218639961,None,3,1,0.619950411026366,663.4321218639961,None,664.0458052428788,None,None,None,None,,21,001,2023_Jan_23_1115,searchDisc5,2021.2.3,59.97145394304753,
images/exp1a_trial_242_colour1_distractors19_l.png,l,1,1,19,0,,,,,0,77,77,77,,,,,,,,,,,,,,,,,,,,,,,,,,,,,,,,,,,,,,,,,,,664.0629479199997,None,2,0.3889509559958242,664.0629479199997,None,,,,,,,,,,,,,,,,None,None,None,,None,None,664.4990822260152,None,1,1,0.5843424079939723,664.4990822260152,None,665.0792061268934,None,None,None,None,,21,001,2023_Jan_23_1115,searchDisc5,2021.2.3,59.97145394304753,
images/exp2c_trial_279_colour2_distractors19_l.png,l,1,2,19,0,,,,,0,78,78,78,,,,,,,,,,,,,,,,,,,,,,,,,,,,,,,,,,,,,,,,,,,665.0964418859803,None,2,0.8047694450360723,665.0964418859803,None,,,,,,,,,,,,,,,,None,None,None,,None,None,665.9466761089861,None,1,1,0.637709182978142,665.9466761089861,None,666.578879529878,None,None,None,None,,21,001,2023_Jan_23_1115,searchDisc5,2021.2.3,59.97145394304753,
images/exp2a_trial_155_colour3_distractors9_l.png,l,1,3,9,0,,,,,0,79,79,79,,,,,,,,,,,,,,,,,,,,,,,,,,,,,,,,,,,,,,,,,,,666.5964261259651,None,2,0.2241932189790532,666.5964261259651,None,,,,,,,,,,,,,,,,None,None,None,,None,None,666.8657651679823,None,3,0,0.46853555203415453,666.8657651679823,None,667.3291541288839,None,None,None,None,,21,001,2023_Jan_23_1115,searchDisc5,2021.2.3,59.97145394304753,
images/exp2c_trial_192_colour1_distractors1_r.png,r,3,1,1,0,,,,,0,80,80,80,,,,,,,,,,,,,,,,,,,,,,,,,,,,,,,,,,,,,,,,,,,667.3459509700187,None,2,0.5910272399778478,667.3459509700187,None,,,,,,,,,,,,,,,,None,None,None,,None,None,667.9815391880111,None,3,1,0.6694303890108131,667.9815391880111,None,668.645664325892,None,None,None,None,,21,001,2023_Jan_23_1115,searchDisc5,2021.2.3,59.97145394304753,
images/exp1a_trial_167_colour2_distractors9_r.png,r,3,2,9,0,,,,,0,81,81,81,,,,,,,,,,,,,,,,,,,,,,,,,,,,,,,,,,,,,,,,,,,668.6628542710096,None,2,0.3224071210133843,668.6628542710096,None,,,,,,,,,,,,,,,,None,None,None,,None,None,669.0292125429842,None,3,1,1.2526799329789355,669.0292125429842,None,670.2792902668938,None,None,None,None,,21,001,2023_Jan_23_1115,searchDisc5,2021.2.3,59.97145394304753,
images/exp2c_trial_34_colour1_distractors9_r.png,r,3,1,9,0,,,,,0,82,82,82,,,,,,,,,,,,,,,,,,,,,,,,,,,,,,,,,,,,,,,,,,,670.2982113210019,None,2,0.4726113000069745,670.2982113210019,None,,,,,,,,,,,,,,,,None,None,None,,None,None,670.8159121120116,None,3,1,0.604639736993704,670.8159121120116,None,671.4136730188969,None,None,None,None,,21,001,2023_Jan_23_1115,searchDisc5,2021.2.3,59.97145394304753,
images/exp2a_trial_153_colour3_distractors1_l.png,l,1,3,1,0,,,,,0,83,83,83,,,,,,,,,,,,,,,,,,,,,,,,,,,,,,,,,,,,,,,,,,,671.4306621539872,None,2,0.3371036919998005,671.4306621539872,None,,,,,,,,,,,,,,,,None,None,None,,None,None,671.814915624971,None,1,1,0.506452250003349,671.814915624971,None,672.3127019948791,None,None,None,None,,21,001,2023_Jan_23_1115,searchDisc5,2021.2.3,59.97145394304753,
images/exp1a_trial_88_colour2_distractors31_l.png,l,1,2,31,0,,,,,0,84,84,84,,,,,,,,,,,,,,,,,,,,,,,,,,,,,,,,,,,,,,,,,,,672.3296252560103,None,2,0.5874752550153062,672.3296252560103,None,,,,,,,,,,,,,,,,None,None,None,,None,None,672.9629477669951,None,1,1,0.6003340540337376,672.9629477669951,None,673.5635586888878,None,None,None,None,,21,001,2023_Jan_23_1115,searchDisc5,2021.2.3,59.97145394304753,
images/exp1a_trial_262_colour2_distractors4_r.png,r,3,2,4,0,,,,,0,85,85,85,,,,,,,,,,,,,,,,,,,,,,,,,,,,,,,,,,,,,,,,,,,673.5794001750182,None,2,0.33705357200233266,673.5794001750182,None,,,,,,,,,,,,,,,,None,None,None,,None,None,673.9634168469929,None,1,0,0.5221900719916448,673.9634168469929,None,674.4794977418845,None,None,None,None,,21,001,2023_Jan_23_1115,searchDisc5,2021.2.3,59.97145394304753,
images/exp1a_trial_296_colour2_distractors19_r.png,r,3,2,19,0,,,,,0,86,86,86,,,,,,,,,,,,,,,,,,,,,,,,,,,,,,,,,,,,,,,,,,,674.4968689630041,None,2,1.021063762018457,674.4968689630041,None,,,,,,,,,,,,,,,,None,None,None,,None,None,675.5638735370012,None,3,1,0.6033286169986241,675.5638735370012,None,676.163900208869,None,None,None,None,,21,001,2023_Jan_23_1115,searchDisc5,2021.2.3,59.97145394304753,
images/exp2c_trial_85_colour2_distractors4_l.png,l,1,2,4,0,,,,,0,87,87,87,,,,,,,,,,,,,,,,,,,,,,,,,,,,,,,,,,,,,,,,,,,676.1802720719716,None,2,0.3699314490077086,676.1802720719716,None,,,,,,,,,,,,,,,,None,None,None,,None,None,676.5994540069951,None,1,1,0.5226276770117693,676.5994540069951,None,677.1128020618693,None,None,None,None,,21,001,2023_Jan_23_1115,searchDisc5,2021.2.3,59.97145394304753,
images/exp2a_trial_107_colour3_distractors4_r.png,r,3,3,4,0,,,,,0,88,88,88,,,,,,,,,,,,,,,,,,,,,,,,,,,,,,,,,,,,,,,,,,,677.1299480969901,None,2,0.2879406790016219,677.1299480969901,None,,,,,,,,,,,,,,,,None,None,None,,None,None,677.4623536900035,None,3,1,0.672393691027537,677.4623536900035,None,678.129499780864,None,None,None,None,,21,001,2023_Jan_23_1115,searchDisc5,2021.2.3,59.97145394304753,
images/exp2c_trial_234_colour3_distractors1_r.png,r,3,3,1,0,,,,,0,89,89,89,,,,,,,,,,,,,,,,,,,,,,,,,,,,,,,,,,,,,,,,,,,678.1483424229664,None,2,0.37195443897508085,678.1483424229664,None,,,,,,,,,,,,,,,,None,None,None,,None,None,678.5658771710005,None,3,1,0.6561090309987776,678.5658771710005,None,679.2127615278936,None,None,None,None,,21,001,2023_Jan_23_1115,searchDisc5,2021.2.3,59.97145394304753,
images/exp2a_trial_72_colour2_distractors19_r.png,r,3,2,19,0,,,,,0,90,90,90,,,,,,,,,,,,,,,,,,,,,,,,,,,,,,,,,,,,,,,,,,,679.2295867829816,None,2,0.38800474297022447,679.2295867829816,None,,,,,,,,,,,,,,,,None,None,None,,None,None,679.6662230479997,None,3,1,1.0001927679986693,679.6662230479997,None,680.6630605208687,None,None,None,None,,21,001,2023_Jan_23_1115,searchDisc5,2021.2.3,59.97145394304753,
images/exp2b_trial_255_colour0_distractors0_l.png,l,1,0,0,0,,,,,0,91,91,91,,,,,,,,,,,,,,,,,,,,,,,,,,,,,,,,,,,,,,,,,,,680.679602098011,None,2,0.3550435309880413,680.679602098011,None,,,,,,,,,,,,,,,,None,None,None,,None,None,681.0819983520196,None,1,1,0.822079601988662,681.0819983520196,None,681.896211816906,None,None,None,None,,21,001,2023_Jan_23_1115,searchDisc5,2021.2.3,59.97145394304753,
images/exp2b_trial_175_colour1_distractors1_l.png,l,1,1,1,0,,,,,0,92,92,92,,,,,,,,,,,,,,,,,,,,,,,,,,,,,,,,,,,,,,,,,,,681.9130098129972,None,2,0.25442719901911914,681.9130098129972,None,,,,,,,,,,,,,,,,None,None,None,,None,None,682.2132100919844,None,1,1,1.1742655779817142,682.2132100919844,None,683.3806149328942,None,None,None,None,,21,001,2023_Jan_23_1115,searchDisc5,2021.2.3,59.97145394304753,
images/exp2b_trial_40_colour2_distractors19_r.png,r,3,2,19,0,,,,,0,93,93,93,,,,,,,,,,,,,,,,,,,,,,,,,,,,,,,,,,,,,,,,,,,683.3960407449631,None,2,0.2718313549994491,683.3960407449631,None,,,,,,,,,,,,,,,,None,None,None,,None,None,683.7140862040105,None,3,1,0.5512992000440136,683.7140862040105,None,684.2630216079182,None,None,None,None,,21,001,2023_Jan_23_1115,searchDisc5,2021.2.3,59.97145394304753,
images/exp2c_trial_271_colour1_distractors1_l.png,l,1,1,1,0,,,,,0,94,94,94,,,,,,,,,,,,,,,,,,,,,,,,,,,,,,,,,,,,,,,,,,,684.2823748289957,None,2,0.3372104490408674,684.2823748289957,None,,,,,,,,,,,,,,,,None,None,None,,None,None,684.666090151004,None,1,1,0.5070186570519581,684.666090151004,None,685.1629490629188,None,None,None,None,,21,001,2023_Jan_23_1115,searchDisc5,2021.2.3,59.97145394304753,
images/exp2c_trial_247_colour2_distractors19_l.png,l,1,2,19,0,,,,,0,95,95,95,,,,,,,,,,,,,,,,,,,,,,,,,,,,,,,,,,,,,,,,,,,685.1803439059877,None,2,0.2879982710001059,685.1803439059877,None,,,,,,,,,,,,,,,,None,None,None,,None,None,685.5134958800045,None,1,1,0.6030838730512187,685.5134958800045,None,686.1124262629077,None,None,None,None,,21,001,2023_Jan_23_1115,searchDisc5,2021.2.3,59.97145394304753,
images/exp1a_trial_127_colour0_distractors0_l.png,l,1,0,0,0,,,,,0,96,96,96,,,,,,,,,,,,,,,,,,,,,,,,,,,,,,,,,,,,,,,,,,,686.1319084190181,None,2,0.3391588039812632,686.1319084190181,None,,,,,,,,,,,,,,,,None,None,None,,None,None,686.5164299529861,None,1,1,0.4890996859758161,686.5164299529861,None,686.9963599678944,None,None,None,None,,21,001,2023_Jan_23_1115,searchDisc5,2021.2.3,59.97145394304753,
images/exp2b_trial_26_colour3_distractors4_l.png,l,1,3,4,0,,,,,0,97,97,97,,,,,,,,,,,,,,,,,,,,,,,,,,,,,,,,,,,,,,,,,,,687.0131487440085,None,2,0.2888445280259475,687.0131487440085,None,,,,,,,,,,,,,,,,None,None,None,,None,None,687.3478776639677,None,1,1,0.6213542690384202,687.3478776639677,None,687.9630376219051,None,None,None,None,,21,001,2023_Jan_23_1115,searchDisc5,2021.2.3,59.97145394304753,
images/exp2a_trial_83_colour1_distractors31_l.png,l,1,1,31,0,,,,,0,98,98,98,,,,,,,,,,,,,,,,,,,,,,,,,,,,,,,,,,,,,,,,,,,687.9797873930074,None,2,0.28764899098314345,687.9797873930074,None,,,,,,,,,,,,,,,,None,None,None,,None,None,688.3133834460168,None,1,1,0.5709603570285253,688.3133834460168,None,688.87979539691,None,None,None,None,,21,001,2023_Jan_23_1115,searchDisc5,2021.2.3,59.97145394304753,
images/exp2b_trial_101_colour2_distractors1_r.png,r,3,2,1,0,,,,,0,99,99,99,,,,,,,,,,,,,,,,,,,,,,,,,,,,,,,,,,,,,,,,,,,688.8957747719833,None,2,0.27008528204169124,688.8957747719833,None,,,,,,,,,,,,,,,,None,None,None,,None,None,689.2130840659956,None,1,0,0.4561566120246425,689.2130840659956,None,689.6624870028812,None,None,None,None,,21,001,2023_Jan_23_1115,searchDisc5,2021.2.3,59.97145394304753,
images/exp2b_trial_3_colour1_distractors19_r.png,r,3,1,19,0,,,,,0,100,100,100,,,,,,,,,,,,,,,,,,,,,,,,,,,,,,,,,,,,,,,,,,,689.679954488005,None,2,0.705119690974243,689.679954488005,None,,,,,,,,,,,,,,,,None,None,None,,None,None,690.4293982830131,None,3,1,1.6547234479803592,690.4293982830131,None,692.079865192913,None,None,None,None,,21,001,2023_Jan_23_1115,searchDisc5,2021.2.3,59.97145394304753,
images/exp1a_trial_281_colour3_distractors1_l.png,l,1,3,1,0,,,,,0,101,101,101,,,,,,,,,,,,,,,,,,,,,,,,,,,,,,,,,,,,,,,,,,,692.0987693819916,None,2,0.47195791895501316,692.0987693819916,None,,,,,,,,,,,,,,,,None,None,None,,None,None,692.6164414020022,None,1,1,0.5388053019996732,692.6164414020022,None,693.1466192498686,None,None,None,None,,21,001,2023_Jan_23_1115,searchDisc5,2021.2.3,59.97145394304753,
images/exp2b_trial_196_colour1_distractors31_r.png,r,3,1,31,0,,,,,0,102,102,102,,,,,,,,,,,,,,,,,,,,,,,,,,,,,,,,,,,,,,,,,,,693.1634761799942,None,2,0.33787751296767965,693.1634761799942,None,,,,,,,,,,,,,,,,None,None,None,,None,None,693.547732603969,None,3,1,1.7363991860183887,693.547732603969,None,695.2799810908967,None,None,None,None,,21,001,2023_Jan_23_1115,searchDisc5,2021.2.3,59.97145394304753,
images/exp1a_trial_107_colour3_distractors4_r.png,r,3,3,4,0,,,,,0,103,103,103,,,,,,,,,,,,,,,,,,,,,,,,,,,,,,,,,,,,,,,,,,,695.2967782450141,None,2,0.6221638160059229,695.2967782450141,None,,,,,,,,,,,,,,,,None,None,None,,None,None,695.9638776080101,None,3,1,0.703661702980753,695.9638776080101,None,696.6633978069061,None,None,None,None,,21,001,2023_Jan_23_1115,searchDisc5,2021.2.3,59.97145394304753,
images/exp1a_trial_207_colour1_distractors1_l.png,l,1,1,1,0,,,,,0,104,104,104,,,,,,,,,,,,,,,,,,,,,,,,,,,,,,,,,,,,,,,,,,,696.6810813060147,None,2,0.3885726309963502,696.6810813060147,None,,,,,,,,,,,,,,,,None,None,None,,None,None,697.1136080980068,None,1,1,1.1212015220080502,697.1136080980068,None,698.2294986968976,None,None,None,None,,21,001,2023_Jan_23_1115,searchDisc5,2021.2.3,59.97145394304753,
images/exp2b_trial_0_colour1_distractors1_r.png,r,3,1,1,0,,,,,0,105,105,105,,,,,,,,,,,,,,,,,,,,,,,,,,,,,,,,,,,,,,,,,,,698.2470502380165,None,2,0.24057578202337027,698.2470502380165,None,,,,,,,,,,,,,,,,None,None,None,,None,None,698.5332498470088,None,3,1,0.8716809910256416,698.5332498470088,None,699.3963900828734,None,None,None,None,,21,001,2023_Jan_23_1115,searchDisc5,2021.2.3,59.97145394304753,
images/exp1a_trial_316_colour3_distractors19_l.png,l,1,3,19,0,,,,,0,106,106,106,,,,,,,,,,,,,,,,,,,,,,,,,,,,,,,,,,,,,,,,,,,699.4128865979728,None,2,0.38786195998545736,699.4128865979728,None,,,,,,,,,,,,,,,,None,None,None,,None,None,699.8498795579653,None,1,1,0.48394533403916284,699.8498795579653,None,700.3303004958783,None,None,None,None,,21,001,2023_Jan_23_1115,searchDisc5,2021.2.3,59.97145394304753,
images/exp2b_trial_61_colour3_distractors31_l.png,l,1,3,31,0,,,,,0,107,107,107,,,,,,,,,,,,,,,,,,,,,,,,,,,,,,,,,,,,,,,,,,,700.3477934569819,None,2,0.387633613019716,700.3477934569819,None,,,,,,,,,,,,,,,,None,None,None,,None,None,700.78263019101,None,1,1,0.9211039670044556,700.78263019101,None,701.6978339729015,None,None,None,None,,21,001,2023_Jan_23_1115,searchDisc5,2021.2.3,59.97145394304753,
images/exp2a_trial_45_colour3_distractors19_r.png,r,3,3,19,0,,,,,0,108,108,108,,,,,,,,,,,,,,,,,,,,,,,,,,,,,,,,,,,,,,,,,,,701.7166402449948,None,2,0.35734393901657313,701.7166402449948,None,,,,,,,,,,,,,,,,None,None,None,,None,None,702.1159313049866,None,3,1,0.716068122012075,702.1159313049866,None,702.830089075875,None,None,None,None,,21,001,2023_Jan_23_1115,searchDisc5,2021.2.3,59.97145394304753,
images/exp2b_trial_275_colour1_distractors31_l.png,l,1,1,31,0,,,,,0,109,109,109,,,,,,,,,,,,,,,,,,,,,,,,,,,,,,,,,,,,,,,,,,,702.8477480110014,None,2,0.4546284220414236,702.8477480110014,None,,,,,,,,,,,,,,,,None,None,None,,None,None,703.347475491988,None,1,1,1.0696139080100693,703.347475491988,None,704.4136421308853,None,None,None,None,,21,001,2023_Jan_23_1115,searchDisc5,2021.2.3,59.97145394304753,
images/exp2a_trial_281_colour3_distractors1_l.png,l,1,3,1,0,,,,,0,110,110,110,,,,,,,,,,,,,,,,,,,,,,,,,,,,,,,,,,,,,,,,,,,704.4304578320007,None,2,0.3213099139975384,704.4304578320007,None,,,,,,,,,,,,,,,,None,None,None,,None,None,704.7982174740173,None,1,1,0.506195111956913,704.7982174740173,None,705.2969358609174,None,None,None,None,,21,001,2023_Jan_23_1115,searchDisc5,2021.2.3,59.97145394304753,
images/exp1a_trial_302_colour3_distractors31_r.png,r,3,3,31,0,,,,,0,111,111,111,,,,,,,,,,,,,,,,,,,,,,,,,,,,,,,,,,,,,,,,,,,705.313688802009,None,2,0.30537859798641875,705.313688802009,None,,,,,,,,,,,,,,,,None,None,None,,None,None,705.6640591729665,None,3,1,0.8828775380388834,705.6640591729665,None,706.5469631468644,None,None,None,None,,21,001,2023_Jan_23_1115,searchDisc5,2021.2.3,59.97145394304753,
images/exp2b_trial_297_colour2_distractors31_r.png,r,3,2,31,0,,,,,0,112,112,112,,,,,,,,,,,,,,,,,,,,,,,,,,,,,,,,,,,,,,,,,,,706.5665299469838,None,2,0.42202564398758113,706.5665299469838,None,,,,,,,,,,,,,,,,None,None,None,,None,None,707.0330367949791,None,3,1,0.9521164399920963,707.0330367949791,None,707.9805720199132,None,None,None,None,,21,001,2023_Jan_23_1115,searchDisc5,2021.2.3,59.97145394304753,
images/exp2a_trial_60_colour3_distractors19_l.png,l,1,3,19,0,,,,,0,113,113,113,,,,,,,,,,,,,,,,,,,,,,,,,,,,,,,,,,,,,,,,,,,708.0000487329671,None,2,0.5378260730067268,708.0000487329671,None,,,,,,,,,,,,,,,,None,None,None,,None,None,708.5812065780046,None,1,1,0.8217510420363396,708.5812065780046,None,709.3970249728649,None,None,None,None,,21,001,2023_Jan_23_1115,searchDisc5,2021.2.3,59.97145394304753,
images/exp2a_trial_17_colour1_distractors9_l.png,l,1,1,9,0,,,,,0,114,114,114,,,,,,,,,,,,,,,,,,,,,,,,,,,,,,,,,,,,,,,,,,,709.4145133059938,None,2,0.23804310703417286,709.4145133059938,None,,,,,,,,,,,,,,,,None,None,None,,None,None,709.6977314520045,None,1,1,0.5213437789934687,709.6977314520045,None,710.2137207868858,None,None,None,None,,21,001,2023_Jan_23_1115,searchDisc5,2021.2.3,59.97145394304753,
images/exp1a_trial_270_colour3_distractors31_r.png,r,3,3,31,0,,,,,0,115,115,115,,,,,,,,,,,,,,,,,,,,,,,,,,,,,,,,,,,,,,,,,,,710.230788588,None,2,0.37109879503259435,710.230788588,None,,,,,,,,,,,,,,,,None,None,None,,None,None,710.6494990299689,None,3,1,0.8669339279877022,710.6494990299689,None,711.5147339958697,None,None,None,None,,21,001,2023_Jan_23_1115,searchDisc5,2021.2.3,59.97145394304753,
images/exp2a_trial_86_colour2_distractors9_l.png,l,1,2,9,0,,,,,0,116,116,116,,,,,,,,,,,,,,,,,,,,,,,,,,,,,,,,,,,,,,,,,,,711.5315039039706,None,2,0.7186796690220945,711.5315039039706,None,,,,,,,,,,,,,,,,None,None,None,,None,None,712.2978834899841,None,1,1,0.801793115970213,712.2978834899841,None,713.0971951858722,None,None,None,None,,21,001,2023_Jan_23_1115,searchDisc5,2021.2.3,59.97145394304753,
images/exp2a_trial_302_colour3_distractors31_r.png,r,3,3,31,0,,,,,0,117,117,117,,,,,,,,,,,,,,,,,,,,,,,,,,,,,,,,,,,,,,,,,,,713.1167489169748,None,2,0.33980524697108194,713.1167489169748,None,,,,,,,,,,,,,,,,None,None,None,,None,None,713.5003392939689,None,3,1,0.8189150420366786,713.5003392939689,None,714.3148495128611,None,None,None,None,,21,001,2023_Jan_23_1115,searchDisc5,2021.2.3,59.97145394304753,
images/exp2a_trial_161_colour1_distractors4_r.png,r,3,1,4,0,,,,,0,118,118,118,,,,,,,,,,,,,,,,,,,,,,,,,,,,,,,,,,,,,,,,,,,714.3298819289776,None,2,0.555341886007227,714.3298819289776,None,,,,,,,,,,,,,,,,None,None,None,,None,None,714.9300101649715,None,3,1,0.5875942030106671,714.9300101649715,None,715.5138917488861,None,None,None,None,,21,001,2023_Jan_23_1115,searchDisc5,2021.2.3,59.97145394304753,
images/exp2a_trial_314_colour3_distractors4_l.png,l,1,3,4,0,,,,,0,119,119,119,,,,,,,,,,,,,,,,,,,,,,,,,,,,,,,,,,,,,,,,,,,715.5307706769672,None,2,0.7209827619954012,715.5307706769672,None,,,,,,,,,,,,,,,,None,None,None,,None,None,716.29972239997,None,1,1,0.9214211680227891,716.29972239997,None,717.2141243698774,None,None,None,None,,21,001,2023_Jan_23_1115,searchDisc5,2021.2.3,59.97145394304753,
images/exp2c_trial_258_colour1_distractors9_r.png,r,3,1,9,0,,,,,0,120,120,120,,,,,,,,,,,,,,,,,,,,,,,,,,,,,,,,,,,,,,,,,,,717.231576805003,None,2,0.38871257402934134,717.231576805003,None,,,,,,,,,,,,,,,,None,None,None,,None,None,717.6663068989874,None,3,1,0.736277437012177,717.6663068989874,None,718.3966570789111,None,None,None,None,,21,001,2023_Jan_23_1115,searchDisc5,2021.2.3,59.97145394304753,
images/exp2c_trial_176_colour1_distractors4_l.png,l,1,1,4,0,,,,,0,121,121,121,,,,,,,,,,,,,,,,,,,,,,,,,,,,,,,,,,,,,,,,,,,718.4150345319649,None,2,0.4893532590358518,718.4150345319649,None,,,,,,,,,,,,,,,,None,None,None,,None,None,718.9485993839917,None,1,1,0.5385130760259926,718.9485993839917,None,719.4806647649151,None,None,None,None,,21,001,2023_Jan_23_1115,searchDisc5,2021.2.3,59.97145394304753,
images/exp1a_trial_82_colour1_distractors19_l.png,l,1,1,19,0,,,,,0,122,122,122,,,,,,,,,,,,,,,,,,,,,,,,,,,,,,,,,,,,,,,,,,,719.4975381090189,None,2,1.072279812011402,719.4975381090189,None,,,,,,,,,,,,,,,,None,None,None,,None,None,720.6164161359775,None,1,1,1.0029032710008323,720.6164161359775,None,721.6140166558674,None,None,None,None,,21,001,2023_Jan_23_1115,searchDisc5,2021.2.3,59.97145394304753,
images/exp2a_trial_238_colour3_distractors31_r.png,r,3,3,31,0,,,,,0,123,123,123,,,,,,,,,,,,,,,,,,,,,,,,,,,,,,,,,,,,,,,,,,,721.6319751919946,None,2,0.5383039229782298,721.6319751919946,None,,,,,,,,,,,,,,,,None,None,None,,None,None,722.2153953809757,None,3,1,0.7688352690311149,722.2153953809757,None,722.9828760908916,None,None,None,None,,21,001,2023_Jan_23_1115,searchDisc5,2021.2.3,59.97145394304753,
images/exp2c_trial_31_colour0_distractors0_l.png,l,1,0,0,0,,,,,0,124,124,124,,,,,,,,,,,,,,,,,,,,,,,,,,,,,,,,,,,,,,,,,,,722.9981936970144,None,2,0.3883168150205165,722.9981936970144,None,,,,,,,,,,,,,,,,None,None,None,,None,None,723.431219119986,None,1,1,0.6540374709875323,723.431219119986,None,724.0808322608704,None,None,None,None,,21,001,2023_Jan_23_1115,searchDisc5,2021.2.3,59.97145394304753,
images/exp2b_trial_218_colour3_distractors4_l.png,l,1,3,4,0,,,,,0,125,125,125,,,,,,,,,,,,,,,,,,,,,,,,,,,,,,,,,,,,,,,,,,,724.0980782069964,None,2,0.27127511898288503,724.0980782069964,None,,,,,,,,,,,,,,,,None,None,None,,None,None,724.4154217100004,None,1,1,0.7392561680171639,724.4154217100004,None,725.1474645929178,None,None,None,None,,21,001,2023_Jan_23_1115,searchDisc5,2021.2.3,59.97145394304753,
images/exp2c_trial_56_colour2_distractors31_l.png,l,1,2,31,0,,,,,0,126,126,126,,,,,,,,,,,,,,,,,,,,,,,,,,,,,,,,,,,,,,,,,,,725.1670723279822,None,2,0.3209997719968669,725.1670723279822,None,,,,,,,,,,,,,,,,None,None,None,,None,None,725.5333205609932,None,1,1,0.7045198649866506,725.5333205609932,None,726.2318672378664,None,None,None,None,,21,001,2023_Jan_23_1115,searchDisc5,2021.2.3,59.97145394304753,
images/exp1a_trial_69_colour2_distractors1_r.png,r,3,2,1,0,,,,,0,127,127,127,,,,,,,,,,,,,,,,,,,,,,,,,,,,,,,,,,,,,,,,,,,726.2474055789644,None,2,0.3384662570315413,726.2474055789644,None,,,,,,,,,,,,,,,,None,None,None,,None,None,726.6315713970107,None,3,1,0.6704750670469366,726.6315713970107,None,727.297527120891,None,None,None,None,,21,001,2023_Jan_23_1115,searchDisc5,2021.2.3,59.97145394304753,
images/exp1a_trial_114_colour1_distractors19_l.png,l,1,1,19,0,,,,,0,128,128,128,,,,,,,,,,,,,,,,,,,,,,,,,,,,,,,,,,,,,,,,,,,727.3144611839671,None,2,0.3888218980282545,727.3144611839671,None,,,,,,,,,,,,,,,,None,None,None,,None,None,727.7494641660014,None,1,1,0.8344439449720085,727.7494641660014,None,728.5810675289016,None,None,None,None,,21,001,2023_Jan_23_1115,searchDisc5,2021.2.3,59.97145394304753,
images/exp1a_trial_29_colour3_distractors31_l.png,l,1,3,31,0,,,,,0,129,129,129,,,,,,,,,,,,,,,,,,,,,,,,,,,,,,,,,,,,,,,,,,,728.5968931029784,None,2,0.3390528099844232,728.5968931029784,None,,,,,,,,,,,,,,,,None,None,None,,None,None,728.9818169159698,None,1,1,0.6330042619956657,728.9818169159698,None,729.6143547309097,None,None,None,None,,21,001,2023_Jan_23_1115,searchDisc5,2021.2.3,59.97145394304753,
images/exp2c_trial_231_colour2_distractors9_r.png,r,3,2,9,0,,,,,0,130,130,130,,,,,,,,,,,,,,,,,,,,,,,,,,,,,,,,,,,,,,,,,,,729.631005763018,None,2,0.28880048502469435,729.631005763018,None,,,,,,,,,,,,,,,,None,None,None,,None,None,729.9657896599965,None,3,1,0.7036789020057768,729.9657896599965,None,730.6641600838979,None,None,None,None,,21,001,2023_Jan_23_1115,searchDisc5,2021.2.3,59.97145394304753,
images/exp2b_trial_204_colour3_distractors9_r.png,r,3,3,9,0,,,,,0,131,131,131,,,,,,,,,,,,,,,,,,,,,,,,,,,,,,,,,,,,,,,,,,,730.681021913013,None,2,0.3552071809535846,730.681021913013,None,,,,,,,,,,,,,,,,None,None,None,,None,None,731.0834919759654,None,3,1,1.1562066990300082,731.0834919759654,None,732.2331438169116,None,None,None,None,,21,001,2023_Jan_23_1115,searchDisc5,2021.2.3,59.97145394304753,
images/exp2a_trial_313_colour3_distractors1_l.png,l,1,3,1,0,,,,,0,132,132,132,,,,,,,,,,,,,,,,,,,,,,,,,,,,,,,,,,,,,,,,,,,732.2484677360044,None,2,0.5353476700256579,732.2484677360044,None,,,,,,,,,,,,,,,,None,None,None,,None,None,732.8321987059899,None,1,1,0.5395972430123948,732.8321987059899,None,733.3644214158761,None,None,None,None,,21,001,2023_Jan_23_1115,searchDisc5,2021.2.3,59.97145394304753,
images/exp2a_trial_69_colour2_distractors1_r.png,r,3,2,1,0,,,,,0,133,133,133,,,,,,,,,,,,,,,,,,,,,,,,,,,,,,,,,,,,,,,,,,,733.381374768971,None,2,0.27209410100476816,733.381374768971,None,,,,,,,,,,,,,,,,None,None,None,,None,None,733.6972689419636,None,3,1,0.6712976630078629,733.6972689419636,None,734.364412128902,None,None,None,None,,21,001,2023_Jan_23_1115,searchDisc5,2021.2.3,59.97145394304753,
images/exp2c_trial_80_colour1_distractors4_l.png,l,1,1,4,0,,,,,0,134,134,134,,,,,,,,,,,,,,,,,,,,,,,,,,,,,,,,,,,,,,,,,,,734.3802246599807,None,2,0.388878533965908,734.3802246599807,None,,,,,,,,,,,,,,,,None,None,None,,None,None,734.8171452789684,None,1,1,0.7214369770372286,734.8171452789684,None,735.5312343538739,None,None,None,None,,21,001,2023_Jan_23_1115,searchDisc5,2021.2.3,59.97145394304753,
images/exp2a_trial_46_colour3_distractors31_r.png,r,3,3,31,0,,,,,0,135,135,135,,,,,,,,,,,,,,,,,,,,,,,,,,,,,,,,,,,,,,,,,,,735.5505897749681,None,2,0.3212481529917568,735.5505897749681,None,,,,,,,,,,,,,,,,None,None,None,,None,None,735.9172896160162,None,3,1,0.8190325179602951,735.9172896160162,None,736.730473942915,None,None,None,None,,21,001,2023_Jan_23_1115,searchDisc5,2021.2.3,59.97145394304753,
images/exp1a_trial_294_colour2_distractors4_r.png,r,3,2,4,0,,,,,0,136,136,136,,,,,,,,,,,,,,,,,,,,,,,,,,,,,,,,,,,,,,,,,,,736.7484108979697,None,2,0.38861619599629194,736.7484108979697,None,,,,,,,,,,,,,,,,None,None,None,,None,None,737.1836334969848,None,3,1,0.5548006130266003,737.1836334969848,None,737.73116693591,None,None,None,None,,21,001,2023_Jan_23_1115,searchDisc5,2021.2.3,59.97145394304753,
images/exp2a_trial_310_colour2_distractors9_l.png,l,1,2,9,0,,,,,0,137,137,137,,,,,,,,,,,,,,,,,,,,,,,,,,,,,,,,,,,,,,,,,,,737.7490230469848,None,2,0.3919001489994116,737.7490230469848,None,,,,,,,,,,,,,,,,None,None,None,,None,None,738.1814557010075,None,1,1,0.5977496440173127,738.1814557010075,None,738.781205304875,None,None,None,None,,21,001,2023_Jan_23_1115,searchDisc5,2021.2.3,59.97145394304753,
images/exp2b_trial_125_colour3_distractors31_l.png,l,1,3,31,0,,,,,0,138,138,138,,,,,,,,,,,,,,,,,,,,,,,,,,,,,,,,,,,,,,,,,,,738.7979762079776,None,2,0.2554536710376851,738.7979762079776,None,,,,,,,,,,,,,,,,None,None,None,,None,None,739.098943082965,None,1,1,0.7358168879873119,739.098943082965,None,739.8312656898983,None,None,None,None,,21,001,2023_Jan_23_1115,searchDisc5,2021.2.3,59.97145394304753,
images/exp1a_trial_222_colour0_distractors0_r.png,r,3,0,0,0,,,,,0,139,139,139,,,,,,,,,,,,,,,,,,,,,,,,,,,,,,,,,,,,,,,,,,,739.848673378001,None,2,0.25679267797386274,739.848673378001,None,,,,,,,,,,,,,,,,None,None,None,,None,None,740.1505217759986,None,3,1,0.7706550530274399,740.1505217759986,None,740.9145830748952,None,None,None,None,,21,001,2023_Jan_23_1115,searchDisc5,2021.2.3,59.97145394304753,
images/exp2c_trial_239_colour1_distractors1_l.png,l,1,1,1,0,,,,,0,140,140,140,,,,,,,,,,,,,,,,,,,,,,,,,,,,,,,,,,,,,,,,,,,740.9319743440137,None,2,0.3231465010321699,740.9319743440137,None,,,,,,,,,,,,,,,,None,None,None,,None,None,741.299063665967,None,1,1,0.6559452249784954,741.299063665967,None,741.9480725218658,None,None,None,None,,21,001,2023_Jan_23_1115,searchDisc5,2021.2.3,59.97145394304753,
images/exp2a_trial_312_colour2_distractors31_l.png,l,1,2,31,0,,,,,0,141,141,141,,,,,,,,,,,,,,,,,,,,,,,,,,,,,,,,,,,,,,,,,,,741.9643857739866,None,2,0.25367138598812744,741.9643857739866,None,,,,,,,,,,,,,,,,None,None,None,,None,None,742.2645662120194,None,1,1,1.261717774963472,742.2645662120194,None,743.5314325659186,None,None,None,None,,21,001,2023_Jan_23_1115,searchDisc5,2021.2.3,59.97145394304753,
images/exp2c_trial_225_colour1_distractors4_r.png,r,3,1,4,0,,,,,0,142,142,142,,,,,,,,,,,,,,,,,,,,,,,,,,,,,,,,,,,,,,,,,,,743.5489461760153,None,2,0.255666050943546,743.5489461760153,None,,,,,,,,,,,,,,,,None,None,None,,None,None,743.8488221699954,None,3,1,0.7214208059594966,743.8488221699954,None,744.5647420309018,None,None,None,None,,21,001,2023_Jan_23_1115,searchDisc5,2021.2.3,59.97145394304753,
images/exp2a_trial_6_colour2_distractors4_r.png,r,3,2,4,0,,,,,0,143,143,143,,,,,,,,,,,,,,,,,,,,,,,,,,,,,,,,,,,,,,,,,,,744.5823155099642,None,2,0.40659601701190695,744.5823155099642,None,,,,,,,,,,,,,,,,None,None,None,,None,None,745.031812982983,None,3,1,0.9016244139638729,745.031812982983,None,745.9314505298738,None,None,None,None,,21,001,2023_Jan_23_1115,searchDisc5,2021.2.3,59.97145394304753,
images/exp1a_trial_100_colour1_distractors31_r.png,r,3,1,31,0,,,,,0,144,144,144,,,,,,,,,,,,,,,,,,,,,,,,,,,,,,,,,,,,,,,,,,,745.9481248359662,None,2,0.3052493020077236,745.9481248359662,None,,,,,,,,,,,,,,,,None,None,None,,None,None,746.2985617159866,None,3,1,1.8314993840176612,746.2985617159866,None,748.1308751438977,None,None,None,None,,21,001,2023_Jan_23_1115,searchDisc5,2021.2.3,59.97145394304753,
images/exp2a_trial_110_colour3_distractors31_r.png,r,3,3,31,0,,,,,0,145,145,145,,,,,,,,,,,,,,,,,,,,,,,,,,,,,,,,,,,,,,,,,,,748.1492041869787,None,2,0.43934605503454804,748.1492041869787,None,,,,,,,,,,,,,,,,None,None,None,,None,None,748.6320201340131,None,3,1,0.8526590460096486,748.6320201340131,None,749.4822604799177,None,None,None,None,,21,001,2023_Jan_23_1115,searchDisc5,2021.2.3,59.97145394304753,
images/exp1a_trial_194_colour1_distractors9_r.png,r,3,1,9,0,,,,,0,146,146,146,,,,,,,,,,,,,,,,,,,,,,,,,,,,,,,,,,,,,,,,,,,749.4988919959869,None,2,0.48681219504214823,749.4988919959869,None,,,,,,,,,,,,,,,,None,None,None,,None,None,750.0324002769776,None,3,1,0.9038240420049988,750.0324002769776,None,750.931521292869,None,None,None,None,,21,001,2023_Jan_23_1115,searchDisc5,2021.2.3,59.97145394304753,
images/exp2c_trial_264_colour2_distractors19_r.png,r,3,2,19,0,,,,,0,147,147,147,,,,,,,,,,,,,,,,,,,,,,,,,,,,,,,,,,,,,,,,,,,750.9482465079636,None,2,0.4381978730089031,750.9482465079636,None,,,,,,,,,,,,,,,,None,None,None,,None,None,751.4326725809951,None,3,1,0.7032670329790562,751.4326725809951,None,752.1315502308775,None,None,None,None,,21,001,2023_Jan_23_1115,searchDisc5,2021.2.3,59.97145394304753,
images/exp1a_trial_15_colour1_distractors1_l.png,l,1,1,1,0,,,,,0,148,148,148,,,,,,,,,,,,,,,,,,,,,,,,,,,,,,,,,,,,,,,,,,,752.1488691099803,None,2,0.3909645200474188,752.1488691099803,None,,,,,,,,,,,,,,,,None,None,None,,None,None,752.5845608359668,None,1,1,0.8027919430169277,752.5845608359668,None,753.3815825058613,None,None,None,None,,21,001,2023_Jan_23_1115,searchDisc5,2021.2.3,59.97145394304753,
images/exp2a_trial_100_colour1_distractors31_r.png,r,3,1,31,0,,,,,0,149,149,149,,,,,,,,,,,,,,,,,,,,,,,,,,,,,,,,,,,,,,,,,,,753.3984802209889,None,2,0.27363616303773597,753.3984802209889,None,,,,,,,,,,,,,,,,None,None,None,,None,None,753.7152602070128,None,3,1,0.7188188459840603,753.7152602070128,None,754.4337398808915,None,None,None,None,,21,001,2023_Jan_23_1115,searchDisc5,2021.2.3,59.97145394304753,
images/exp1a_trial_34_colour1_distractors9_r.png,r,3,1,9,0,,,,,0,150,150,150,,,,,,,,,,,,,,,,,,,,,,,,,,,,,,,,,,,,,,,,,,,754.4511606330052,None,2,0.40070546203060076,754.4511606330052,None,,,,,,,,,,,,,,,,None,None,None,,None,None,754.8987587490119,None,3,1,1.3722705339896493,754.8987587490119,None,756.2659723278833,None,None,None,None,,21,001,2023_Jan_23_1115,searchDisc5,2021.2.3,59.97145394304753,
images/exp2a_trial_42_colour3_distractors1_r.png,r,3,3,1,0,,,,,0,151,151,151,,,,,,,,,,,,,,,,,,,,,,,,,,,,,,,,,,,,,,,,,,,756.2817190829664,None,2,0.386831128038466,756.2817190829664,None,,,,,,,,,,,,,,,,None,None,None,,None,None,756.7181365399738,None,3,1,0.5222025769762695,756.7181365399738,None,757.2317128669005,None,None,None,None,,21,001,2023_Jan_23_1115,searchDisc5,2021.2.3,59.97145394304753,
images/exp1a_trial_6_colour2_distractors4_r.png,r,3,2,4,0,,,,,0,152,152,152,,,,,,,,,,,,,,,,,,,,,,,,,,,,,,,,,,,,,,,,,,,757.2490413009655,None,2,0.3223038089927286,757.2490413009655,None,,,,,,,,,,,,,,,,None,None,None,,None,None,757.6182985070045,None,3,1,0.6709274229942821,757.6182985070045,None,758.2818159849033,None,None,None,None,,21,001,2023_Jan_23_1115,searchDisc5,2021.2.3,59.97145394304753,
images/exp2c_trial_289_colour1_distractors4_r.png,r,3,1,4,0,,,,,0,153,153,153,,,,,,,,,,,,,,,,,,,,,,,,,,,,,,,,,,,,,,,,,,,758.2992007069988,None,2,0.2888356150360778,758.2992007069988,None,,,,,,,,,,,,,,,,None,None,None,,None,None,758.632116216002,None,3,1,0.6213612820138223,758.632116216002,None,759.2485745639191,None,None,None,None,,21,001,2023_Jan_23_1115,searchDisc5,2021.2.3,59.97145394304753,
images/exp1a_trial_306_colour1_distractors19_l.png,l,1,1,19,0,,,,,0,154,154,154,,,,,,,,,,,,,,,,,,,,,,,,,,,,,,,,,,,,,,,,,,,759.2662813650095,None,2,0.5051773120067082,759.2662813650095,None,,,,,,,,,,,,,,,,None,None,None,,None,None,759.8174924479681,None,1,1,1.301593051000964,759.8174924479681,None,761.1152770569082,None,None,None,None,,21,001,2023_Jan_23_1115,searchDisc5,2021.2.3,59.97145394304753,
images/exp2c_trial_277_colour2_distractors4_l.png,l,1,2,4,0,,,,,0,155,155,155,,,,,,,,,,,,,,,,,,,,,,,,,,,,,,,,,,,,,,,,,,,761.1316973170033,None,2,0.28824600303778425,761.1316973170033,None,,,,,,,,,,,,,,,,None,None,None,,None,None,761.4656840270036,None,1,1,0.6716537129832432,761.4656840270036,None,762.1318378809141,None,None,None,None,,21,001,2023_Jan_23_1115,searchDisc5,2021.2.3,59.97145394304753,
images/exp2b_trial_65_colour1_distractors4_r.png,r,3,1,4,0,,,,,0,156,156,156,,,,,,,,,,,,,,,,,,,,,,,,,,,,,,,,,,,,,,,,,,,762.1491267469828,None,2,0.2711752679897472,762.1491267469828,None,,,,,,,,,,,,,,,,None,None,None,,None,None,762.468784933968,None,3,1,0.6225317450007424,762.468784933968,None,763.0819125128677,None,None,None,None,,21,001,2023_Jan_23_1115,searchDisc5,2021.2.3,59.97145394304753,
images/exp2a_trial_71_colour2_distractors9_r.png,r,3,2,9,0,,,,,0,157,157,157,,,,,,,,,,,,,,,,,,,,,,,,,,,,,,,,,,,,,,,,,,,763.0991972219781,None,2,0.42329581099329516,763.0991972219781,None,,,,,,,,,,,,,,,,None,None,None,,None,None,763.5675627840101,None,3,1,0.666182120970916,763.5675627840101,None,764.2320865698624,None,None,None,None,,21,001,2023_Jan_23_1115,searchDisc5,2021.2.3,59.97145394304753,
images/exp2c_trial_95_colour0_distractors0_l.png,l,1,0,0,0,,,,,0,158,158,158,,,,,,,,,,,,,,,,,,,,,,,,,,,,,,,,,,,,,,,,,,,764.2497101550107,None,2,0.45482175203505903,764.2497101550107,None,,,,,,,,,,,,,,,,None,None,None,,None,None,764.7489622340072,None,1,1,0.5564826289773919,764.7489622340072,None,765.2985716028837,None,None,None,None,,21,001,2023_Jan_23_1115,searchDisc5,2021.2.3,59.97145394304753,
images/exp2c_trial_300_colour3_distractors9_r.png,r,3,3,9,0,,,,,0,159,159,159,,,,,,,,,,,,,,,,,,,,,,,,,,,,,,,,,,,,,,,,,,,765.3160273869871,None,2,0.25527230399893597,765.3160273869871,None,,,,,,,,,,,,,,,,None,None,None,,None,None,765.6162474110024,None,3,1,1.0377418610150926,765.6162474110024,None,766.6486561049009,None,None,None,None,,21,001,2023_Jan_23_1115,searchDisc5,2021.2.3,59.97145394304753,
images/exp2a_trial_217_colour3_distractors1_l.png,l,1,3,1,0,,,,,0,160,160,160,,,,,,,,,,,,,,,,,,,,,,,,,,,,,,,,,,,,,,,,,,,766.6655087450054,None,2,0.40533498697914183,766.6655087450054,None,,,,,,,,,,,,,,,,None,None,None,,None,None,767.1181057330105,None,1,1,0.5068835450219922,767.1181057330105,None,767.6163617499172,None,None,None,None,,21,001,2023_Jan_23_1115,searchDisc5,2021.2.3,59.97145394304753,
images/exp1a_trial_32_colour1_distractors1_r.png,r,3,1,1,0,,,,,0,161,161,161,,,,,,,,,,,,,,,,,,,,,,,,,,,,,,,,,,,,,,,,,,,767.6331890709698,None,2,0.2564240609644912,767.6331890709698,None,,,,,,,,,,,,,,,,None,None,None,,None,None,767.9323567879619,None,3,1,0.886096998990979,767.9323567879619,None,768.8153088378953,None,None,None,None,,21,001,2023_Jan_23_1115,searchDisc5,2021.2.3,59.97145394304753,
images/exp2c_trial_129_colour1_distractors4_r.png,r,3,1,4,0,,,,,0,162,162,162,,,,,,,,,,,,,,,,,,,,,,,,,,,,,,,,,,,,,,,,,,,768.8346630309825,None,2,0.35671321698464453,768.8346630309825,None,,,,,,,,,,,,,,,,None,None,None,,None,None,769.2352118329727,None,3,1,0.5368374329991639,769.2352118329727,None,769.7654555818648,None,None,None,None,,21,001,2023_Jan_23_1115,searchDisc5,2021.2.3,59.97145394304753,
images/exp2b_trial_124_colour3_distractors19_l.png,l,1,3,19,0,,,,,0,163,163,163,,,,,,,,,,,,,,,,,,,,,,,,,,,,,,,,,,,,,,,,,,,769.7831716429791,None,2,0.4042046759859659,769.7831716429791,None,,,,,,,,,,,,,,,,None,None,None,,None,None,770.234529940004,None,1,1,0.6375629450194538,770.234529940004,None,770.8653410089086,None,None,None,None,,21,001,2023_Jan_23_1115,searchDisc5,2021.2.3,59.97145394304753,
images/exp1a_trial_122_colour3_distractors4_l.png,l,1,3,4,0,,,,,0,164,164,164,,,,,,,,,,,,,,,,,,,,,,,,,,,,,,,,,,,,,,,,,,,770.8827759039705,None,2,0.3047485969727859,770.8827759039705,None,,,,,,,,,,,,,,,,None,None,None,,None,None,771.2324250019738,None,1,1,0.5722438659868203,771.2324250019738,None,771.7990010428824,None,None,None,None,,21,001,2023_Jan_23_1115,searchDisc5,2021.2.3,59.97145394304753,
images/exp1a_trial_70_colour2_distractors4_r.png,r,3,2,4,0,,,,,0,165,165,165,,,,,,,,,,,,,,,,,,,,,,,,,,,,,,,,,,,,,,,,,,,771.818623322004,None,2,0.2723607299849391,771.818623322004,None,,,,,,,,,,,,,,,,None,None,None,,None,None,772.1324229069869,None,3,1,0.7051382750505581,772.1324229069869,None,772.832164160884,None,None,None,None,,21,001,2023_Jan_23_1115,searchDisc5,2021.2.3,59.97145394304753,
images/exp2b_trial_32_colour1_distractors1_r.png,r,3,1,1,0,,,,,0,166,166,166,,,,,,,,,,,,,,,,,,,,,,,,,,,,,,,,,,,,,,,,,,,772.8491726209759,None,2,0.40617173799546435,772.8491726209759,None,,,,,,,,,,,,,,,,None,None,None,,None,None,773.3013846959802,None,3,1,0.8697842989931814,773.3013846959802,None,774.1655816798797,None,None,None,None,,21,001,2023_Jan_23_1115,searchDisc5,2021.2.3,59.97145394304753,
images/exp1a_trial_230_colour2_distractors4_r.png,r,3,2,4,0,,,,,0,167,167,167,,,,,,,,,,,,,,,,,,,,,,,,,,,,,,,,,,,,,,,,,,,774.183278751967,None,2,0.4884288650355302,774.183278751967,None,,,,,,,,,,,,,,,,None,None,None,,None,None,774.7158951449674,None,3,1,0.9545131279737689,774.7158951449674,None,775.6651113608735,None,None,None,None,,21,001,2023_Jan_23_1115,searchDisc5,2021.2.3,59.97145394304753,
images/exp1a_trial_172_colour3_distractors9_r.png,r,3,3,9,0,,,,,0,168,168,168,,,,,,,,,,,,,,,,,,,,,,,,,,,,,,,,,,,,,,,,,,,775.6825959979906,None,2,0.33766561397351325,775.6825959979906,None,,,,,,,,,,,,,,,,None,None,None,,None,None,776.0659200529917,None,3,1,0.5540049240225926,776.0659200529917,None,776.6150207458762,None,None,None,None,,21,001,2023_Jan_23_1115,searchDisc5,2021.2.3,59.97145394304753,
images/exp2b_trial_17_colour1_distractors9_l.png,l,1,1,9,0,,,,,0,169,169,169,,,,,,,,,,,,,,,,,,,,,,,,,,,,,,,,,,,,,,,,,,,776.6345936519792,None,2,0.5080182940000668,776.6345936519792,None,,,,,,,,,,,,,,,,None,None,None,,None,None,777.185674007982,None,1,1,0.6353432000032626,777.185674007982,None,777.8156172889052,None,None,None,None,,21,001,2023_Jan_23_1115,searchDisc5,2021.2.3,59.97145394304753,
images/exp1a_trial_181_colour2_distractors4_l.png,l,1,2,4,0,,,,,0,170,170,170,,,,,,,,,,,,,,,,,,,,,,,,,,,,,,,,,,,,,,,,,,,777.832291241968,None,2,0.25465321697993204,777.832291241968,None,,,,,,,,,,,,,,,,None,None,None,,None,None,778.1331394080189,None,1,1,1.1887450080248527,778.1331394080189,None,779.315640775871,None,None,None,None,,21,001,2023_Jan_23_1115,searchDisc5,2021.2.3,59.97145394304753,
images/exp2a_trial_94_colour0_distractors0_r.png,r,3,0,0,0,,,,,0,171,171,171,,,,,,,,,,,,,,,,,,,,,,,,,,,,,,,,,,,,,,,,,,,779.3332878269721,None,2,0.20437084400327876,779.3332878269721,None,,,,,,,,,,,,,,,,None,None,None,,None,None,779.5855877379654,None,3,1,0.6562520459992811,779.5855877379654,None,780.2323099609115,None,None,None,None,,21,001,2023_Jan_23_1115,searchDisc5,2021.2.3,59.97145394304753,
images/exp1a_trial_89_colour3_distractors1_l.png,l,1,3,1,0,,,,,0,172,172,172,,,,,,,,,,,,,,,,,,,,,,,,,,,,,,,,,,,,,,,,,,,780.249091456004,None,2,0.3712287960224785,780.249091456004,None,,,,,,,,,,,,,,,,None,None,None,,None,None,780.6680638049729,None,1,1,0.8735638499492779,780.6680638049729,None,781.532899089891,None,None,None,None,,21,001,2023_Jan_23_1115,searchDisc5,2021.2.3,59.97145394304753,
images/exp2c_trial_219_colour3_distractors9_l.png,l,1,3,9,0,,,,,0,173,173,173,,,,,,,,,,,,,,,,,,,,,,,,,,,,,,,,,,,,,,,,,,,781.5514155359706,None,2,0.23759853199589998,781.5514155359706,None,,,,,,,,,,,,,,,,None,None,None,,None,None,781.8328771439847,None,1,1,0.8380990130244754,781.8328771439847,None,782.6657310678623,None,None,None,None,,21,001,2023_Jan_23_1115,searchDisc5,2021.2.3,59.97145394304753,
images/exp2b_trial_190_colour0_distractors0_r.png,r,3,0,0,0,,,,,0,174,174,174,,,,,,,,,,,,,,,,,,,,,,,,,,,,,,,,,,,,,,,,,,,782.6852622239967,None,2,0.23797340597957373,782.6852622239967,None,,,,,,,,,,,,,,,,None,None,None,,None,None,782.9662712930003,None,3,1,0.5398892720113508,782.9662712930003,None,783.4991478608921,None,None,None,None,,21,001,2023_Jan_23_1115,searchDisc5,2021.2.3,59.97145394304753,
images/exp2b_trial_201_colour2_distractors31_r.png,r,3,2,31,0,,,,,0,175,175,175,,,,,,,,,,,,,,,,,,,,,,,,,,,,,,,,,,,,,,,,,,,783.5158652329701,None,2,0.3544542550225742,783.5158652329701,None,,,,,,,,,,,,,,,,None,None,None,,None,None,783.9180899210041,None,3,1,0.6529797149705701,783.9180899210041,None,784.5658877418958,None,None,None,None,,21,001,2023_Jan_23_1115,searchDisc5,2021.2.3,59.97145394304753,
images/exp1a_trial_201_colour2_distractors31_r.png,r,3,2,31,0,,,,,0,176,176,176,,,,,,,,,,,,,,,,,,,,,,,,,,,,,,,,,,,,,,,,,,,784.5833864340093,None,2,0.2727720760158263,784.5833864340093,None,,,,,,,,,,,,,,,,None,None,None,,None,None,784.899462995003,None,3,1,0.5505806389846839,784.899462995003,None,785.4492826438858,None,None,None,None,,21,001,2023_Jan_23_1115,searchDisc5,2021.2.3,59.97145394304753,
images/exp1a_trial_134_colour2_distractors4_r.png,r,3,2,4,0,,,,,0,177,177,177,,,,,,,,,,,,,,,,,,,,,,,,,,,,,,,,,,,,,,,,,,,785.4680060420069,None,2,0.3534066539723426,785.4680060420069,None,,,,,,,,,,,,,,,,None,None,None,,None,None,785.8682228850084,None,3,1,0.60457356198458,785.8682228850084,None,786.465926276904,None,None,None,None,,21,001,2023_Jan_23_1115,searchDisc5,2021.2.3,59.97145394304753,
images/exp1a_trial_278_colour2_distractors9_l.png,l,1,2,9,0,,,,,0,178,178,178,,,,,,,,,,,,,,,,,,,,,,,,,,,,,,,,,,,,,,,,,,,786.4832463429775,None,2,0.30741815600777045,786.4832463429775,None,,,,,,,,,,,,,,,,None,None,None,,None,None,786.8349474970018,None,1,1,0.8184582540416159,786.8349474970018,None,787.6492320188903,None,None,None,None,,21,001,2023_Jan_23_1115,searchDisc5,2021.2.3,59.97145394304753,
images/exp2a_trial_53_colour2_distractors4_l.png,l,1,2,4,0,,,,,0,179,179,179,,,,,,,,,,,,,,,,,,,,,,,,,,,,,,,,,,,,,,,,,,,787.6684079759871,None,2,0.21997894399100915,787.6684079759871,None,,,,,,,,,,,,,,,,None,None,None,,None,None,787.9329303730046,None,1,1,0.7879580560256727,787.9329303730046,None,788.7159571738797,None,None,None,None,,21,001,2023_Jan_23_1115,searchDisc5,2021.2.3,59.97145394304753,
images/exp2b_trial_217_colour3_distractors1_l.png,l,1,3,1,0,,,,,0,180,180,180,,,,,,,,,,,,,,,,,,,,,,,,,,,,,,,,,,,,,,,,,,,788.7332191250171,None,2,0.1543201610329561,788.7332191250171,None,,,,,,,,,,,,,,,,None,None,None,,None,None,788.9350509080105,None,1,1,0.6064672369975597,788.9350509080105,None,789.5325739208841,None,None,None,None,,21,001,2023_Jan_23_1115,searchDisc5,2021.2.3,59.97145394304753,
images/exp2a_trial_273_colour1_distractors9_l.png,l,1,1,9,0,,,,,0,181,181,181,,,,,,,,,,,,,,,,,,,,,,,,,,,,,,,,,,,,,,,,,,,789.5502506970079,None,2,0.2064779849606566,789.5502506970079,None,,,,,,,,,,,,,,,,None,None,None,,None,None,789.8005783029948,None,1,1,0.5859206989989616,789.8005783029948,None,790.3822588638635,None,None,None,None,,21,001,2023_Jan_23_1115,searchDisc5,2021.2.3,59.97145394304753,
images/exp2b_trial_8_colour2_distractors19_r.png,r,3,2,19,0,,,,,0,182,182,182,,,,,,,,,,,,,,,,,,,,,,,,,,,,,,,,,,,,,,,,,,,790.3999979569926,None,2,0.23882961401250213,790.3999979569926,None,,,,,,,,,,,,,,,,None,None,None,,None,None,790.6850109219668,None,3,1,0.7683594780392013,790.6850109219668,None,791.4494529099087,None,None,None,None,,21,001,2023_Jan_23_1115,searchDisc5,2021.2.3,59.97145394304753,
images/exp2c_trial_245_colour2_distractors4_l.png,l,1,2,4,0,,,,,0,183,183,183,,,,,,,,,,,,,,,,,,,,,,,,,,,,,,,,,,,,,,,,,,,791.4682523430092,None,2,0.33862536697415635,791.4682523430092,None,,,,,,,,,,,,,,,,None,None,None,,None,None,791.8517967109801,None,1,1,0.7214435879723169,791.8517967109801,None,792.5660804969142,None,None,None,None,,21,001,2023_Jan_23_1115,searchDisc5,2021.2.3,59.97145394304753,
images/exp2b_trial_215_colour2_distractors19_l.png,l,1,2,19,0,,,,,0,184,184,184,,,,,,,,,,,,,,,,,,,,,,,,,,,,,,,,,,,,,,,,,,,792.5828950499999,None,2,0.2536653939750977,792.5828950499999,None,,,,,,,,,,,,,,,,None,None,None,,None,None,792.8829942269949,None,1,1,0.6220509489648975,792.8829942269949,None,793.5002823308809,None,None,None,None,,21,001,2023_Jan_23_1115,searchDisc5,2021.2.3,59.97145394304753,
images/exp2a_trial_159_colour0_distractors0_l.png,l,1,0,0,0,,,,,0,185,185,185,,,,,,,,,,,,,,,,,,,,,,,,,,,,,,,,,,,,,,,,,,,793.5181972329738,None,2,0.22030195605475456,793.5181972329738,None,,,,,,,,,,,,,,,,None,None,None,,None,None,793.7855569560197,None,1,1,0.6408888100413606,793.7855569560197,None,794.4170841639046,None,None,None,None,,21,001,2023_Jan_23_1115,searchDisc5,2021.2.3,59.97145394304753,
images/exp1a_trial_106_colour3_distractors1_r.png,r,3,3,1,0,,,,,0,186,186,186,,,,,,,,,,,,,,,,,,,,,,,,,,,,,,,,,,,,,,,,,,,794.4336283570156,None,2,0.2063667409820482,794.4336283570156,None,,,,,,,,,,,,,,,,None,None,None,,None,None,794.685890520981,None,3,1,0.7202259449986741,794.685890520981,None,795.3999696438899,None,None,None,None,,21,001,2023_Jan_23_1115,searchDisc5,2021.2.3,59.97145394304753,
images/exp2c_trial_304_colour1_distractors4_l.png,l,1,1,4,0,,,,,0,187,187,187,,,,,,,,,,,,,,,,,,,,,,,,,,,,,,,,,,,,,,,,,,,795.4167145590181,None,2,0.47074246499687433,795.4167145590181,None,,,,,,,,,,,,,,,,None,None,None,,None,None,795.9335532679688,None,1,1,0.589329429960344,795.9335532679688,None,796.5162798329023,None,None,None,None,,21,001,2023_Jan_23_1115,searchDisc5,2021.2.3,59.97145394304753,
images/exp2b_trial_166_colour2_distractors4_r.png,r,3,2,4,0,,,,,0,188,188,188,,,,,,,,,,,,,,,,,,,,,,,,,,,,,,,,,,,,,,,,,,,796.5330152389943,None,2,0.19023511098930612,796.5330152389943,None,,,,,,,,,,,,,,,,None,None,None,,None,None,796.7692418670049,None,3,1,2.203392384981271,796.7692418670049,None,798.9663009269046,None,None,None,None,,21,001,2023_Jan_23_1115,searchDisc5,2021.2.3,59.97145394304753,
images/exp1a_trial_9_colour2_distractors31_r.png,r,3,2,31,0,,,,,0,189,189,189,,,,,,,,,,,,,,,,,,,,,,,,,,,,,,,,,,,,,,,,,,,798.9828985779895,None,2,0.5053517930209637,798.9828985779895,None,,,,,,,,,,,,,,,,None,None,None,,None,None,799.5333735769964,None,3,1,0.933907990984153,799.5333735769964,None,800.466406211874,None,None,None,None,,21,001,2023_Jan_23_1115,searchDisc5,2021.2.3,59.97145394304753,
images/exp1a_trial_309_colour2_distractors4_l.png,l,1,2,4,0,,,,,0,190,190,190,,,,,,,,,,,,,,,,,,,,,,,,,,,,,,,,,,,,,,,,,,,800.4826341769658,None,2,0.5891358040389605,800.4826341769658,None,,,,,,,,,,,,,,,,None,None,None,,None,None,801.1195659239893,None,1,1,0.6855854149907827,801.1195659239893,None,801.7996818959131,None,None,None,None,,21,001,2023_Jan_23_1115,searchDisc5,2021.2.3,59.97145394304753,
images/exp2a_trial_91_colour3_distractors9_l.png,l,1,3,9,0,,,,,0,191,191,191,,,,,,,,,,,,,,,,,,,,,,,,,,,,,,,,,,,,,,,,,,,801.8192646480165,None,2,0.2712606100249104,801.8192646480165,None,,,,,,,,,,,,,,,,None,None,None,,None,None,802.1332598589943,None,1,1,0.5047492730082013,802.1332598589943,None,802.6330988738686,None,None,None,None,,21,001,2023_Jan_23_1115,searchDisc5,2021.2.3,59.97145394304753,
images/exp2b_trial_311_colour2_distractors19_l.png,l,1,2,19,0,,,,,0,192,192,192,,,,,,,,,,,,,,,,,,,,,,,,,,,,,,,,,,,,,,,,,,,802.6504856309621,None,2,0.20541384303942323,802.6504856309621,None,,,,,,,,,,,,,,,,None,None,None,,None,None,802.9030056269839,None,1,1,0.9028520080028102,802.9030056269839,None,803.7995093989069,None,None,None,None,,21,001,2023_Jan_23_1115,searchDisc5,2021.2.3,59.97145394304753,
images/exp1a_trial_226_colour1_distractors9_r.png,r,3,1,9,0,,,,,0,193,193,193,,,,,,,,,,,,,,,,,,,,,,,,,,,,,,,,,,,,,,,,,,,803.8164769149735,None,2,0.20690495101734996,803.8164769149735,None,,,,,,,,,,,,,,,,None,None,None,,None,None,804.0693272809731,None,3,1,0.8014070059871301,804.0693272809731,None,804.8665056879166,None,None,None,None,,21,001,2023_Jan_23_1115,searchDisc5,2021.2.3,59.97145394304753,
images/exp2c_trial_286_colour0_distractors0_r.png,r,3,0,0,0,,,,,0,194,194,194,,,,,,,,,,,,,,,,,,,,,,,,,,,,,,,,,,,,,,,,,,,804.8839446739876,None,2,0.6720474979956634,804.8839446739876,None,,,,,,,,,,,,,,,,None,None,None,,None,None,805.6008969270042,None,3,1,0.4889576270361431,805.6008969270042,None,806.0832332969061,None,None,None,None,,21,001,2023_Jan_23_1115,searchDisc5,2021.2.3,59.97145394304753,
images/exp2b_trial_72_colour2_distractors19_r.png,r,3,2,19,0,,,,,0,195,195,195,,,,,,,,,,,,,,,,,,,,,,,,,,,,,,,,,,,,,,,,,,,806.1005064269993,None,2,0.4239139439887367,806.1005064269993,None,,,,,,,,,,,,,,,,None,None,None,,None,None,806.5700095379725,None,3,1,1.0017623419989832,806.5700095379725,None,807.5674382069031,None,None,None,None,,21,001,2023_Jan_23_1115,searchDisc5,2021.2.3,59.97145394304753,
images/exp2b_trial_253_colour3_distractors31_l.png,l,1,3,31,0,,,,,0,196,196,196,,,,,,,,,,,,,,,,,,,,,,,,,,,,,,,,,,,,,,,,,,,807.5858956219745,None,2,0.2556403499911539,807.5858956219745,None,,,,,,,,,,,,,,,,None,None,None,,None,None,807.8864693919895,None,1,1,1.1679898680304177,807.8864693919895,None,809.0498824718874,None,None,None,None,,21,001,2023_Jan_23_1115,searchDisc5,2021.2.3,59.97145394304753,
images/exp1a_trial_59_colour3_distractors9_l.png,l,1,3,9,0,,,,,0,197,197,197,,,,,,,,,,,,,,,,,,,,,,,,,,,,,,,,,,,,,,,,,,,809.0667139959987,None,2,0.538213278981857,809.0667139959987,None,,,,,,,,,,,,,,,,None,None,None,,None,None,809.652975842997,None,1,1,1.436982179991901,809.652975842997,None,811.083335636917,None,None,None,None,,21,001,2023_Jan_23_1115,searchDisc5,2021.2.3,59.97145394304753,
images/exp2b_trial_38_colour2_distractors4_r.png,r,3,2,4,0,,,,,0,198,198,198,,,,,,,,,,,,,,,,,,,,,,,,,,,,,,,,,,,,,,,,,,,811.1025309039978,None,2,0.20428448601160198,811.1025309039978,None,,,,,,,,,,,,,,,,None,None,None,,None,None,811.3505372030195,None,3,1,1.0065200499957427,811.3505372030195,None,812.3499743758933,None,None,None,None,,21,001,2023_Jan_23_1115,searchDisc5,2021.2.3,59.97145394304753,
images/exp1a_trial_54_colour2_distractors9_l.png,l,1,2,9,0,,,,,0,199,199,199,,,,,,,,,,,,,,,,,,,,,,,,,,,,,,,,,,,,,,,,,,,812.3697551949881,None,2,0.25418032199377194,812.3697551949881,None,,,,,,,,,,,,,,,,None,None,None,,None,None,812.6671801530174,None,1,1,0.6539623530115932,812.6671801530174,None,813.3166293368907,None,None,None,None,,21,001,2023_Jan_23_1115,searchDisc5,2021.2.3,59.97145394304753,
images/exp2b_trial_261_colour2_distractors1_r.png,r,3,2,1,0,,,,,0,200,200,200,,,,,,,,,,,,,,,,,,,,,,,,,,,,,,,,,,,,,,,,,,,813.3333441299619,None,2,0.2878289290238172,813.3333441299619,None,,,,,,,,,,,,,,,,None,None,None,,None,None,813.6676572749857,None,3,1,0.8247751379967667,813.6676572749857,None,814.483455760905,None,None,None,None,,21,001,2023_Jan_23_1115,searchDisc5,2021.2.3,59.97145394304753,
images/exp2a_trial_308_colour2_distractors1_l.png,l,1,2,1,0,,,,,0,201,201,201,,,,,,,,,,,,,,,,,,,,,,,,,,,,,,,,,,,,,,,,,,,814.5000422470039,None,2,0.31878406601026654,814.5000422470039,None,,,,,,,,,,,,,,,,None,None,None,,None,None,814.8669272139668,None,1,1,0.856610378017649,814.8669272139668,None,815.7166959388763,None,None,None,None,,21,001,2023_Jan_23_1115,searchDisc5,2021.2.3,59.97145394304753,
images/exp1a_trial_42_colour3_distractors1_r.png,r,3,3,1,0,,,,,0,202,202,202,,,,,,,,,,,,,,,,,,,,,,,,,,,,,,,,,,,,,,,,,,,815.734179364983,None,2,0.2722656090045348,815.734179364983,None,,,,,,,,,,,,,,,,None,None,None,,None,None,816.050274594978,None,3,1,0.7045511640026234,816.050274594978,None,816.7501111958758,None,None,None,None,,21,001,2023_Jan_23_1115,searchDisc5,2021.2.3,59.97145394304753,
images/exp2b_trial_289_colour1_distractors4_r.png,r,3,1,4,0,,,,,0,203,203,203,,,,,,,,,,,,,,,,,,,,,,,,,,,,,,,,,,,,,,,,,,,816.7668621530174,None,2,0.322121600038372,816.7668621530174,None,,,,,,,,,,,,,,,,None,None,None,,None,None,817.1346310849767,None,3,1,1.606095335970167,817.1346310849767,None,818.7345060598803,None,None,None,None,,21,001,2023_Jan_23_1115,searchDisc5,2021.2.3,59.97145394304753,
images/exp2a_trial_234_colour3_distractors1_r.png,r,3,3,1,0,,,,,0,204,204,204,,,,,,,,,,,,,,,,,,,,,,,,,,,,,,,,,,,,,,,,,,,818.7499774339958,None,2,0.3188841459923424,818.7499774339958,None,,,,,,,,,,,,,,,,None,None,None,,None,None,819.1171440539765,None,3,1,0.7403842959902249,819.1171440539765,None,819.8502114618663,None,None,None,None,,21,001,2023_Jan_23_1115,searchDisc5,2021.2.3,59.97145394304753,
images/exp1a_trial_148_colour2_distractors1_l.png,l,1,2,1,0,,,,,0,205,205,205,,,,,,,,,,,,,,,,,,,,,,,,,,,,,,,,,,,,,,,,,,,819.8668541520019,None,2,0.24149847199441865,819.8668541520019,None,,,,,,,,,,,,,,,,None,None,None,,None,None,820.152467723994,None,1,1,0.7683346889680251,820.152467723994,None,820.9162390269106,None,None,None,None,,21,001,2023_Jan_23_1115,searchDisc5,2021.2.3,59.97145394304753,
images/exp2b_trial_132_colour1_distractors31_r.png,r,3,1,31,0,,,,,0,206,206,206,,,,,,,,,,,,,,,,,,,,,,,,,,,,,,,,,,,,,,,,,,,820.93356489297,None,2,0.23984518100041896,820.93356489297,None,,,,,,,,,,,,,,,,None,None,None,,None,None,821.2198933829786,None,3,1,0.9181011860491708,821.2198933829786,None,822.1335182178649,None,None,None,None,,21,001,2023_Jan_23_1115,searchDisc5,2021.2.3,59.97145394304753,
images/exp2c_trial_30_colour0_distractors0_r.png,r,3,0,0,0,,,,,0,207,207,207,,,,,,,,,,,,,,,,,,,,,,,,,,,,,,,,,,,,,,,,,,,822.1503137300024,None,2,0.2879373600007966,822.1503137300024,None,,,,,,,,,,,,,,,,None,None,None,,None,None,822.4848310009693,None,3,1,0.7259368220111355,822.4848310009693,None,823.2012982148793,None,None,None,None,,21,001,2023_Jan_23_1115,searchDisc5,2021.2.3,59.97145394304753,
images/exp2c_trial_98_colour1_distractors9_r.png,r,3,1,9,0,,,,,0,208,208,208,,,,,,,,,,,,,,,,,,,,,,,,,,,,,,,,,,,,,,,,,,,823.2177866729908,None,2,0.3023149039945565,823.2177866729908,None,,,,,,,,,,,,,,,,None,None,None,,None,None,823.5672148980084,None,3,1,0.6034504069830291,823.5672148980084,None,824.1668253778829,None,None,None,None,,21,001,2023_Jan_23_1115,searchDisc5,2021.2.3,59.97145394304753,
images/exp2b_trial_108_colour3_distractors9_r.png,r,3,3,9,0,,,,,0,209,209,209,,,,,,,,,,,,,,,,,,,,,,,,,,,,,,,,,,,,,,,,,,,824.1836260209675,None,2,0.27100004500243813,824.1836260209675,None,,,,,,,,,,,,,,,,None,None,None,,None,None,824.5006100049941,None,3,1,0.7555848690099083,824.5006100049941,None,825.2513792429003,None,None,None,None,,21,001,2023_Jan_23_1115,searchDisc5,2021.2.3,59.97145394304753,
images/exp1a_trial_128_colour1_distractors1_r.png,r,3,1,1,0,,,,,0,210,210,210,,,,,,,,,,,,,,,,,,,,,,,,,,,,,,,,,,,,,,,,,,,825.269173491979,None,2,0.3378550800262019,825.269173491979,None,,,,,,,,,,,,,,,,None,None,None,,None,None,825.6528451109771,None,3,1,0.5881377809564583,825.6528451109771,None,826.2337204079143,None,None,None,None,,21,001,2023_Jan_23_1115,searchDisc5,2021.2.3,59.97145394304753,
images/exp2b_trial_283_colour3_distractors9_l.png,l,1,3,9,0,,,,,0,211,211,211,,,,,,,,,,,,,,,,,,,,,,,,,,,,,,,,,,,,,,,,,,,826.2504423519713,None,2,0.28777026099851355,826.2504423519713,None,,,,,,,,,,,,,,,,None,None,None,,None,None,826.5847987949965,None,1,1,1.2553043839870952,826.5847987949965,None,827.8337856968632,None,None,None,None,,21,001,2023_Jan_23_1115,searchDisc5,2021.2.3,59.97145394304753,
images/exp2c_trial_199_colour2_distractors9_r.png,r,3,2,9,0,,,,,0,212,212,212,,,,,,,,,,,,,,,,,,,,,,,,,,,,,,,,,,,,,,,,,,,827.851434650016,None,2,0.304410724027548,827.851434650016,None,,,,,,,,,,,,,,,,None,None,None,,None,None,828.201388409012,None,3,1,0.9065662720240653,828.201388409012,None,829.1023941838997,None,None,None,None,,21,001,2023_Jan_23_1115,searchDisc5,2021.2.3,59.97145394304753,
images/exp2c_trial_97_colour1_distractors4_r.png,r,3,1,4,0,,,,,0,213,213,213,,,,,,,,,,,,,,,,,,,,,,,,,,,,,,,,,,,,,,,,,,,829.1190014900058,None,2,0.3032776920008473,829.1190014900058,None,,,,,,,,,,,,,,,,None,None,None,,None,None,829.4668502669665,None,3,1,0.4869356210110709,829.4668502669665,None,829.9498186539043,None,None,None,None,,21,001,2023_Jan_23_1115,searchDisc5,2021.2.3,59.97145394304753,
images/exp2a_trial_137_colour2_distractors31_r.png,r,3,2,31,0,,,,,0,214,214,214,,,,,,,,,,,,,,,,,,,,,,,,,,,,,,,,,,,,,,,,,,,829.9670670609921,None,2,0.28929306799545884,829.9670670609921,None,,,,,,,,,,,,,,,,None,None,None,,None,None,830.3007053220063,None,3,1,0.796178393997252,830.3007053220063,None,831.0996766158845,None,None,None,None,,21,001,2023_Jan_23_1115,searchDisc5,2021.2.3,59.97145394304753,
images/exp2c_trial_266_colour3_distractors1_r.png,r,3,3,1,0,,,,,0,215,215,215,,,,,,,,,,,,,,,,,,,,,,,,,,,,,,,,,,,,,,,,,,,831.1201974019641,None,2,0.2690574710140936,831.1201974019641,None,,,,,,,,,,,,,,,,None,None,None,,None,None,831.4350908100023,None,3,1,0.5738306459970772,831.4350908100023,None,832.0015135468915,None,None,None,None,,21,001,2023_Jan_23_1115,searchDisc5,2021.2.3,59.97145394304753,
images/exp2c_trial_1_colour1_distractors4_r.png,r,3,1,4,0,,,,,0,216,216,216,,,,,,,,,,,,,,,,,,,,,,,,,,,,,,,,,,,,,,,,,,,832.0174742919626,None,2,0.3033447539783083,832.0174742919626,None,,,,,,,,,,,,,,,,None,None,None,,None,None,832.3673106179922,None,3,1,0.47205427300650626,832.3673106179922,None,832.8338080818997,None,None,None,None,,21,001,2023_Jan_23_1115,searchDisc5,2021.2.3,59.97145394304753,
images/exp2b_trial_35_colour1_distractors19_r.png,r,3,1,19,0,,,,,0,217,217,217,,,,,,,,,,,,,,,,,,,,,,,,,,,,,,,,,,,,,,,,,,,832.8533579990035,None,2,0.2909017979982309,832.8533579990035,None,,,,,,,,,,,,,,,,None,None,None,,None,None,833.1850764619885,None,3,1,0.6352108760038391,833.1850764619885,None,833.8180870138807,None,None,None,None,,21,001,2023_Jan_23_1115,searchDisc5,2021.2.3,59.97145394304753,
images/exp2b_trial_112_colour1_distractors4_l.png,l,1,1,4,0,,,,,0,218,218,218,,,,,,,,,,,,,,,,,,,,,,,,,,,,,,,,,,,,,,,,,,,833.8345564960036,None,2,0.24071267998078838,833.8345564960036,None,,,,,,,,,,,,,,,,None,None,None,,None,None,834.1178303440101,None,1,1,0.9354695809888653,834.1178303440101,None,835.0505932238651,None,None,None,None,,21,001,2023_Jan_23_1115,searchDisc5,2021.2.3,59.97145394304753,
images/exp2b_trial_141_colour3_distractors19_r.png,r,3,3,19,0,,,,,0,219,219,219,,,,,,,,,,,,,,,,,,,,,,,,,,,,,,,,,,,,,,,,,,,835.068765805976,None,2,0.18943496100837365,835.068765805976,None,,,,,,,,,,,,,,,,None,None,None,,None,None,835.3037438329775,None,3,1,0.6014703650143929,835.3037438329775,None,835.9005600948934,None,None,None,None,,21,001,2023_Jan_23_1115,searchDisc5,2021.2.3,59.97145394304753,
images/exp2b_trial_62_colour0_distractors0_r.png,r,3,0,0,0,,,,,0,220,220,220,,,,,,,,,,,,,,,,,,,,,,,,,,,,,,,,,,,,,,,,,,,835.9180167579907,None,2,0.3045715150074102,835.9180167579907,None,,,,,,,,,,,,,,,,None,None,None,,None,None,836.2675492140115,None,3,1,0.47215045103803277,836.2675492140115,None,836.7339154018904,None,None,None,None,,21,001,2023_Jan_23_1115,searchDisc5,2021.2.3,59.97145394304753,
images/exp2c_trial_39_colour2_distractors9_r.png,r,3,2,9,0,,,,,0,221,221,221,,,,,,,,,,,,,,,,,,,,,,,,,,,,,,,,,,,,,,,,,,,836.7506926020142,None,2,0.2561160660116002,836.7506926020142,None,,,,,,,,,,,,,,,,None,None,None,,None,None,837.0518517089658,None,3,1,0.6365422540111467,837.0518517089658,None,837.6839465328725,None,None,None,None,,21,001,2023_Jan_23_1115,searchDisc5,2021.2.3,59.97145394304753,
images/exp1a_trial_116_colour2_distractors1_l.png,l,1,2,1,0,,,,,0,222,222,222,,,,,,,,,,,,,,,,,,,,,,,,,,,,,,,,,,,,,,,,,,,837.7035258120159,None,2,0.2572613509837538,837.7035258120159,None,,,,,,,,,,,,,,,,None,None,None,,None,None,838.0009804259753,None,1,1,0.7868909669923596,838.0009804259753,None,838.7838825718849,None,None,None,None,,21,001,2023_Jan_23_1115,searchDisc5,2021.2.3,59.97145394304753,
images/exp2a_trial_252_colour3_distractors19_l.png,l,1,3,19,0,,,,,0,223,223,223,,,,,,,,,,,,,,,,,,,,,,,,,,,,,,,,,,,,,,,,,,,838.8033911429811,None,2,0.22408385900780559,838.8033911429811,None,,,,,,,,,,,,,,,,None,None,None,,None,None,839.0679560559802,None,1,1,1.134690849983599,839.0679560559802,None,840.2012362679001,None,None,None,None,,21,001,2023_Jan_23_1115,searchDisc5,2021.2.3,59.97145394304753,
images/exp2c_trial_295_colour2_distractors9_r.png,r,3,2,9,0,,,,,0,224,224,224,,,,,,,,,,,,,,,,,,,,,,,,,,,,,,,,,,,,,,,,,,,840.2179611499887,None,2,0.223525189969223,840.2179611499887,None,,,,,,,,,,,,,,,,None,None,None,,None,None,840.484530413989,None,3,1,0.8179319850169122,840.484530413989,None,841.3007872338989,None,None,None,None,,21,001,2023_Jan_23_1115,searchDisc5,2021.2.3,59.97145394304753,
images/exp2c_trial_94_colour0_distractors0_r.png,r,3,0,0,0,,,,,0,225,225,225,,,,,,,,,,,,,,,,,,,,,,,,,,,,,,,,,,,,,,,,,,,841.3181389370002,None,2,0.2242843999993056,841.3181389370002,None,,,,,,,,,,,,,,,,None,None,None,,None,None,841.584362834983,None,3,1,0.6692834990099072,841.584362834983,None,842.2507714619045,None,None,None,None,,21,001,2023_Jan_23_1115,searchDisc5,2021.2.3,59.97145394304753,
images/exp1a_trial_4_colour1_distractors31_r.png,r,3,1,31,0,,,,,0,226,226,226,,,,,,,,,,,,,,,,,,,,,,,,,,,,,,,,,,,,,,,,,,,842.2675350839854,None,2,0.22437113104388118,842.2675350839854,None,,,,,,,,,,,,,,,,None,None,None,,None,None,842.537632802967,None,3,1,1.6798523789620958,842.537632802967,None,844.2175386618823,None,None,None,None,,21,001,2023_Jan_23_1115,searchDisc5,2021.2.3,59.97145394304753,
