ImageFile,targ_side,correctAnswer,colour,distNo,targetType,trials_2.thisRepN,trials_2.thisTrialN,trials_2.thisN,trials_2.thisIndex,trials.thisRepN,trials.thisTrialN,trials.thisN,trials.thisIndex,text_6.started,text_6.stopped,buttonBox.keys,buttonBox.rt,buttonBox.started,buttonBox.stopped,text_7.started,text_7.stopped,buttonBox_3.keys,buttonBox_3.rt,buttonBox_3.started,buttonBox_3.stopped,text_8.started,text_8.stopped,buttonBox_4.keys,buttonBox_4.rt,buttonBox_4.started,buttonBox_4.stopped,text_9.started,text_9.stopped,buttonBox_5.keys,buttonBox_5.rt,buttonBox_5.started,buttonBox_5.stopped,text_2.started,text_2.stopped,buttonBox_6.keys,buttonBox_6.rt,buttonBox_6.started,buttonBox_6.stopped,text_5.started,text_5.stopped,buttonBox_7.keys,buttonBox_7.rt,image_2.started,image_2.stopped,image_3.started,image_3.stopped,buttonBox_8.keys,buttonBox_8.rt,buttonBox_8.started,buttonBox_8.stopped,polygon.started,polygon.stopped,buttonBox_9.keys,buttonBox_9.rt,buttonBox_9.started,buttonBox_9.stopped,image.started,image.stopped,buttonBox_10.keys,buttonBox_10.corr,buttonBox_10.rt,buttonBox_10.started,buttonBox_10.stopped,text_4.started,text_4.stopped,text.started,text.stopped,buttonBox_11.keys,buttonBox_11.rt,buttonBox_11.started,buttonBox_11.stopped,targetTypeInstruction.started,targetTypeInstruction.stopped,buttonBox_2.keys,buttonBox_2.rt,buttonBox_2.started,buttonBox_2.stopped,dispStimuli.started,dispStimuli.stopped,buttonBox_12.keys,buttonBox_12.corr,buttonBox_12.rt,buttonBox_12.started,buttonBox_12.stopped,breakMessage.started,breakMessage.stopped,buttonBox_13.keys,buttonBox_13.started,buttonBox_13.stopped,buttonBox_13.rt,participant,session,date,expName,psychopyVersion,frameRate,
,,,,,,,,,,,,,,84.89621098595671,None,2,132.59905220096698,84.89621098595671,None,,,,,,,,,,,,,,,,,,,,,,,,,,,,,,,,,,,,,,,,,,,,,,,,,,,,,,,,,,,,,,,,,,,,,,,,,,,,,24,001,2023_Jan_23_1343,searchDisc5,2021.2.3,59.96247500195817,
,,,,,,,,,,,,,,,,,,,,217.48165442596655,None,2,58.41618965100497,217.48165442596655,None,,,,,,,,,,,,,,,,,,,,,,,,,,,,,,,,,,,,,,,,,,,,,,,,,,,,,,,,,,,,,,,,,,,,,,,24,001,2023_Jan_23_1343,searchDisc5,2021.2.3,59.96247500195817,
,,,,,,,,,,,,,,,,,,,,,,,,,,275.8985298159532,None,2,6.462208875978831,275.8985298159532,None,,,,,,,,,,,,,,,,,,,,,,,,,,,,,,,,,,,,,,,,,,,,,,,,,,,,,,,,,,,,,,,,,24,001,2023_Jan_23_1343,searchDisc5,2021.2.3,59.96247500195817,
,,,,,,,,,,,,,,,,,,,,,,,,,,,,,,,,282.3655083209742,None,2,5.464615461009089,282.3655083209742,None,,,,,,,,,,,,,,,,,,,,,,,,,,,,,,,,,,,,,,,,,,,,,,,,,,,,,,,,,,,24,001,2023_Jan_23_1343,searchDisc5,2021.2.3,59.96247500195817,
,,,,,,,,,,,,,,,,,,,,,,,,,,,,,,,,,,,,,,287.83231701597106,None,2,9.44907171500381,288.8177190659917,None,,,,,,,,,,,,,,,,,,,,,,,,,,,,,,,,,,,,,,,,,,,,,,,,,,,,,24,001,2023_Jan_23_1343,searchDisc5,2021.2.3,59.96247500195817,
,,,,,,,,,,,,,,,,,,,,,,,,,,,,,,,,,,,,,,,,,,,,298.2659559669555,None,2,19.598384885000996,,,,,,,,,,,,,,,,,,,,,,,,,,,,,,,,,,,,,,,,,,,,,,,,,24,001,2023_Jan_23_1343,searchDisc5,2021.2.3,59.96247500195817,
,,,,,,,,,,,,,,,,,,,,,,,,,,,,,,,,,,,,,,,,,,,,,,,,320.86630819999846,None,320.86630819999846,None,2,13.714715011010412,320.86630819999846,None,,,,,,,,,,,,,,,,,,,,,,,,,,,,,,,,,,,,,,,,,24,001,2023_Jan_23_1343,searchDisc5,2021.2.3,59.96247500195817,
Practice arrays/exp1a_trial_14_colour3_distractors31_r.png,r,3,,,,0,0,0,6,,,,,,,,,,,,,,,,,,,,,,,,,,,,,,,,,,,,,,,,,,,,,,,334.59965205198387,None,2,13.235999030992389,334.59965205198387,None,347.9033467999543,352.9174504419789,1,0,66.43875206197845,347.9033467999543,None,414.3531404079986,None,,,,,,,,,,,,,,,,,,,,,,,,,,24,001,2023_Jan_23_1343,searchDisc5,2021.2.3,59.96247500195817,
Practice arrays/exp1a_trial_16_colour1_distractors4_l.png,l,1,,,,0,1,1,13,,,,,,,,,,,,,,,,,,,,,,,,,,,,,,,,,,,,,,,,,,,,,,,416.354432123946,None,2,26.13170148897916,416.354432123946,None,442.53713613696164,447.537582801946,1,1,35.00255058100447,442.53713613696164,None,477.5374832849484,None,,,,,,,,,,,,,,,,,,,,,,,,,,24,001,2023_Jan_23_1343,searchDisc5,2021.2.3,59.96247500195817,
Practice arrays/exp1a_trial_30_colour0_distractors0_r.png,r,3,,,,0,2,2,14,,,,,,,,,,,,,,,,,,,,,,,,,,,,,,,,,,,,,,,,,,,,,,,479.53976745699765,None,2,5.947112524998374,479.53976745699765,None,485.5406599959824,None,3,1,1.3043356270063668,485.5406599959824,None,486.8386740309652,None,,,,,,,,,,,,,,,,,,,,,,,,,,24,001,2023_Jan_23_1343,searchDisc5,2021.2.3,59.96247500195817,
Practice arrays/exp1a_trial_17_colour1_distractors9_l.png,l,1,,,,0,3,3,7,,,,,,,,,,,,,,,,,,,,,,,,,,,,,,,,,,,,,,,,,,,,,,,488.83986314496724,None,2,1.398832949984353,488.83986314496724,None,490.2880426159827,None,1,1,1.3483848990290426,490.2880426159827,None,491.63787070894614,None,,,,,,,,,,,,,,,,,,,,,,,,,,24,001,2023_Jan_23_1343,searchDisc5,2021.2.3,59.96247500195817,
Practice arrays/exp1a_trial_8_colour2_distractors19_r.png,r,3,,,,0,4,4,3,,,,,,,,,,,,,,,,,,,,,,,,,,,,,,,,,,,,,,,,,,,,,,,493.6400232419837,None,2,0.7191281139967032,493.6400232419837,None,494.4082518479554,None,3,1,1.0963460900238715,494.4082518479554,None,495.5055855139508,None,,,,,,,,,,,,,,,,,,,,,,,,,,24,001,2023_Jan_23_1343,searchDisc5,2021.2.3,59.96247500195817,
Practice arrays/exp1a_trial_7_colour2_distractors9_r.png,r,3,,,,0,5,5,2,,,,,,,,,,,,,,,,,,,,,,,,,,,,,,,,,,,,,,,,,,,,,,,497.5066589639755,None,2,0.7473155820043758,497.5066589639755,None,498.30571859894553,None,3,1,1.6531403160188347,498.30571859894553,None,499.9556573659647,None,,,,,,,,,,,,,,,,,,,,,,,,,,24,001,2023_Jan_23_1343,searchDisc5,2021.2.3,59.96247500195817,
Practice arrays/exp1a_trial_25_colour3_distractors1_l.png,l,1,,,,0,6,6,11,,,,,,,,,,,,,,,,,,,,,,,,,,,,,,,,,,,,,,,,,,,,,,,501.9570923729916,None,2,0.6471916839946061,501.9570923729916,None,502.65713333996246,None,1,1,1.9395835860050283,502.65713333996246,None,504.58793875796255,None,,,,,,,,,,,,,,,,,,,,,,,,,,24,001,2023_Jan_23_1343,searchDisc5,2021.2.3,59.96247500195817,
Practice arrays/exp1a_trial_21_colour2_distractors4_l.png,l,1,,,,0,7,7,9,,,,,,,,,,,,,,,,,,,,,,,,,,,,,,,,,,,,,,,,,,,,,,,506.5903506509494,None,2,0.48256391601171345,506.5903506509494,None,507.1238095399458,None,1,1,1.5711781270219944,507.1238095399458,None,508.6884118729504,None,,,,,,,,,,,,,,,,,,,,,,,,,,24,001,2023_Jan_23_1343,searchDisc5,2021.2.3,59.96247500195817,
Practice arrays/exp1a_trial_18_colour1_distractors19_l.png,l,1,,,,0,8,8,8,,,,,,,,,,,,,,,,,,,,,,,,,,,,,,,,,,,,,,,,,,,,,,,510.6902860569535,None,2,0.6636985240038484,510.6902860569535,None,511.40812081098557,None,1,1,1.8510434360359795,511.40812081098557,None,513.256086726964,None,,,,,,,,,,,,,,,,,,,,,,,,,,24,001,2023_Jan_23_1343,searchDisc5,2021.2.3,59.96247500195817,
Practice arrays/exp1a_trial_0_colour1_distractors1_r.png,r,3,,,,0,9,9,0,,,,,,,,,,,,,,,,,,,,,,,,,,,,,,,,,,,,,,,,,,,,,,,515.2573236789904,None,2,0.46385215100599453,515.2573236789904,None,515.7740918169729,None,3,1,1.7730222720419988,515.7740918169729,None,517.5385716129676,None,,,,,,,,,,,,,,,,,,,,,,,,,,24,001,2023_Jan_23_1343,searchDisc5,2021.2.3,59.96247500195817,
Practice arrays/exp1a_trial_31_colour0_distractors0_l.png,l,1,,,,0,10,10,15,,,,,,,,,,,,,,,,,,,,,,,,,,,,,,,,,,,,,,,,,,,,,,,519.5387171339826,None,2,0.06891773297684267,519.5387171339826,None,519.6568522769958,None,1,1,1.1837367299594916,519.6568522769958,None,520.8395945929806,None,,,,,,,,,,,,,,,,,,,,,,,,,,24,001,2023_Jan_23_1343,searchDisc5,2021.2.3,59.96247500195817,
Practice arrays/exp1a_trial_23_colour2_distractors19_l.png,l,1,,,,0,11,11,10,,,,,,,,,,,,,,,,,,,,,,,,,,,,,,,,,,,,,,,,,,,,,,,522.8406248669489,None,2,1.330904460977763,522.8406248669489,None,524.223391935986,None,1,1,1.6655320579884574,524.223391935986,None,525.8896397619974,None,,,,,,,,,,,,,,,,,,,,,,,,,,24,001,2023_Jan_23_1343,searchDisc5,2021.2.3,59.96247500195817,
Practice arrays/exp1a_trial_27_colour3_distractors9_l.png,l,1,,,,0,12,12,12,,,,,,,,,,,,,,,,,,,,,,,,,,,,,,,,,,,,,,,,,,,,,,,527.8910125189577,None,2,0.5495033130282536,527.8910125189577,None,528.4899501699838,None,1,1,1.2020642069983296,528.4899501699838,None,529.689744084957,None,,,,,,,,,,,,,,,,,,,,,,,,,,24,001,2023_Jan_23_1343,searchDisc5,2021.2.3,59.96247500195817,
Practice arrays/exp1a_trial_10_colour3_distractors1_r.png,r,3,,,,0,13,13,4,,,,,,,,,,,,,,,,,,,,,,,,,,,,,,,,,,,,,,,,,,,,,,,531.6908843959682,None,2,0.44699947600020096,531.6908843959682,None,532.1898370649433,None,3,1,1.8240126179880463,532.1898370649433,None,534.0065673619974,None,,,,,,,,,,,,,,,,,,,,,,,,,,24,001,2023_Jan_23_1343,searchDisc5,2021.2.3,59.96247500195817,
Practice arrays/exp1a_trial_12_colour3_distractors9_r.png,r,3,,,,0,14,14,5,,,,,,,,,,,,,,,,,,,,,,,,,,,,,,,,,,,,,,,,,,,,,,,536.0078242189484,None,2,0.5147505200002342,536.0078242189484,None,536.57418817695,None,3,1,1.4656822640099563,536.57418817695,None,538.0390422669589,None,,,,,,,,,,,,,,,,,,,,,,,,,,24,001,2023_Jan_23_1343,searchDisc5,2021.2.3,59.96247500195817,
Practice arrays/exp1a_trial_1_colour1_distractors4_r.png,r,3,,,,0,15,15,1,,,,,,,,,,,,,,,,,,,,,,,,,,,,,,,,,,,,,,,,,,,,,,,540.0415032249875,None,2,0.5662124149966985,540.0415032249875,None,540.6565122289467,None,3,1,1.1858617099933326,540.6565122289467,None,541.8392925839871,None,,,,,,,,,,,,,,,,,,,,,,,,,,24,001,2023_Jan_23_1343,searchDisc5,2021.2.3,59.96247500195817,
,,,,,,,,,,,,,,,,,,,,,,,,,,,,,,,,,,,,,,,,,,,,,,,,,,,,,,,,,,,,,,,,,,,,,,,543.9245909909951,None,2,16.581303083046805,544.9078758649994,None,,,,,,,,,,,,,,,,,,,,24,001,2023_Jan_23_1343,searchDisc5,2021.2.3,59.96247500195817,
images/exp2c_trial_82_colour1_distractors19_l.png,l,1,1,19,0,,,,,0,0,0,0,,,,,,,,,,,,,,,,,,,,,,,,,,,,,,,,,,,,,,,,,,,575.1750837989966,None,2,3.8633227919926867,575.1750837989966,None,,,,,,,,,,,,,,,,562.0753815039643,None,2,11.099525425001048,564.0751902359771,None,579.1016505369917,None,1,1,2.6612423779442906,579.1016505369917,None,581.7732972909812,None,None,None,None,,24,001,2023_Jan_23_1343,searchDisc5,2021.2.3,59.96247500195817,
images/exp2b_trial_147_colour1_distractors31_l.png,l,1,1,31,0,,,,,0,1,1,1,,,,,,,,,,,,,,,,,,,,,,,,,,,,,,,,,,,,,,,,,,,581.7922194899875,None,2,2.3411685019964352,581.7922194899875,None,,,,,,,,,,,,,,,,None,None,None,,None,None,584.1747233009664,None,1,1,2.2844109470024705,584.1747233009664,None,586.4569438409933,None,None,None,None,,24,001,2023_Jan_23_1343,searchDisc5,2021.2.3,59.96247500195817,
images/exp1a_trial_168_colour2_distractors19_r.png,r,3,2,19,0,,,,,0,2,2,2,,,,,,,,,,,,,,,,,,,,,,,,,,,,,,,,,,,,,,,,,,,586.4737145099789,None,2,1.8564171699690633,586.4737145099789,None,,,,,,,,,,,,,,,,None,None,None,,None,None,588.3746785679832,None,3,1,1.5317303409683518,588.3746785679832,None,589.907135034952,None,None,None,None,,24,001,2023_Jan_23_1343,searchDisc5,2021.2.3,59.96247500195817,
images/exp2b_trial_243_colour1_distractors31_l.png,l,1,1,31,0,,,,,0,3,3,3,,,,,,,,,,,,,,,,,,,,,,,,,,,,,,,,,,,,,,,,,,,589.9237427269691,None,2,1.904193505004514,589.9237427269691,None,,,,,,,,,,,,,,,,None,None,None,,None,None,591.8770340239862,None,1,1,2.2522383279865608,591.8770340239862,None,594.1237889339507,None,None,None,None,,24,001,2023_Jan_23_1343,searchDisc5,2021.2.3,59.96247500195817,
images/exp1a_trial_52_colour2_distractors1_l.png,l,1,2,1,0,,,,,0,4,4,4,,,,,,,,,,,,,,,,,,,,,,,,,,,,,,,,,,,,,,,,,,,594.1408856319613,None,2,2.3068456040346064,594.1408856319613,None,,,,,,,,,,,,,,,,None,None,None,,None,None,596.4928607459879,None,1,1,1.3541005839942954,596.4928607459879,None,597.840694190975,None,None,None,None,,24,001,2023_Jan_23_1343,searchDisc5,2021.2.3,59.96247500195817,
images/exp2b_trial_20_colour2_distractors1_l.png,l,1,2,1,0,,,,,0,5,5,5,,,,,,,,,,,,,,,,,,,,,,,,,,,,,,,,,,,,,,,,,,,597.8571841169614,None,2,2.0889865120407194,597.8571841169614,None,,,,,,,,,,,,,,,,None,None,None,,None,None,599.9936053149868,None,1,1,1.5695318239741027,599.9936053149868,None,601.5575872809684,None,None,None,None,,24,001,2023_Jan_23_1343,searchDisc5,2021.2.3,59.96247500195817,
images/exp2a_trial_75_colour3_distractors4_r.png,r,3,3,4,0,,,,,0,6,6,6,,,,,,,,,,,,,,,,,,,,,,,,,,,,,,,,,,,,,,,,,,,601.5740324029466,None,2,1.5547170019708574,601.5740324029466,None,,,,,,,,,,,,,,,,None,None,None,,None,None,603.1761243729852,None,3,1,1.9705151950474828,603.1761243729852,None,605.140862743993,None,None,None,None,,24,001,2023_Jan_23_1343,searchDisc5,2021.2.3,59.96247500195817,
images/exp1a_trial_54_colour2_distractors9_l.png,l,1,2,9,0,,,,,0,7,7,7,,,,,,,,,,,,,,,,,,,,,,,,,,,,,,,,,,,,,,,,,,,605.1582759489538,None,2,1.8397660750197247,605.1582759489538,None,,,,,,,,,,,,,,,,None,None,None,,None,None,607.0414932429558,None,1,1,1.3012630509911105,607.0414932429558,None,608.3409002709493,None,None,None,None,,24,001,2023_Jan_23_1343,searchDisc5,2021.2.3,59.96247500195817,
images/exp2b_trial_61_colour3_distractors31_l.png,l,1,3,31,0,,,,,0,8,8,8,,,,,,,,,,,,,,,,,,,,,,,,,,,,,,,,,,,,,,,,,,,608.3575866969768,None,2,1.5545647770049982,608.3575866969768,None,,,,,,,,,,,,,,,,None,None,None,,None,None,609.9578323519672,None,1,1,1.2695297219906934,609.9578323519672,None,611.22428771095,None,None,None,None,,24,001,2023_Jan_23_1343,searchDisc5,2021.2.3,59.96247500195817,
images/exp2c_trial_278_colour2_distractors9_l.png,l,1,2,9,0,,,,,0,9,9,9,,,,,,,,,,,,,,,,,,,,,,,,,,,,,,,,,,,,,,,,,,,611.2418588549481,None,2,1.471450830984395,611.2418588549481,None,,,,,,,,,,,,,,,,None,None,None,,None,None,612.7608113409951,None,1,1,1.0546102390508167,612.7608113409951,None,613.8078872899466,None,None,None,None,,24,001,2023_Jan_23_1343,searchDisc5,2021.2.3,59.96247500195817,
images/exp1a_trial_185_colour3_distractors1_l.png,l,1,3,1,0,,,,,0,10,10,10,,,,,,,,,,,,,,,,,,,,,,,,,,,,,,,,,,,,,,,,,,,613.8254069709801,None,2,1.2375190220191143,613.8254069709801,None,,,,,,,,,,,,,,,,None,None,None,,None,None,615.109340261959,None,1,1,1.3560356870293617,615.109340261959,None,616.4577596799761,None,None,None,None,,24,001,2023_Jan_23_1343,searchDisc5,2021.2.3,59.96247500195817,
images/exp2a_trial_90_colour3_distractors4_l.png,l,1,3,4,0,,,,,0,11,11,11,,,,,,,,,,,,,,,,,,,,,,,,,,,,,,,,,,,,,,,,,,,616.4748280759668,None,2,1.3557842560112476,616.4748280759668,None,,,,,,,,,,,,,,,,None,None,None,,None,None,617.8746861519758,None,1,1,1.421109727001749,617.8746861519758,None,619.2911238819768,None,None,None,None,,24,001,2023_Jan_23_1343,searchDisc5,2021.2.3,59.96247500195817,
images/exp2a_trial_68_colour1_distractors31_r.png,r,3,1,31,0,,,,,0,12,12,12,,,,,,,,,,,,,,,,,,,,,,,,,,,,,,,,,,,,,,,,,,,619.310500025982,None,2,1.1211626839940436,619.310500025982,None,,,,,,,,,,,,,,,,None,None,None,,None,None,620.4747387759853,None,3,1,1.5517758670030162,620.4747387759853,None,622.024712197989,None,None,None,None,,24,001,2023_Jan_23_1343,searchDisc5,2021.2.3,59.96247500195817,
images/exp1a_trial_303_colour1_distractors1_l.png,l,1,1,1,0,,,,,0,13,13,13,,,,,,,,,,,,,,,,,,,,,,,,,,,,,,,,,,,,,,,,,,,622.0407342839753,None,2,1.2571764049935155,622.0407342839753,None,,,,,,,,,,,,,,,,None,None,None,,None,None,623.341785313969,None,1,1,2.417701351980213,623.341785313969,None,625.7576519809488,None,None,None,None,,24,001,2023_Jan_23_1343,searchDisc5,2021.2.3,59.96247500195817,
images/exp1a_trial_228_colour1_distractors31_r.png,r,3,1,31,0,,,,,0,14,14,14,,,,,,,,,,,,,,,,,,,,,,,,,,,,,,,,,,,,,,,,,,,625.7747244839557,None,2,1.1411313320277259,625.7747244839557,None,,,,,,,,,,,,,,,,None,None,None,,None,None,626.9617689009756,None,3,1,1.7331691610161215,626.9617689009756,None,628.692761740979,None,None,None,None,,24,001,2023_Jan_23_1343,searchDisc5,2021.2.3,59.96247500195817,
images/exp1a_trial_256_colour1_distractors1_r.png,r,3,1,1,0,,,,,0,15,15,15,,,,,,,,,,,,,,,,,,,,,,,,,,,,,,,,,,,,,,,,,,,628.7088681949535,None,2,1.1366134940180928,628.7088681949535,None,,,,,,,,,,,,,,,,None,None,None,,None,None,629.8944182099658,None,3,1,2.736699045985006,629.8944182099658,None,632.6248254399804,None,None,None,None,,24,001,2023_Jan_23_1343,searchDisc5,2021.2.3,59.96247500195817,
images/exp1a_trial_135_colour2_distractors9_r.png,r,3,2,9,0,,,,,0,16,16,16,,,,,,,,,,,,,,,,,,,,,,,,,,,,,,,,,,,,,,,,,,,632.6424609219539,None,2,1.5392102010082453,632.6424609219539,None,,,,,,,,,,,,,,,,None,None,None,,None,None,634.225065075967,None,3,1,1.370111159980297,634.225065075967,None,635.5916835799987,None,None,None,None,,24,001,2023_Jan_23_1343,searchDisc5,2021.2.3,59.96247500195817,
images/exp1a_trial_195_colour1_distractors19_r.png,r,3,1,19,0,,,,,0,17,17,17,,,,,,,,,,,,,,,,,,,,,,,,,,,,,,,,,,,,,,,,,,,635.6074631419615,None,2,1.1219936169800349,635.6074631419615,None,,,,,,,,,,,,,,,,None,None,None,,None,None,636.7752782469615,None,3,1,1.482293725013733,636.7752782469615,None,638.2584427589725,None,None,None,None,,24,001,2023_Jan_23_1343,searchDisc5,2021.2.3,59.96247500195817,
images/exp2b_trial_97_colour1_distractors4_r.png,r,3,1,4,0,,,,,0,18,18,18,,,,,,,,,,,,,,,,,,,,,,,,,,,,,,,,,,,,,,,,,,,638.2759537219536,None,2,1.7043244810192846,638.2759537219536,None,,,,,,,,,,,,,,,,None,None,None,,None,None,640.0260310709709,None,3,1,1.054466206987854,640.0260310709709,None,641.0751335819775,None,None,None,None,,24,001,2023_Jan_23_1343,searchDisc5,2021.2.3,59.96247500195817,
images/exp2a_trial_256_colour1_distractors1_r.png,r,3,1,1,0,,,,,0,19,19,19,,,,,,,,,,,,,,,,,,,,,,,,,,,,,,,,,,,,,,,,,,,641.092287699983,None,2,1.138782304013148,641.092287699983,None,,,,,,,,,,,,,,,,None,None,None,,None,None,642.2760161819751,None,3,1,1.3714430060354061,642.2760161819751,None,643.6420787719951,None,None,None,None,,24,001,2023_Jan_23_1343,searchDisc5,2021.2.3,59.96247500195817,
images/exp1a_trial_123_colour3_distractors9_l.png,l,1,3,9,0,,,,,0,20,20,20,,,,,,,,,,,,,,,,,,,,,,,,,,,,,,,,,,,,,,,,,,,643.6612637669896,None,2,0.9229990199673921,643.6612637669896,None,,,,,,,,,,,,,,,,None,None,None,,None,None,644.6256727609434,None,1,1,1.0829952179919928,644.6256727609434,None,645.7095573769591,None,None,None,None,,24,001,2023_Jan_23_1343,searchDisc5,2021.2.3,59.96247500195817,
images/exp2a_trial_274_colour1_distractors19_l.png,l,1,1,19,0,,,,,0,21,21,21,,,,,,,,,,,,,,,,,,,,,,,,,,,,,,,,,,,,,,,,,,,645.7250587139861,None,2,0.8870546570396982,645.7250587139861,None,,,,,,,,,,,,,,,,None,None,None,,None,None,646.660993361962,None,1,1,1.6198153580189683,646.660993361962,None,648.2753358269517,None,None,None,None,,24,001,2023_Jan_23_1343,searchDisc5,2021.2.3,59.96247500195817,
images/exp2a_trial_237_colour3_distractors19_r.png,r,3,3,19,0,,,,,0,22,22,22,,,,,,,,,,,,,,,,,,,,,,,,,,,,,,,,,,,,,,,,,,,648.2920089599793,None,2,0.8045752650359645,648.2920089599793,None,,,,,,,,,,,,,,,,None,None,None,,None,None,649.1434597069747,None,3,1,1.153988886042498,649.1434597069747,None,650.2920545629866,None,None,None,None,,24,001,2023_Jan_23_1343,searchDisc5,2021.2.3,59.96247500195817,
images/exp2c_trial_58_colour3_distractors4_l.png,l,1,3,4,0,,,,,0,23,23,23,,,,,,,,,,,,,,,,,,,,,,,,,,,,,,,,,,,,,,,,,,,650.3087414119509,None,2,0.9871168889803812,650.3087414119509,None,,,,,,,,,,,,,,,,None,None,None,,None,None,651.3430510079488,None,1,1,1.1252622900065035,651.3430510079488,None,652.4608408119936,None,None,None,None,,24,001,2023_Jan_23_1343,searchDisc5,2021.2.3,59.96247500195817,
images/exp2a_trial_301_colour3_distractors19_r.png,r,3,3,19,0,,,,,0,24,24,24,,,,,,,,,,,,,,,,,,,,,,,,,,,,,,,,,,,,,,,,,,,652.4784079379751,None,2,1.0387607999728061,652.4784079379751,None,,,,,,,,,,,,,,,,None,None,None,,None,None,653.5618956729886,None,3,1,0.951175497029908,653.5618956729886,None,654.5097297909495,None,None,None,None,,24,001,2023_Jan_23_1343,searchDisc5,2021.2.3,59.96247500195817,
images/exp2c_trial_56_colour2_distractors31_l.png,l,1,2,31,0,,,,,0,25,25,25,,,,,,,,,,,,,,,,,,,,,,,,,,,,,,,,,,,,,,,,,,,654.5258759099524,None,2,0.9533411100273952,654.5258759099524,None,,,,,,,,,,,,,,,,None,None,None,,None,None,655.5264143659733,None,1,1,0.9358635229873471,655.5264143659733,None,656.4589119859563,None,None,None,None,,24,001,2023_Jan_23_1343,searchDisc5,2021.2.3,59.96247500195817,
images/exp2c_trial_274_colour1_distractors19_l.png,l,1,1,19,0,,,,,0,26,26,26,,,,,,,,,,,,,,,,,,,,,,,,,,,,,,,,,,,,,,,,,,,656.4759660229902,None,2,0.9076385929947719,656.4759660229902,None,,,,,,,,,,,,,,,,None,None,None,,None,None,657.4277779929689,None,1,1,0.9518424139823765,657.4277779929689,None,658.3767484959506,None,None,None,None,,24,001,2023_Jan_23_1343,searchDisc5,2021.2.3,59.96247500195817,
images/exp1a_trial_247_colour2_distractors19_l.png,l,1,2,19,0,,,,,0,27,27,27,,,,,,,,,,,,,,,,,,,,,,,,,,,,,,,,,,,,,,,,,,,658.3921394269564,None,2,1.0032762400223874,658.3921394269564,None,,,,,,,,,,,,,,,,None,None,None,,None,None,659.4422531899763,None,1,1,1.1171698339749128,659.4422531899763,None,660.5591588169743,None,None,None,None,,24,001,2023_Jan_23_1343,searchDisc5,2021.2.3,59.96247500195817,
images/exp1a_trial_5_colour2_distractors1_r.png,r,3,2,1,0,,,,,0,28,28,28,,,,,,,,,,,,,,,,,,,,,,,,,,,,,,,,,,,,,,,,,,,660.5777433849871,None,2,1.322143113007769,660.5777433849871,None,,,,,,,,,,,,,,,,None,None,None,,None,None,661.9426429809537,None,3,1,1.1067880790214986,661.9426429809537,None,663.0424485039955,None,None,None,None,,24,001,2023_Jan_23_1343,searchDisc5,2021.2.3,59.96247500195817,
images/exp2b_trial_177_colour1_distractors9_l.png,l,1,1,9,0,,,,,0,29,29,29,,,,,,,,,,,,,,,,,,,,,,,,,,,,,,,,,,,,,,,,,,,663.0619665179984,None,2,0.771534881030675,663.0619665179984,None,,,,,,,,,,,,,,,,None,None,None,,None,None,663.8771301389788,None,1,1,1.3854223219677806,663.8771301389788,None,665.2591163879667,None,None,None,None,,24,001,2023_Jan_23_1343,searchDisc5,2021.2.3,59.96247500195817,
images/exp2a_trial_14_colour3_distractors31_r.png,r,3,3,31,0,,,,,0,30,30,30,,,,,,,,,,,,,,,,,,,,,,,,,,,,,,,,,,,,,,,,,,,665.276999154943,None,2,0.9542886330164038,665.276999154943,None,,,,,,,,,,,,,,,,None,None,None,,None,None,666.2765321159968,None,3,1,1.1035286390106194,666.2765321159968,None,667.37678557295,None,None,None,None,,24,001,2023_Jan_23_1343,searchDisc5,2021.2.3,59.96247500195817,
images/exp2c_trial_41_colour2_distractors31_r.png,r,3,2,31,0,,,,,0,31,31,31,,,,,,,,,,,,,,,,,,,,,,,,,,,,,,,,,,,,,,,,,,,667.3930987199419,None,2,1.1713843930047005,667.3930987199419,None,,,,,,,,,,,,,,,,None,None,None,,None,None,668.6096290459973,None,3,1,1.0183839820092544,668.6096290459973,None,669.6260332649515,None,None,None,None,,24,001,2023_Jan_23_1343,searchDisc5,2021.2.3,59.96247500195817,
images/exp2c_trial_133_colour2_distractors1_r.png,r,3,2,1,0,,,,,0,32,32,32,,,,,,,,,,,,,,,,,,,,,,,,,,,,,,,,,,,,,,,,,,,669.6432972839684,None,2,1.4721070739906281,669.6432972839684,None,,,,,,,,,,,,,,,,None,None,None,,None,None,671.161657891993,None,3,1,1.1046799260075204,671.161657891993,None,672.2594276729913,None,None,None,None,,24,001,2023_Jan_23_1343,searchDisc5,2021.2.3,59.96247500195817,
images/exp2b_trial_23_colour2_distractors19_l.png,l,1,2,19,0,,,,,0,33,33,33,,,,,,,,,,,,,,,,,,,,,,,,,,,,,,,,,,,,,,,,,,,672.2779631399899,None,2,1.0730898650363088,672.2779631399899,None,,,,,,,,,,,,,,,,None,None,None,,None,None,673.3949913869728,None,1,1,1.1348220449872315,673.3949913869728,None,674.5260271259874,None,None,None,None,,24,001,2023_Jan_23_1343,searchDisc5,2021.2.3,59.96247500195817,
images/exp2b_trial_144_colour1_distractors4_l.png,l,1,1,4,0,,,,,0,34,34,34,,,,,,,,,,,,,,,,,,,,,,,,,,,,,,,,,,,,,,,,,,,674.5434735419694,None,2,0.8402709889924154,674.5434735419694,None,,,,,,,,,,,,,,,,None,None,None,,None,None,675.4271660569939,None,1,1,1.0365213259938173,675.4271660569939,None,676.4594069179554,None,None,None,None,,24,001,2023_Jan_23_1343,searchDisc5,2021.2.3,59.96247500195817,
images/exp1a_trial_254_colour0_distractors0_r.png,r,3,0,0,0,,,,,0,35,35,35,,,,,,,,,,,,,,,,,,,,,,,,,,,,,,,,,,,,,,,,,,,676.4763160259463,None,2,0.9380707530071959,676.4763160259463,None,,,,,,,,,,,,,,,,None,None,None,,None,None,677.46096196695,None,3,1,1.0415948170120828,677.46096196695,None,678.4950477159989,None,None,None,None,,24,001,2023_Jan_23_1343,searchDisc5,2021.2.3,59.96247500195817,
images/exp1a_trial_132_colour1_distractors31_r.png,r,3,1,31,0,,,,,0,36,36,36,,,,,,,,,,,,,,,,,,,,,,,,,,,,,,,,,,,,,,,,,,,678.5098361619748,None,2,0.9027982509578578,678.5098361619748,None,,,,,,,,,,,,,,,,None,None,None,,None,None,679.4608987329993,None,3,1,1.649062626005616,679.4608987329993,None,681.109611672972,None,None,None,None,,24,001,2023_Jan_23_1343,searchDisc5,2021.2.3,59.96247500195817,
images/exp2c_trial_264_colour2_distractors19_r.png,r,3,2,19,0,,,,,0,37,37,37,,,,,,,,,,,,,,,,,,,,,,,,,,,,,,,,,,,,,,,,,,,681.1268250779831,None,2,0.973748477990739,681.1268250779831,None,,,,,,,,,,,,,,,,None,None,None,,None,None,682.1433344259858,None,3,1,0.9032480680034496,682.1433344259858,None,683.0431681649468,None,None,None,None,,24,001,2023_Jan_23_1343,searchDisc5,2021.2.3,59.96247500195817,
images/exp2a_trial_255_colour0_distractors0_l.png,l,1,0,0,0,,,,,0,38,38,38,,,,,,,,,,,,,,,,,,,,,,,,,,,,,,,,,,,,,,,,,,,683.0603633429855,None,2,1.0199615210294724,683.0603633429855,None,,,,,,,,,,,,,,,,None,None,None,,None,None,684.1265654819435,None,1,1,0.9715134680154733,684.1265654819435,None,685.0926786030002,None,None,None,None,,24,001,2023_Jan_23_1343,searchDisc5,2021.2.3,59.96247500195817,
images/exp2c_trial_296_colour2_distractors19_r.png,r,3,2,19,0,,,,,0,39,39,39,,,,,,,,,,,,,,,,,,,,,,,,,,,,,,,,,,,,,,,,,,,685.1096688459511,None,2,1.0384129069861956,685.1096688459511,None,,,,,,,,,,,,,,,,None,None,None,,None,None,686.1954684199882,None,3,1,0.9219321999698877,686.1954684199882,None,687.1097567539953,None,None,None,None,,24,001,2023_Jan_23_1343,searchDisc5,2021.2.3,59.96247500195817,
images/exp1a_trial_20_colour2_distractors1_l.png,l,1,2,1,0,,,,,0,40,40,40,,,,,,,,,,,,,,,,,,,,,,,,,,,,,,,,,,,,,,,,,,,687.1287770609488,None,2,1.0193336459924467,687.1287770609488,None,,,,,,,,,,,,,,,,None,None,None,,None,None,688.193538861,None,1,1,1.9731664510327391,688.193538861,None,690.1598658299597,None,None,None,None,,24,001,2023_Jan_23_1343,searchDisc5,2021.2.3,59.96247500195817,
images/exp2c_trial_20_colour2_distractors1_l.png,l,1,2,1,0,,,,,0,41,41,41,,,,,,,,,,,,,,,,,,,,,,,,,,,,,,,,,,,,,,,,,,,690.1774694509804,None,2,0.7895110649988055,690.1774694509804,None,,,,,,,,,,,,,,,,None,None,None,,None,None,691.0125651949784,None,1,1,1.0365638239891268,691.0125651949784,None,692.0425739729951,None,None,None,None,,24,001,2023_Jan_23_1343,searchDisc5,2021.2.3,59.96247500195817,
images/exp2a_trial_242_colour1_distractors19_l.png,l,1,1,19,0,,,,,0,42,42,42,,,,,,,,,,,,,,,,,,,,,,,,,,,,,,,,,,,,,,,,,,,692.0609163099434,None,2,1.205118014011532,692.0609163099434,None,,,,,,,,,,,,,,,,None,None,None,,None,None,693.3130524219596,None,1,1,0.8531830979627557,693.3130524219596,None,694.1599645189533,None,None,None,None,,24,001,2023_Jan_23_1343,searchDisc5,2021.2.3,59.96247500195817,
images/exp2b_trial_319_colour0_distractors0_l.png,l,1,0,0,0,,,,,0,43,43,43,,,,,,,,,,,,,,,,,,,,,,,,,,,,,,,,,,,,,,,,,,,694.1777260679519,None,2,1.2566358799813315,694.1777260679519,None,,,,,,,,,,,,,,,,None,None,None,,None,None,695.4792266939767,None,1,1,0.7873130710213445,695.4792266939767,None,696.260146571946,None,None,None,None,,24,001,2023_Jan_23_1343,searchDisc5,2021.2.3,59.96247500195817,
images/exp1a_trial_280_colour2_distractors31_l.png,l,1,2,31,0,,,,,0,44,44,44,,,,,,,,,,,,,,,,,,,,,,,,,,,,,,,,,,,,,,,,,,,696.2766003869474,None,2,0.95658005902078,696.2766003869474,None,,,,,,,,,,,,,,,,None,None,None,,None,None,697.2798792099929,None,1,1,0.9996496869716793,697.2798792099929,None,698.2778658129798,None,None,None,None,,24,001,2023_Jan_23_1343,searchDisc5,2021.2.3,59.96247500195817,
images/exp1a_trial_130_colour1_distractors9_r.png,r,3,1,9,0,,,,,0,45,45,45,,,,,,,,,,,,,,,,,,,,,,,,,,,,,,,,,,,,,,,,,,,698.2932823389419,None,2,2.2881601179833524,698.2932823389419,None,,,,,,,,,,,,,,,,None,None,None,,None,None,700.6289992899983,None,3,1,1.2515802949783392,700.6289992899983,None,701.876873537997,None,None,None,None,,24,001,2023_Jan_23_1343,searchDisc5,2021.2.3,59.96247500195817,
images/exp1a_trial_144_colour1_distractors4_l.png,l,1,1,4,0,,,,,0,46,46,46,,,,,,,,,,,,,,,,,,,,,,,,,,,,,,,,,,,,,,,,,,,701.8931853779941,None,2,0.8380716270185076,701.8931853779941,None,,,,,,,,,,,,,,,,None,None,None,,None,None,702.7776570619899,None,1,1,1.0507605349994265,702.7776570619899,None,703.8269603089836,None,None,None,None,,24,001,2023_Jan_23_1343,searchDisc5,2021.2.3,59.96247500195817,
images/exp1a_trial_211_colour1_distractors31_l.png,l,1,1,31,0,,,,,0,47,47,47,,,,,,,,,,,,,,,,,,,,,,,,,,,,,,,,,,,,,,,,,,,703.8435321629513,None,2,0.8719076149864122,703.8435321629513,None,,,,,,,,,,,,,,,,None,None,None,,None,None,704.7606030089664,None,1,1,0.9154390529729426,704.7606030089664,None,705.676828030945,None,None,None,None,,24,001,2023_Jan_23_1343,searchDisc5,2021.2.3,59.96247500195817,
images/exp1a_trial_298_colour3_distractors1_r.png,r,3,3,1,0,,,,,0,48,48,48,,,,,,,,,,,,,,,,,,,,,,,,,,,,,,,,,,,,,,,,,,,705.6940041079652,None,2,1.1407057489850558,705.6940041079652,None,,,,,,,,,,,,,,,,None,None,None,,None,None,706.8771287659765,None,3,1,1.4030864260275848,706.8771287659765,None,708.2770637519832,None,None,None,None,,24,001,2023_Jan_23_1343,searchDisc5,2021.2.3,59.96247500195817,
images/exp2c_trial_97_colour1_distractors4_r.png,r,3,1,4,0,,,,,0,49,49,49,,,,,,,,,,,,,,,,,,,,,,,,,,,,,,,,,,,,,,,,,,,708.2944484409527,None,2,0.7386420220136642,708.2944484409527,None,,,,,,,,,,,,,,,,None,None,None,,None,None,709.0798951839679,None,3,1,0.82217280799523,709.0798951839679,None,709.8946355129999,None,None,None,None,,24,001,2023_Jan_23_1343,searchDisc5,2021.2.3,59.96247500195817,
images/exp2a_trial_297_colour2_distractors31_r.png,r,3,2,31,0,,,,,0,50,50,50,,,,,,,,,,,,,,,,,,,,,,,,,,,,,,,,,,,,,,,,,,,709.9103694219957,None,2,1.0527721279649995,709.9103694219957,None,,,,,,,,,,,,,,,,None,None,None,,None,None,711.0142800789909,None,3,1,1.3463697970146313,711.0142800789909,None,712.3604472279956,None,None,None,None,,24,001,2023_Jan_23_1343,searchDisc5,2021.2.3,59.96247500195817,
images/exp2b_trial_82_colour1_distractors19_l.png,l,1,1,19,0,,,,,0,51,51,51,,,,,,,,,,,,,,,,,,,,,,,,,,,,,,,,,,,,,,,,,,,712.3778571219882,None,2,0.9552909700432792,712.3778571219882,None,,,,,,,,,,,,,,,,None,None,None,,None,None,713.3782718259608,None,1,1,0.920767922012601,713.3782718259608,None,714.2937396619643,None,None,None,None,,24,001,2023_Jan_23_1343,searchDisc5,2021.2.3,59.96247500195817,
images/exp2a_trial_222_colour0_distractors0_r.png,r,3,0,0,0,,,,,0,52,52,52,,,,,,,,,,,,,,,,,,,,,,,,,,,,,,,,,,,,,,,,,,,714.3103371849866,None,2,1.054312197957188,714.3103371849866,None,,,,,,,,,,,,,,,,None,None,None,,None,None,715.4104499219684,None,3,1,0.8707949350355193,715.4104499219684,None,716.2765825689828,None,None,None,None,,24,001,2023_Jan_23_1343,searchDisc5,2021.2.3,59.96247500195817,
images/exp2a_trial_182_colour2_distractors9_l.png,l,1,2,9,0,,,,,0,53,53,53,,,,,,,,,,,,,,,,,,,,,,,,,,,,,,,,,,,,,,,,,,,716.2941304979613,None,2,0.8551364880404435,716.2941304979613,None,,,,,,,,,,,,,,,,None,None,None,,None,None,717.1970440109726,None,1,1,1.2688842579955235,717.1970440109726,None,718.4616322499758,None,None,None,None,,24,001,2023_Jan_23_1343,searchDisc5,2021.2.3,59.96247500195817,
images/exp2c_trial_308_colour2_distractors1_l.png,l,1,2,1,0,,,,,0,54,54,54,,,,,,,,,,,,,,,,,,,,,,,,,,,,,,,,,,,,,,,,,,,718.4780495259911,None,2,0.8896582999732345,718.4780495259911,None,,,,,,,,,,,,,,,,None,None,None,,None,None,719.4140708829509,None,1,1,0.8363682989729568,719.4140708829509,None,720.2440525979443,None,None,None,None,,24,001,2023_Jan_23_1343,searchDisc5,2021.2.3,59.96247500195817,
images/exp2b_trial_60_colour3_distractors19_l.png,l,1,3,19,0,,,,,0,55,55,55,,,,,,,,,,,,,,,,,,,,,,,,,,,,,,,,,,,,,,,,,,,720.2612389559508,None,2,0.8721123290015385,720.2612389559508,None,,,,,,,,,,,,,,,,None,None,None,,None,None,721.179832809954,None,1,1,0.9518886440200731,721.179832809954,None,722.1273628659953,None,None,None,None,,24,001,2023_Jan_23_1343,searchDisc5,2021.2.3,59.96247500195817,
images/exp2a_trial_117_colour2_distractors4_l.png,l,1,2,4,0,,,,,0,56,56,56,,,,,,,,,,,,,,,,,,,,,,,,,,,,,,,,,,,,,,,,,,,722.1440336929518,None,2,0.9564273610012606,722.1440336929518,None,,,,,,,,,,,,,,,,None,None,None,,None,None,723.1462629339658,None,1,1,0.784904970030766,723.1462629339658,None,723.9274669769627,None,None,None,None,,24,001,2023_Jan_23_1343,searchDisc5,2021.2.3,59.96247500195817,
images/exp2c_trial_319_colour0_distractors0_l.png,l,1,0,0,0,,,,,0,57,57,57,,,,,,,,,,,,,,,,,,,,,,,,,,,,,,,,,,,,,,,,,,,723.9441543899593,None,2,0.9568313130293973,723.9441543899593,None,,,,,,,,,,,,,,,,None,None,None,,None,None,724.9452704649884,None,1,1,0.7875153530039825,724.9452704649884,None,725.7274977749737,None,None,None,None,,24,001,2023_Jan_23_1343,searchDisc5,2021.2.3,59.96247500195817,
images/exp1a_trial_313_colour3_distractors1_l.png,l,1,3,1,0,,,,,0,58,58,58,,,,,,,,,,,,,,,,,,,,,,,,,,,,,,,,,,,,,,,,,,,725.7448639809736,None,2,0.905335996998474,725.7448639809736,None,,,,,,,,,,,,,,,,None,None,None,,None,None,726.6945912469528,None,1,1,1.488500280014705,726.6945912469528,None,728.1775338749692,None,None,None,None,,24,001,2023_Jan_23_1343,searchDisc5,2021.2.3,59.96247500195817,
images/exp2a_trial_72_colour2_distractors19_r.png,r,3,2,19,0,,,,,0,59,59,59,,,,,,,,,,,,,,,,,,,,,,,,,,,,,,,,,,,,,,,,,,,728.1967776549864,None,2,1.2555827250471339,728.1967776549864,None,,,,,,,,,,,,,,,,None,None,None,,None,None,729.4947234449792,None,3,1,1.1821564540150575,729.4947234449792,None,730.6777776129718,None,None,None,None,,24,001,2023_Jan_23_1343,searchDisc5,2021.2.3,59.96247500195817,
images/exp2b_trial_15_colour1_distractors1_l.png,l,1,1,1,0,,,,,0,60,60,60,,,,,,,,,,,,,,,,,,,,,,,,,,,,,,,,,,,,,,,,,,,730.6953552539926,None,2,0.8238119630259462,730.6953552539926,None,,,,,,,,,,,,,,,,None,None,None,,None,None,731.5614169409964,None,1,1,0.7197423150064424,731.5614169409964,None,732.2776376549562,None,None,None,None,,24,001,2023_Jan_23_1343,searchDisc5,2021.2.3,59.96247500195817,
images/exp2a_trial_241_colour1_distractors9_l.png,l,1,1,9,0,,,,,0,61,61,61,,,,,,,,,,,,,,,,,,,,,,,,,,,,,,,,,,,,,,,,,,,732.2943540739943,None,2,0.9234386059688404,732.2943540739943,None,,,,,,,,,,,,,,,,None,None,None,,None,None,733.2637048489996,None,1,1,0.9026476109866053,733.2637048489996,None,734.1610170309839,None,None,None,None,,24,001,2023_Jan_23_1343,searchDisc5,2021.2.3,59.96247500195817,
images/exp2a_trial_184_colour2_distractors31_l.png,l,1,2,31,0,,,,,0,62,62,62,,,,,,,,,,,,,,,,,,,,,,,,,,,,,,,,,,,,,,,,,,,734.1778240019921,None,2,0.9400044800131582,734.1778240019921,None,,,,,,,,,,,,,,,,None,None,None,,None,None,735.1608261749498,None,1,1,1.4930642149993218,735.1608261749498,None,736.6610737279814,None,None,None,None,,24,001,2023_Jan_23_1343,searchDisc5,2021.2.3,59.96247500195817,
images/exp2c_trial_35_colour1_distractors19_r.png,r,3,1,19,0,,,,,0,63,63,63,,,,,,,,,,,,,,,,,,,,,,,,,,,,,,,,,,,,,,,,,,,736.6798478769488,None,2,0.8212782159680501,736.6798478769488,None,,,,,,,,,,,,,,,,None,None,None,,None,None,737.5461864529643,None,3,1,1.2220803069649264,737.5461864529643,None,738.7613401169481,None,None,None,None,,24,001,2023_Jan_23_1343,searchDisc5,2021.2.3,59.96247500195817,
images/exp2b_trial_110_colour3_distractors31_r.png,r,3,3,31,0,,,,,0,64,64,64,,,,,,,,,,,,,,,,,,,,,,,,,,,,,,,,,,,,,,,,,,,738.7786279049469,None,2,1.1032553550321609,738.7786279049469,None,,,,,,,,,,,,,,,,None,None,None,,None,None,739.9287031109561,None,3,1,1.2352137499838136,739.9287031109561,None,741.1605105319584,None,None,None,None,,24,001,2023_Jan_23_1343,searchDisc5,2021.2.3,59.96247500195817,
images/exp1a_trial_102_colour2_distractors4_r.png,r,3,2,4,0,,,,,0,65,65,65,,,,,,,,,,,,,,,,,,,,,,,,,,,,,,,,,,,,,,,,,,,741.1799790029763,None,2,0.9724744210252538,741.1799790029763,None,,,,,,,,,,,,,,,,None,None,None,,None,None,742.1949278539978,None,3,1,1.071379101020284,742.1949278539978,None,743.2623872869706,None,None,None,None,,24,001,2023_Jan_23_1343,searchDisc5,2021.2.3,59.96247500195817,
images/exp1a_trial_224_colour1_distractors1_r.png,r,3,1,1,0,,,,,0,66,66,66,,,,,,,,,,,,,,,,,,,,,,,,,,,,,,,,,,,,,,,,,,,743.2806041479926,None,2,0.8202742830035277,743.2806041479926,None,,,,,,,,,,,,,,,,None,None,None,,None,None,744.1453677449608,None,3,1,0.8055995720205829,744.1453677449608,None,744.9446401069697,None,None,None,None,,24,001,2023_Jan_23_1343,searchDisc5,2021.2.3,59.96247500195817,
images/exp2c_trial_136_colour2_distractors19_r.png,r,3,2,19,0,,,,,0,67,67,67,,,,,,,,,,,,,,,,,,,,,,,,,,,,,,,,,,,,,,,,,,,744.9619218569715,None,2,0.8401802470325492,744.9619218569715,None,,,,,,,,,,,,,,,,None,None,None,,None,None,745.8472159219673,None,3,1,0.7518229449633509,745.8472159219673,None,746.5957522269862,None,None,None,None,,24,001,2023_Jan_23_1343,searchDisc5,2021.2.3,59.96247500195817,
images/exp2b_trial_72_colour2_distractors19_r.png,r,3,2,19,0,,,,,0,68,68,68,,,,,,,,,,,,,,,,,,,,,,,,,,,,,,,,,,,,,,,,,,,746.6114246719517,None,2,0.8042819330003113,746.6114246719517,None,,,,,,,,,,,,,,,,None,None,None,,None,None,747.4616628199583,None,3,1,0.8370815439848229,747.4616628199583,None,748.2959210499946,None,None,None,None,,24,001,2023_Jan_23_1343,searchDisc5,2021.2.3,59.96247500195817,
images/exp1a_trial_25_colour3_distractors1_l.png,l,1,3,1,0,,,,,0,69,69,69,,,,,,,,,,,,,,,,,,,,,,,,,,,,,,,,,,,,,,,,,,,748.3142460569507,None,2,0.7869283510372043,748.3142460569507,None,,,,,,,,,,,,,,,,None,None,None,,None,None,749.1449410589994,None,1,1,0.9725851609837264,749.1449410589994,None,750.1115949969796,None,None,None,None,,24,001,2023_Jan_23_1343,searchDisc5,2021.2.3,59.96247500195817,
images/exp2c_trial_198_colour2_distractors4_r.png,r,3,2,4,0,,,,,0,70,70,70,,,,,,,,,,,,,,,,,,,,,,,,,,,,,,,,,,,,,,,,,,,750.1292388399597,None,2,0.7880155780003406,750.1292388399597,None,,,,,,,,,,,,,,,,None,None,None,,None,None,750.9617095219437,None,3,1,1.0216587000177242,750.9617095219437,None,751.9782414979825,None,None,None,None,,24,001,2023_Jan_23_1343,searchDisc5,2021.2.3,59.96247500195817,
images/exp2a_trial_96_colour1_distractors1_r.png,r,3,1,1,0,,,,,0,71,71,71,,,,,,,,,,,,,,,,,,,,,,,,,,,,,,,,,,,,,,,,,,,751.9950469769537,None,2,0.8387282929616049,751.9950469769537,None,,,,,,,,,,,,,,,,None,None,None,,None,None,752.8813248769729,None,3,1,0.8721174119855277,752.8813248769729,None,753.7450554529612,None,None,None,None,,24,001,2023_Jan_23_1343,searchDisc5,2021.2.3,59.96247500195817,
images/exp1a_trial_310_colour2_distractors9_l.png,l,1,2,9,0,,,,,0,72,72,72,,,,,,,,,,,,,,,,,,,,,,,,,,,,,,,,,,,,,,,,,,,753.7622111669625,None,2,0.8554151779972017,753.7622111669625,None,,,,,,,,,,,,,,,,None,None,None,,None,None,754.663098628982,None,1,1,0.7358529060147703,754.663098628982,None,755.3950472779513,None,None,None,None,,24,001,2023_Jan_23_1343,searchDisc5,2021.2.3,59.96247500195817,
images/exp2c_trial_1_colour1_distractors4_r.png,r,3,1,4,0,,,,,0,73,73,73,,,,,,,,,,,,,,,,,,,,,,,,,,,,,,,,,,,,,,,,,,,755.4124733929639,None,2,0.940559356007725,755.4124733929639,None,,,,,,,,,,,,,,,,None,None,None,,None,None,756.3977792979567,None,3,1,0.8693078329670243,756.3977792979567,None,757.2616468579915,None,None,None,None,,24,001,2023_Jan_23_1343,searchDisc5,2021.2.3,59.96247500195817,
images/exp2b_trial_50_colour1_distractors19_l.png,l,1,1,19,0,,,,,0,74,74,74,,,,,,,,,,,,,,,,,,,,,,,,,,,,,,,,,,,,,,,,,,,757.2774638219853,None,2,0.8714453050051816,757.2774638219853,None,,,,,,,,,,,,,,,,None,None,None,,None,None,758.1978781339712,None,1,1,1.3371630089823157,758.1978781339712,None,759.5285379609966,None,None,None,None,,24,001,2023_Jan_23_1343,searchDisc5,2021.2.3,59.96247500195817,
images/exp1a_trial_103_colour2_distractors9_r.png,r,3,2,9,0,,,,,0,75,75,75,,,,,,,,,,,,,,,,,,,,,,,,,,,,,,,,,,,,,,,,,,,759.5461555639631,None,2,0.7041155939805321,759.5461555639631,None,,,,,,,,,,,,,,,,None,None,None,,None,None,760.2953140629688,None,3,1,1.0036765919649042,760.2953140629688,None,761.2952864109945,None,None,None,None,,24,001,2023_Jan_23_1343,searchDisc5,2021.2.3,59.96247500195817,
images/exp2c_trial_165_colour2_distractors1_r.png,r,3,2,1,0,,,,,0,76,76,76,,,,,,,,,,,,,,,,,,,,,,,,,,,,,,,,,,,,,,,,,,,761.3119722949923,None,2,1.106114755035378,761.3119722949923,None,,,,,,,,,,,,,,,,None,None,None,,None,None,762.4648374469834,None,3,1,1.0556998190004379,762.4648374469834,None,763.5118908099655,None,None,None,None,,24,001,2023_Jan_23_1343,searchDisc5,2021.2.3,59.96247500195817,
images/exp1a_trial_179_colour1_distractors31_l.png,l,1,1,31,0,,,,,0,77,77,77,,,,,,,,,,,,,,,,,,,,,,,,,,,,,,,,,,,,,,,,,,,763.5277892859885,None,2,1.1701116419862956,763.5277892859885,None,,,,,,,,,,,,,,,,None,None,None,,None,None,764.7482275189832,None,1,1,1.4000199610018171,764.7482275189832,None,766.1449527989432,None,None,None,None,,24,001,2023_Jan_23_1343,searchDisc5,2021.2.3,59.96247500195817,
images/exp1a_trial_107_colour3_distractors4_r.png,r,3,3,4,0,,,,,0,78,78,78,,,,,,,,,,,,,,,,,,,,,,,,,,,,,,,,,,,,,,,,,,,766.162561694975,None,2,0.9547219719970599,766.162561694975,None,,,,,,,,,,,,,,,,None,None,None,,None,None,767.1627030799864,None,3,1,0.9559189439751208,767.1627030799864,None,768.1131855359824,None,None,None,None,,24,001,2023_Jan_23_1343,searchDisc5,2021.2.3,59.96247500195817,
images/exp1a_trial_177_colour1_distractors9_l.png,l,1,1,9,0,,,,,0,79,79,79,,,,,,,,,,,,,,,,,,,,,,,,,,,,,,,,,,,,,,,,,,,768.128620198986,None,2,0.9712897510034963,768.128620198986,None,,,,,,,,,,,,,,,,None,None,None,,None,None,769.1465959969792,None,1,1,1.0519954500487074,769.1465959969792,None,770.1952681979571,None,None,None,None,,24,001,2023_Jan_23_1343,searchDisc5,2021.2.3,59.96247500195817,
images/exp2a_trial_252_colour3_distractors19_l.png,l,1,3,19,0,,,,,0,80,80,80,,,,,,,,,,,,,,,,,,,,,,,,,,,,,,,,,,,,,,,,,,,770.2126121629844,None,2,1.0888530889642425,770.2126121629844,None,,,,,,,,,,,,,,,,None,None,None,,None,None,771.3476970009506,None,1,1,1.1518963520065881,771.3476970009506,None,772.4953795119479,None,None,None,None,,24,001,2023_Jan_23_1343,searchDisc5,2021.2.3,59.96247500195817,
images/exp2a_trial_211_colour1_distractors31_l.png,l,1,1,31,0,,,,,0,81,81,81,,,,,,,,,,,,,,,,,,,,,,,,,,,,,,,,,,,,,,,,,,,772.5126419109874,None,2,1.1214647839660756,772.5126419109874,None,,,,,,,,,,,,,,,,None,None,None,,None,None,773.679544573999,None,1,1,1.1528051189961843,773.679544573999,None,774.8288675039482,None,None,None,None,,24,001,2023_Jan_23_1343,searchDisc5,2021.2.3,59.96247500195817,
images/exp1a_trial_99_colour1_distractors19_r.png,r,3,1,19,0,,,,,0,82,82,82,,,,,,,,,,,,,,,,,,,,,,,,,,,,,,,,,,,,,,,,,,,774.848570838978,None,2,0.9700554550508969,774.848570838978,None,,,,,,,,,,,,,,,,None,None,None,,None,None,775.8630903929588,None,3,1,1.3524731800425798,775.8630903929588,None,777.2122410649724,None,None,None,None,,24,001,2023_Jan_23_1343,searchDisc5,2021.2.3,59.96247500195817,
images/exp2b_trial_142_colour3_distractors31_r.png,r,3,3,31,0,,,,,0,83,83,83,,,,,,,,,,,,,,,,,,,,,,,,,,,,,,,,,,,,,,,,,,,777.2295221409877,None,2,0.8376156519516371,777.2295221409877,None,,,,,,,,,,,,,,,,None,None,None,,None,None,778.1146043619956,None,3,1,0.9701917499769479,778.1146043619956,None,779.0791183039953,None,None,None,None,,24,001,2023_Jan_23_1343,searchDisc5,2021.2.3,59.96247500195817,
images/exp2a_trial_71_colour2_distractors9_r.png,r,3,2,9,0,,,,,0,84,84,84,,,,,,,,,,,,,,,,,,,,,,,,,,,,,,,,,,,,,,,,,,,779.0948431279976,None,2,0.9576713450369425,779.0948431279976,None,,,,,,,,,,,,,,,,None,None,None,,None,None,780.09867940197,None,3,1,1.3807743189972825,780.09867940197,None,781.4791851889865,None,None,None,None,,24,001,2023_Jan_23_1343,searchDisc5,2021.2.3,59.96247500195817,
images/exp2b_trial_217_colour3_distractors1_l.png,l,1,3,1,0,,,,,0,85,85,85,,,,,,,,,,,,,,,,,,,,,,,,,,,,,,,,,,,,,,,,,,,781.4964324349421,None,2,1.0720649549621157,781.4964324349421,None,,,,,,,,,,,,,,,,None,None,None,,None,None,782.614479035954,None,1,1,0.8026442260015756,782.614479035954,None,783.4124160629988,None,None,None,None,,24,001,2023_Jan_23_1343,searchDisc5,2021.2.3,59.96247500195817,
images/exp2a_trial_313_colour3_distractors1_l.png,l,1,3,1,0,,,,,0,86,86,86,,,,,,,,,,,,,,,,,,,,,,,,,,,,,,,,,,,,,,,,,,,783.4290212789783,None,2,0.8738064029603265,783.4290212789783,None,,,,,,,,,,,,,,,,None,None,None,,None,None,784.3486318609794,None,1,1,1.0202135309809819,784.3486318609794,None,785.3624454699864,None,None,None,None,,24,001,2023_Jan_23_1343,searchDisc5,2021.2.3,59.96247500195817,
images/exp1a_trial_138_colour3_distractors1_r.png,r,3,3,1,0,,,,,0,87,87,87,,,,,,,,,,,,,,,,,,,,,,,,,,,,,,,,,,,,,,,,,,,785.3821987649426,None,2,0.8730235840193927,785.3821987649426,None,,,,,,,,,,,,,,,,None,None,None,,None,None,786.2989720989717,None,3,1,1.18696484901011,786.2989720989717,None,787.4785899440001,None,None,None,None,,24,001,2023_Jan_23_1343,searchDisc5,2021.2.3,59.96247500195817,
images/exp2c_trial_191_colour0_distractors0_l.png,l,1,0,0,0,,,,,0,88,88,88,,,,,,,,,,,,,,,,,,,,,,,,,,,,,,,,,,,,,,,,,,,787.4967570039444,None,2,0.8051961470046081,787.4967570039444,None,,,,,,,,,,,,,,,,None,None,None,,None,None,788.3466384919593,None,1,1,1.1223542090156116,788.3466384919593,None,789.4625462779484,None,None,None,None,,24,001,2023_Jan_23_1343,searchDisc5,2021.2.3,59.96247500195817,
images/exp2c_trial_26_colour3_distractors4_l.png,l,1,3,4,0,,,,,0,89,89,89,,,,,,,,,,,,,,,,,,,,,,,,,,,,,,,,,,,,,,,,,,,789.4793030339642,None,2,0.9214180590352044,789.4793030339642,None,,,,,,,,,,,,,,,,None,None,None,,None,None,790.448618993978,None,1,1,1.4052371099824086,790.448618993978,None,791.8461252369859,None,None,None,None,,24,001,2023_Jan_23_1343,searchDisc5,2021.2.3,59.96247500195817,
images/exp2b_trial_138_colour3_distractors1_r.png,r,3,3,1,0,,,,,0,90,90,90,,,,,,,,,,,,,,,,,,,,,,,,,,,,,,,,,,,,,,,,,,,791.8634579589707,None,2,0.7542999129509553,791.8634579589707,None,,,,,,,,,,,,,,,,None,None,None,,None,None,792.662472876953,None,3,1,0.8391189459944144,792.662472876953,None,793.4958909939567,None,None,None,None,,24,001,2023_Jan_23_1343,searchDisc5,2021.2.3,59.96247500195817,
images/exp2c_trial_203_colour3_distractors4_r.png,r,3,3,4,0,,,,,0,91,91,91,,,,,,,,,,,,,,,,,,,,,,,,,,,,,,,,,,,,,,,,,,,793.5130031959852,None,2,0.558074748958461,793.5130031959852,None,,,,,,,,,,,,,,,,None,None,None,,None,None,794.1149344479782,None,3,1,1.135177894961089,794.1149344479782,None,795.2457267449761,None,None,None,None,,24,001,2023_Jan_23_1343,searchDisc5,2021.2.3,59.96247500195817,
images/exp2a_trial_289_colour1_distractors4_r.png,r,3,1,4,0,,,,,0,92,92,92,,,,,,,,,,,,,,,,,,,,,,,,,,,,,,,,,,,,,,,,,,,795.2630443669623,None,2,0.6380148449679837,795.2630443669623,None,,,,,,,,,,,,,,,,None,None,None,,None,None,795.9461494159768,None,3,1,1.1226040580077097,795.9461494159768,None,797.0628696599567,None,None,None,None,,24,001,2023_Jan_23_1343,searchDisc5,2021.2.3,59.96247500195817,
images/exp1a_trial_253_colour3_distractors31_l.png,l,1,3,31,0,,,,,0,93,93,93,,,,,,,,,,,,,,,,,,,,,,,,,,,,,,,,,,,,,,,,,,,797.0796056789695,None,2,0.9043368040001951,797.0796056789695,None,,,,,,,,,,,,,,,,None,None,None,,None,None,798.0300327859586,None,1,1,0.9000904320273548,798.0300327859586,None,798.9295745399838,None,None,None,None,,24,001,2023_Jan_23_1343,searchDisc5,2021.2.3,59.96247500195817,
images/exp1a_trial_200_colour2_distractors19_r.png,r,3,2,19,0,,,,,0,94,94,94,,,,,,,,,,,,,,,,,,,,,,,,,,,,,,,,,,,,,,,,,,,798.9491829569452,None,2,0.9211890409933403,798.9491829569452,None,,,,,,,,,,,,,,,,None,None,None,,None,None,799.9140900879866,None,3,1,0.9354650789755397,799.9140900879866,None,800.8462074839451,None,None,None,None,,24,001,2023_Jan_23_1343,searchDisc5,2021.2.3,59.96247500195817,
images/exp2c_trial_250_colour3_distractors4_l.png,l,1,3,4,0,,,,,0,95,95,95,,,,,,,,,,,,,,,,,,,,,,,,,,,,,,,,,,,,,,,,,,,800.8638277609716,None,2,0.771886579983402,800.8638277609716,None,,,,,,,,,,,,,,,,None,None,None,,None,None,801.6790606239811,None,1,1,1.1712528319912963,801.6790606239811,None,802.8462892409705,None,None,None,None,,24,001,2023_Jan_23_1343,searchDisc5,2021.2.3,59.96247500195817,
images/exp2b_trial_36_colour1_distractors31_r.png,r,3,1,31,0,,,,,0,96,96,96,,,,,,,,,,,,,,,,,,,,,,,,,,,,,,,,,,,,,,,,,,,802.8635252979584,None,2,0.788814899045974,802.8635252979584,None,,,,,,,,,,,,,,,,None,None,None,,None,None,803.6977490689605,None,3,1,1.2014986360445619,803.6977490689605,None,804.8958796889463,None,None,None,None,,24,001,2023_Jan_23_1343,searchDisc5,2021.2.3,59.96247500195817,
images/exp2b_trial_199_colour2_distractors9_r.png,r,3,2,9,0,,,,,0,97,97,97,,,,,,,,,,,,,,,,,,,,,,,,,,,,,,,,,,,,,,,,,,,804.9132828799775,None,2,0.8378184880129993,804.9132828799775,None,,,,,,,,,,,,,,,,None,None,None,,None,None,805.7976994939963,None,3,1,0.9719550650333986,805.7976994939963,None,806.7630787589994,None,None,None,None,,24,001,2023_Jan_23_1343,searchDisc5,2021.2.3,59.96247500195817,
images/exp2b_trial_189_colour3_distractors31_l.png,l,1,3,31,0,,,,,0,98,98,98,,,,,,,,,,,,,,,,,,,,,,,,,,,,,,,,,,,,,,,,,,,806.7803072099923,None,2,0.8053957549855113,806.7803072099923,None,,,,,,,,,,,,,,,,None,None,None,,None,None,807.6318897489691,None,1,1,0.885549406055361,807.6318897489691,None,808.5132116199645,None,None,None,None,,24,001,2023_Jan_23_1343,searchDisc5,2021.2.3,59.96247500195817,
images/exp2b_trial_274_colour1_distractors19_l.png,l,1,1,19,0,,,,,0,99,99,99,,,,,,,,,,,,,,,,,,,,,,,,,,,,,,,,,,,,,,,,,,,808.5297085939674,None,2,0.8573668840108439,808.5297085939674,None,,,,,,,,,,,,,,,,None,None,None,,None,None,809.4299671769841,None,1,1,1.0166349890059792,809.4299671769841,None,810.4466401969955,None,None,None,None,,24,001,2023_Jan_23_1343,searchDisc5,2021.2.3,59.96247500195817,
images/exp2a_trial_7_colour2_distractors9_r.png,r,3,2,9,0,,,,,0,100,100,100,,,,,,,,,,,,,,,,,,,,,,,,,,,,,,,,,,,,,,,,,,,810.463323347969,None,2,0.8540295090060681,810.463323347969,None,,,,,,,,,,,,,,,,None,None,None,,None,None,811.3661092489492,None,3,1,1.2001877389848232,811.3661092489492,None,812.5628321709635,None,None,None,None,,24,001,2023_Jan_23_1343,searchDisc5,2021.2.3,59.96247500195817,
images/exp1a_trial_127_colour0_distractors0_l.png,l,1,0,0,0,,,,,0,101,101,101,,,,,,,,,,,,,,,,,,,,,,,,,,,,,,,,,,,,,,,,,,,812.5798911449965,None,2,0.8209784019854851,812.5798911449965,None,,,,,,,,,,,,,,,,None,None,None,,None,None,813.4462649989873,None,1,1,0.8064500389737077,813.4462649989873,None,814.246521721984,None,None,None,None,,24,001,2023_Jan_23_1343,searchDisc5,2021.2.3,59.96247500195817,
images/exp1a_trial_93_colour3_distractors31_l.png,l,1,3,31,0,,,,,0,102,102,102,,,,,,,,,,,,,,,,,,,,,,,,,,,,,,,,,,,,,,,,,,,814.2633421129431,None,2,0.8225367109989747,814.2633421129431,None,,,,,,,,,,,,,,,,None,None,None,,None,None,815.1324457399896,None,1,1,1.6168892729911022,815.1324457399896,None,816.7468450689746,None,None,None,None,,24,001,2023_Jan_23_1343,searchDisc5,2021.2.3,59.96247500195817,
images/exp2b_trial_263_colour2_distractors9_r.png,r,3,2,9,0,,,,,0,103,103,103,,,,,,,,,,,,,,,,,,,,,,,,,,,,,,,,,,,,,,,,,,,816.7642142609693,None,2,0.6875421520089731,816.7642142609693,None,,,,,,,,,,,,,,,,None,None,None,,None,None,817.4984879609547,None,3,1,0.8373205940006301,817.4984879609547,None,818.3300524439953,None,None,None,None,,24,001,2023_Jan_23_1343,searchDisc5,2021.2.3,59.96247500195817,
images/exp2c_trial_150_colour2_distractors9_l.png,l,1,2,9,0,,,,,0,104,104,104,,,,,,,,,,,,,,,,,,,,,,,,,,,,,,,,,,,,,,,,,,,818.3471478409483,None,2,0.704645071993582,818.3471478409483,None,,,,,,,,,,,,,,,,None,None,None,,None,None,819.0990408059442,None,1,1,0.9713569509913214,819.0990408059442,None,820.0634135559492,None,None,None,None,,24,001,2023_Jan_23_1343,searchDisc5,2021.2.3,59.96247500195817,
images/exp2c_trial_285_colour3_distractors31_l.png,l,1,3,31,0,,,,,0,105,105,105,,,,,,,,,,,,,,,,,,,,,,,,,,,,,,,,,,,,,,,,,,,820.0806602709927,None,2,0.6880549989873543,820.0806602709927,None,,,,,,,,,,,,,,,,None,None,None,,None,None,820.81423721998,None,1,1,0.9199362170184031,820.81423721998,None,821.7307632879645,None,None,None,None,,24,001,2023_Jan_23_1343,searchDisc5,2021.2.3,59.96247500195817,
images/exp1a_trial_306_colour1_distractors19_l.png,l,1,1,19,0,,,,,0,106,106,106,,,,,,,,,,,,,,,,,,,,,,,,,,,,,,,,,,,,,,,,,,,821.7468869609875,None,2,0.6873950780136511,821.7468869609875,None,,,,,,,,,,,,,,,,None,None,None,,None,None,822.4802482299856,None,1,1,0.8015053829876706,822.4802482299856,None,823.2801565389789,None,None,None,None,,24,001,2023_Jan_23_1343,searchDisc5,2021.2.3,59.96247500195817,
images/exp2a_trial_92_colour3_distractors19_l.png,l,1,3,19,0,,,,,0,107,107,107,,,,,,,,,,,,,,,,,,,,,,,,,,,,,,,,,,,,,,,,,,,823.2993520999444,None,2,0.7068517839652486,823.2993520999444,None,,,,,,,,,,,,,,,,None,None,None,,None,None,824.0498893239419,None,1,1,0.751496164011769,824.0498893239419,None,824.7969752279866,None,None,None,None,,24,001,2023_Jan_23_1343,searchDisc5,2021.2.3,59.96247500195817,
images/exp2a_trial_62_colour0_distractors0_r.png,r,3,0,0,0,,,,,0,108,108,108,,,,,,,,,,,,,,,,,,,,,,,,,,,,,,,,,,,,,,,,,,,824.8135194879724,None,2,0.7379354770528153,824.8135194879724,None,,,,,,,,,,,,,,,,None,None,None,,None,None,825.5974388829782,None,3,1,1.2725067669525743,825.5974388829782,None,826.8636567859619,None,None,None,None,,24,001,2023_Jan_23_1343,searchDisc5,2021.2.3,59.96247500195817,
images/exp2a_trial_42_colour3_distractors1_r.png,r,3,3,1,0,,,,,0,109,109,109,,,,,,,,,,,,,,,,,,,,,,,,,,,,,,,,,,,,,,,,,,,826.8808667629492,None,2,0.7224411850329489,826.8808667629492,None,,,,,,,,,,,,,,,,None,None,None,,None,None,827.6472742029582,None,3,1,1.0052313969936222,827.6472742029582,None,828.6471349859901,None,None,None,None,,24,001,2023_Jan_23_1343,searchDisc5,2021.2.3,59.96247500195817,
images/exp2a_trial_160_colour1_distractors1_r.png,r,3,1,1,0,,,,,0,110,110,110,,,,,,,,,,,,,,,,,,,,,,,,,,,,,,,,,,,,,,,,,,,828.6636721179821,None,2,0.6378328460268676,828.6636721179821,None,,,,,,,,,,,,,,,,None,None,None,,None,None,829.3483481399599,None,3,1,0.8728375390055589,829.3483481399599,None,830.2147729769756,None,None,None,None,,24,001,2023_Jan_23_1343,searchDisc5,2021.2.3,59.96247500195817,
images/exp2a_trial_257_colour1_distractors4_r.png,r,3,1,4,0,,,,,0,111,111,111,,,,,,,,,,,,,,,,,,,,,,,,,,,,,,,,,,,,,,,,,,,830.2309450189932,None,2,0.8056928429869004,830.2309450189932,None,,,,,,,,,,,,,,,,None,None,None,,None,None,831.0805242549977,None,3,1,0.9198361129965633,831.0805242549977,None,831.9972375249897,None,None,None,None,,24,001,2023_Jan_23_1343,searchDisc5,2021.2.3,59.96247500195817,
images/exp2a_trial_311_colour2_distractors19_l.png,l,1,2,19,0,,,,,0,112,112,112,,,,,,,,,,,,,,,,,,,,,,,,,,,,,,,,,,,,,,,,,,,832.0130195139791,None,2,0.8715942680137232,832.0130195139791,None,,,,,,,,,,,,,,,,None,None,None,,None,None,832.9313902709982,None,1,1,0.8971449899836443,832.9313902709982,None,833.830463736999,None,None,None,None,,24,001,2023_Jan_23_1343,searchDisc5,2021.2.3,59.96247500195817,
images/exp2b_trial_38_colour2_distractors4_r.png,r,3,2,4,0,,,,,0,113,113,113,,,,,,,,,,,,,,,,,,,,,,,,,,,,,,,,,,,,,,,,,,,833.8471465799958,None,2,1.0906654020072892,833.8471465799958,None,,,,,,,,,,,,,,,,None,None,None,,None,None,834.9814701789874,None,3,1,0.7714475480024703,834.9814701789874,None,835.7493606629839,None,None,None,None,,24,001,2023_Jan_23_1343,searchDisc5,2021.2.3,59.96247500195817,
images/exp2b_trial_196_colour1_distractors31_r.png,r,3,1,31,0,,,,,0,114,114,114,,,,,,,,,,,,,,,,,,,,,,,,,,,,,,,,,,,,,,,,,,,835.7659704339458,None,2,0.7352684839861467,835.7659704339458,None,,,,,,,,,,,,,,,,None,None,None,,None,None,836.5496391599881,None,3,1,1.3373377610114403,836.5496391599881,None,837.8816058569762,None,None,None,None,,24,001,2023_Jan_23_1343,searchDisc5,2021.2.3,59.96247500195817,
images/exp2a_trial_224_colour1_distractors1_r.png,r,3,1,1,0,,,,,0,115,115,115,,,,,,,,,,,,,,,,,,,,,,,,,,,,,,,,,,,,,,,,,,,837.8973489949713,None,2,0.7701951710041612,837.8973489949713,None,,,,,,,,,,,,,,,,None,None,None,,None,None,838.7146631079959,None,3,1,0.9056923820171505,838.7146631079959,None,839.6139833859459,None,None,None,None,,24,001,2023_Jan_23_1343,searchDisc5,2021.2.3,59.96247500195817,
images/exp2b_trial_70_colour2_distractors4_r.png,r,3,2,4,0,,,,,0,116,116,116,,,,,,,,,,,,,,,,,,,,,,,,,,,,,,,,,,,,,,,,,,,839.6304521159618,None,2,0.8054420810076408,839.6304521159618,None,,,,,,,,,,,,,,,,None,None,None,,None,None,840.4811334499973,None,3,1,0.7208901229896583,840.4811334499973,None,841.1972871859732,None,None,None,None,,24,001,2023_Jan_23_1343,searchDisc5,2021.2.3,59.96247500195817,
images/exp1a_trial_110_colour3_distractors31_r.png,r,3,3,31,0,,,,,0,117,117,117,,,,,,,,,,,,,,,,,,,,,,,,,,,,,,,,,,,,,,,,,,,841.2149523419794,None,2,0.6718493230291642,841.2149523419794,None,,,,,,,,,,,,,,,,None,None,None,,None,None,841.9319439849933,None,3,1,0.6824588570161723,841.9319439849933,None,842.6140866589674,None,None,None,None,,24,001,2023_Jan_23_1343,searchDisc5,2021.2.3,59.96247500195817,
images/exp2b_trial_46_colour3_distractors31_r.png,r,3,3,31,0,,,,,0,118,118,118,,,,,,,,,,,,,,,,,,,,,,,,,,,,,,,,,,,,,,,,,,,842.6306535259937,None,2,0.6553901970037259,842.6306535259937,None,,,,,,,,,,,,,,,,None,None,None,,None,None,843.3301787049859,None,3,1,0.6848684209981002,843.3301787049859,None,844.01422123097,None,None,None,None,,24,001,2023_Jan_23_1343,searchDisc5,2021.2.3,59.96247500195817,
images/exp1a_trial_121_colour3_distractors1_l.png,l,1,3,1,0,,,,,0,119,119,119,,,,,,,,,,,,,,,,,,,,,,,,,,,,,,,,,,,,,,,,,,,844.0313504269579,None,2,0.6723205429734662,844.0313504269579,None,,,,,,,,,,,,,,,,None,None,None,,None,None,844.7480808379478,None,1,1,1.0546219610259868,844.7480808379478,None,845.7974472009635,None,None,None,None,,24,001,2023_Jan_23_1343,searchDisc5,2021.2.3,59.96247500195817,
images/exp1a_trial_271_colour1_distractors1_l.png,l,1,1,1,0,,,,,0,120,120,120,,,,,,,,,,,,,,,,,,,,,,,,,,,,,,,,,,,,,,,,,,,845.8174242699752,None,2,0.6897319609997794,845.8174242699752,None,,,,,,,,,,,,,,,,None,None,None,,None,None,846.5498820569483,None,1,1,0.8041330850101076,846.5498820569483,None,847.3476354949933,None,None,None,None,,24,001,2023_Jan_23_1343,searchDisc5,2021.2.3,59.96247500195817,
images/exp2b_trial_191_colour0_distractors0_l.png,l,1,0,0,0,,,,,0,121,121,121,,,,,,,,,,,,,,,,,,,,,,,,,,,,,,,,,,,,,,,,,,,847.3649093239801,None,2,0.756724518025294,847.3649093239801,None,,,,,,,,,,,,,,,,None,None,None,,None,None,848.1675229129614,None,1,1,0.8541938550188206,848.1675229129614,None,849.014308984956,None,None,None,None,,24,001,2023_Jan_23_1343,searchDisc5,2021.2.3,59.96247500195817,
images/exp2b_trial_309_colour2_distractors4_l.png,l,1,2,4,0,,,,,0,122,122,122,,,,,,,,,,,,,,,,,,,,,,,,,,,,,,,,,,,,,,,,,,,849.0335058639757,None,2,0.8398232819745317,849.0335058639757,None,,,,,,,,,,,,,,,,None,None,None,,None,None,849.9172067589825,None,1,1,0.9035874959663488,849.9172067589825,None,850.8143803729733,None,None,None,None,,24,001,2023_Jan_23_1343,searchDisc5,2021.2.3,59.96247500195817,
images/exp2c_trial_134_colour2_distractors4_r.png,r,3,2,4,0,,,,,0,123,123,123,,,,,,,,,,,,,,,,,,,,,,,,,,,,,,,,,,,,,,,,,,,850.8303726849845,None,2,0.8059758490417153,850.8303726849845,None,,,,,,,,,,,,,,,,None,None,None,,None,None,851.6811080239713,None,3,1,0.9369455919950269,851.6811080239713,None,852.6143253949529,None,None,None,None,,24,001,2023_Jan_23_1343,searchDisc5,2021.2.3,59.96247500195817,
images/exp1a_trial_35_colour1_distractors19_r.png,r,3,1,19,0,,,,,0,124,124,124,,,,,,,,,,,,,,,,,,,,,,,,,,,,,,,,,,,,,,,,,,,852.6309127319837,None,2,0.775481469987426,852.6309127319837,None,,,,,,,,,,,,,,,,None,None,None,,None,None,853.4481520349509,None,3,1,2.2647720350068994,853.4481520349509,None,855.7140413169807,None,None,None,None,,24,001,2023_Jan_23_1343,searchDisc5,2021.2.3,59.96247500195817,
images/exp2b_trial_211_colour1_distractors31_l.png,l,1,1,31,0,,,,,0,125,125,125,,,,,,,,,,,,,,,,,,,,,,,,,,,,,,,,,,,,,,,,,,,855.7331107669743,None,2,0.7559244809672236,855.7331107669743,None,,,,,,,,,,,,,,,,None,None,None,,None,None,856.5312947849743,None,1,1,1.735064656008035,856.5312947849743,None,858.2644921419967,None,None,None,None,,24,001,2023_Jan_23_1343,searchDisc5,2021.2.3,59.96247500195817,
images/exp1a_trial_58_colour3_distractors4_l.png,l,1,3,4,0,,,,,0,126,126,126,,,,,,,,,,,,,,,,,,,,,,,,,,,,,,,,,,,,,,,,,,,858.2832086699782,None,2,0.7886326420120895,858.2832086699782,None,,,,,,,,,,,,,,,,None,None,None,,None,None,859.1153732249513,None,1,1,1.0043822610168718,859.1153732249513,None,860.11454673197,None,None,None,None,,24,001,2023_Jan_23_1343,searchDisc5,2021.2.3,59.96247500195817,
images/exp1a_trial_199_colour2_distractors9_r.png,r,3,2,9,0,,,,,0,127,127,127,,,,,,,,,,,,,,,,,,,,,,,,,,,,,,,,,,,,,,,,,,,860.1318155699992,None,2,0.7909849769785069,860.1318155699992,None,,,,,,,,,,,,,,,,None,None,None,,None,None,860.9671409609728,None,3,1,1.0000526640214957,860.9671409609728,None,861.9645464629691,None,None,None,None,,24,001,2023_Jan_23_1343,searchDisc5,2021.2.3,59.96247500195817,
images/exp2c_trial_303_colour1_distractors1_l.png,l,1,1,1,0,,,,,0,128,128,128,,,,,,,,,,,,,,,,,,,,,,,,,,,,,,,,,,,,,,,,,,,861.9813774279901,None,2,0.7562776440172456,861.9813774279901,None,,,,,,,,,,,,,,,,None,None,None,,None,None,862.7816766509786,None,1,1,0.7226159119745716,862.7816766509786,None,863.4988996799627,None,None,None,None,,24,001,2023_Jan_23_1343,searchDisc5,2021.2.3,59.96247500195817,
images/exp2c_trial_182_colour2_distractors9_l.png,l,1,2,9,0,,,,,0,129,129,129,,,,,,,,,,,,,,,,,,,,,,,,,,,,,,,,,,,,,,,,,,,863.514487546985,None,2,0.7357640119735152,863.514487546985,None,,,,,,,,,,,,,,,,None,None,None,,None,None,864.2988752099918,None,1,1,0.7211416540085338,864.2988752099918,None,865.0146416159521,None,None,None,None,,24,001,2023_Jan_23_1343,searchDisc5,2021.2.3,59.96247500195817,
images/exp2a_trial_309_colour2_distractors4_l.png,l,1,2,4,0,,,,,0,130,130,130,,,,,,,,,,,,,,,,,,,,,,,,,,,,,,,,,,,,,,,,,,,865.0313837109716,None,2,0.871321510989219,865.0313837109716,None,,,,,,,,,,,,,,,,None,None,None,,None,None,865.9489893139689,None,1,1,1.253605843987316,865.9489893139689,None,867.1982375049672,None,None,None,None,,24,001,2023_Jan_23_1343,searchDisc5,2021.2.3,59.96247500195817,
images/exp2a_trial_3_colour1_distractors19_r.png,r,3,1,19,0,,,,,0,131,131,131,,,,,,,,,,,,,,,,,,,,,,,,,,,,,,,,,,,,,,,,,,,867.2146815079614,None,2,0.7877650399459526,867.2146815079614,None,,,,,,,,,,,,,,,,None,None,None,,None,None,868.0512087909738,None,3,1,1.3539137840270996,868.0512087909738,None,869.3981491379498,None,None,None,None,,24,001,2023_Jan_23_1343,searchDisc5,2021.2.3,59.96247500195817,
images/exp2a_trial_213_colour2_distractors4_l.png,l,1,2,4,0,,,,,0,132,132,132,,,,,,,,,,,,,,,,,,,,,,,,,,,,,,,,,,,,,,,,,,,869.414300098957,None,2,0.8215526469866745,869.414300098957,None,,,,,,,,,,,,,,,,None,None,None,,None,None,870.2836936929962,None,1,1,1.0882213540025987,870.2836936929962,None,871.3669476539769,None,None,None,None,,24,001,2023_Jan_23_1343,searchDisc5,2021.2.3,59.96247500195817,
images/exp2a_trial_262_colour2_distractors4_r.png,r,3,2,4,0,,,,,0,133,133,133,,,,,,,,,,,,,,,,,,,,,,,,,,,,,,,,,,,,,,,,,,,871.3840458259801,None,2,0.7711267279810272,871.3840458259801,None,,,,,,,,,,,,,,,,None,None,None,,None,None,872.1985036389669,None,3,1,0.8846634550136514,872.1985036389669,None,873.0814153359795,None,None,None,None,,24,001,2023_Jan_23_1343,searchDisc5,2021.2.3,59.96247500195817,
images/exp2b_trial_316_colour3_distractors19_l.png,l,1,3,19,0,,,,,0,134,134,134,,,,,,,,,,,,,,,,,,,,,,,,,,,,,,,,,,,,,,,,,,,873.098949902982,None,2,0.7720357060316019,873.098949902982,None,,,,,,,,,,,,,,,,None,None,None,,None,None,873.9172175399726,None,1,1,0.9368730130372569,873.9172175399726,None,874.848331924976,None,None,None,None,,24,001,2023_Jan_23_1343,searchDisc5,2021.2.3,59.96247500195817,
images/exp1a_trial_276_colour2_distractors1_l.png,l,1,2,1,0,,,,,0,135,135,135,,,,,,,,,,,,,,,,,,,,,,,,,,,,,,,,,,,,,,,,,,,874.8670193319558,None,2,0.7065694259945303,874.8670193319558,None,,,,,,,,,,,,,,,,None,None,None,,None,None,875.6175385239767,None,1,1,1.0057633820106275,875.6175385239767,None,876.6151299239543,None,None,None,None,,24,001,2023_Jan_23_1343,searchDisc5,2021.2.3,59.96247500195817,
images/exp2b_trial_226_colour1_distractors9_r.png,r,3,1,9,0,,,,,0,136,136,136,,,,,,,,,,,,,,,,,,,,,,,,,,,,,,,,,,,,,,,,,,,876.6314496969571,None,2,0.9381271679885685,876.6314496969571,None,,,,,,,,,,,,,,,,None,None,None,,None,None,877.61726675299,None,3,1,1.2036320039769635,877.61726675299,None,878.8160034779983,None,None,None,None,,24,001,2023_Jan_23_1343,searchDisc5,2021.2.3,59.96247500195817,
images/exp2b_trial_135_colour2_distractors9_r.png,r,3,2,9,0,,,,,0,137,137,137,,,,,,,,,,,,,,,,,,,,,,,,,,,,,,,,,,,,,,,,,,,878.8309194439789,None,2,1.140090859029442,878.8309194439789,None,,,,,,,,,,,,,,,,None,None,None,,None,None,880.0176240169676,None,3,1,1.317832805973012,880.0176240169676,None,881.3318247949762,None,None,None,None,,24,001,2023_Jan_23_1343,searchDisc5,2021.2.3,59.96247500195817,
images/exp2b_trial_187_colour3_distractors9_l.png,l,1,3,9,0,,,,,0,138,138,138,,,,,,,,,,,,,,,,,,,,,,,,,,,,,,,,,,,,,,,,,,,881.3489991349634,None,2,3.9225893460097723,881.3489991349634,None,,,,,,,,,,,,,,,,None,None,None,,None,None,885.3160446149996,None,1,1,1.0868313219980337,885.3160446149996,None,886.3984891429834,None,None,None,None,,24,001,2023_Jan_23_1343,searchDisc5,2021.2.3,59.96247500195817,
images/exp1a_trial_29_colour3_distractors31_l.png,l,1,3,31,0,,,,,0,139,139,139,,,,,,,,,,,,,,,,,,,,,,,,,,,,,,,,,,,,,,,,,,,886.4161086449749,None,2,2.587886862049345,886.4161086449749,None,,,,,,,,,,,,,,,,None,None,None,,None,None,889.04823076498,None,1,1,0.9806589880026877,889.04823076498,None,890.0321529519686,None,None,None,None,,24,001,2023_Jan_23_1343,searchDisc5,2021.2.3,59.96247500195817,
images/exp1a_trial_162_colour1_distractors9_r.png,r,3,1,9,0,,,,,0,140,140,140,,,,,,,,,,,,,,,,,,,,,,,,,,,,,,,,,,,,,,,,,,,890.0482948369463,None,2,0.8374143459950574,890.0482948369463,None,,,,,,,,,,,,,,,,None,None,None,,None,None,890.9351757669938,None,3,1,1.2356648829882033,890.9351757669938,None,892.1654165239713,None,None,None,None,,24,001,2023_Jan_23_1343,searchDisc5,2021.2.3,59.96247500195817,
images/exp2a_trial_118_colour2_distractors9_l.png,l,1,2,9,0,,,,,0,141,141,141,,,,,,,,,,,,,,,,,,,,,,,,,,,,,,,,,,,,,,,,,,,892.1827120569651,None,2,0.7557622870081104,892.1827120569651,None,,,,,,,,,,,,,,,,None,None,None,,None,None,892.9843168289517,None,1,1,1.5326502899988554,892.9843168289517,None,894.5149076519708,None,None,None,None,,24,001,2023_Jan_23_1343,searchDisc5,2021.2.3,59.96247500195817,
images/exp2a_trial_100_colour1_distractors31_r.png,r,3,1,31,0,,,,,0,142,142,142,,,,,,,,,,,,,,,,,,,,,,,,,,,,,,,,,,,,,,,,,,,894.5323919629445,None,2,0.7879689850378782,894.5323919629445,None,,,,,,,,,,,,,,,,None,None,None,,None,None,895.3678948139423,None,3,1,1.402937590959482,895.3678948139423,None,896.765568822954,None,None,None,None,,24,001,2023_Jan_23_1343,searchDisc5,2021.2.3,59.96247500195817,
images/exp1a_trial_290_colour1_distractors9_r.png,r,3,1,9,0,,,,,0,143,143,143,,,,,,,,,,,,,,,,,,,,,,,,,,,,,,,,,,,,,,,,,,,896.7830548519851,None,2,0.7053142520016991,896.7830548519851,None,,,,,,,,,,,,,,,,None,None,None,,None,None,897.5326972049661,None,3,1,1.3352454280247912,897.5326972049661,None,898.8656118789629,None,None,None,None,,24,001,2023_Jan_23_1343,searchDisc5,2021.2.3,59.96247500195817,
images/exp2a_trial_202_colour3_distractors1_r.png,r,3,3,1,0,,,,,0,144,144,144,,,,,,,,,,,,,,,,,,,,,,,,,,,,,,,,,,,,,,,,,,,898.8849873919971,None,2,0.7233637860044837,898.8849873919971,None,,,,,,,,,,,,,,,,None,None,None,,None,None,899.6521247689961,None,3,1,1.4700563760125078,899.6521247689961,None,901.1156761409773,None,None,None,None,,24,001,2023_Jan_23_1343,searchDisc5,2021.2.3,59.96247500195817,
images/exp2b_trial_259_colour1_distractors19_r.png,r,3,1,19,0,,,,,0,145,145,145,,,,,,,,,,,,,,,,,,,,,,,,,,,,,,,,,,,,,,,,,,,901.132412522973,None,2,0.6731874879915267,901.132412522973,None,,,,,,,,,,,,,,,,None,None,None,,None,None,901.8498675719602,None,3,1,0.9526768869836815,901.8498675719602,None,902.799140891974,None,None,None,None,,24,001,2023_Jan_23_1343,searchDisc5,2021.2.3,59.96247500195817,
images/exp1a_trial_148_colour2_distractors1_l.png,l,1,2,1,0,,,,,0,146,146,146,,,,,,,,,,,,,,,,,,,,,,,,,,,,,,,,,,,,,,,,,,,902.8153224069974,None,2,0.7701548570184968,902.8153224069974,None,,,,,,,,,,,,,,,,None,None,None,,None,None,903.6356055499637,None,1,1,1.2064467259915546,903.6356055499637,None,904.832447450998,None,None,None,None,,24,001,2023_Jan_23_1343,searchDisc5,2021.2.3,59.96247500195817,
images/exp2a_trial_229_colour2_distractors1_r.png,r,3,2,1,0,,,,,0,147,147,147,,,,,,,,,,,,,,,,,,,,,,,,,,,,,,,,,,,,,,,,,,,904.8497486889828,None,2,0.7555176009773277,904.8497486889828,None,,,,,,,,,,,,,,,,None,None,None,,None,None,905.6521912259632,None,3,1,0.9054539329954423,905.6521912259632,None,906.5501151119649,None,None,None,None,,24,001,2023_Jan_23_1343,searchDisc5,2021.2.3,59.96247500195817,
images/exp1a_trial_255_colour0_distractors0_l.png,l,1,0,0,0,,,,,0,148,148,148,,,,,,,,,,,,,,,,,,,,,,,,,,,,,,,,,,,,,,,,,,,906.5657039139769,None,2,1.0545988230151124,906.5657039139769,None,,,,,,,,,,,,,,,,None,None,None,,None,None,907.6654759849771,None,1,1,1.0052052619867027,907.6654759849771,None,908.6659072159498,None,None,None,None,,24,001,2023_Jan_23_1343,searchDisc5,2021.2.3,59.96247500195817,
images/exp2a_trial_119_colour2_distractors19_l.png,l,1,2,19,0,,,,,0,149,149,149,,,,,,,,,,,,,,,,,,,,,,,,,,,,,,,,,,,,,,,,,,,908.6825411249883,None,2,0.6538233180181123,908.6825411249883,None,,,,,,,,,,,,,,,,None,None,None,,None,None,909.3828184379963,None,1,1,1.2143089909804985,909.3828184379963,None,910.5983983719896,None,None,None,None,,24,001,2023_Jan_23_1343,searchDisc5,2021.2.3,59.96247500195817,
images/exp2b_trial_131_colour1_distractors19_r.png,r,3,1,19,0,,,,,0,150,150,150,,,,,,,,,,,,,,,,,,,,,,,,,,,,,,,,,,,,,,,,,,,910.6166793539887,None,2,0.7888448520097882,910.6166793539887,None,,,,,,,,,,,,,,,,None,None,None,,None,None,911.4495814929833,None,3,1,1.203564700030256,911.4495814929833,None,912.6494244769972,None,None,None,None,,24,001,2023_Jan_23_1343,searchDisc5,2021.2.3,59.96247500195817,
images/exp2a_trial_154_colour3_distractors4_l.png,l,1,3,4,0,,,,,0,151,151,151,,,,,,,,,,,,,,,,,,,,,,,,,,,,,,,,,,,,,,,,,,,912.6665447509731,None,2,0.7214846449787728,912.6665447509731,None,,,,,,,,,,,,,,,,None,None,None,,None,None,913.4350585089996,None,1,1,1.0552381299785338,913.4350585089996,None,914.4827245419553,None,None,None,None,,24,001,2023_Jan_23_1343,searchDisc5,2021.2.3,59.96247500195817,
images/exp2c_trial_181_colour2_distractors4_l.png,l,1,2,4,0,,,,,0,152,152,152,,,,,,,,,,,,,,,,,,,,,,,,,,,,,,,,,,,,,,,,,,,914.4994329449837,None,2,0.672033453010954,914.4994329449837,None,,,,,,,,,,,,,,,,None,None,None,,None,None,915.2192180489656,None,1,1,0.721073946042452,915.2192180489656,None,915.9328662640007,None,None,None,None,,24,001,2023_Jan_23_1343,searchDisc5,2021.2.3,59.96247500195817,
images/exp1a_trial_314_colour3_distractors4_l.png,l,1,3,4,0,,,,,0,153,153,153,,,,,,,,,,,,,,,,,,,,,,,,,,,,,,,,,,,,,,,,,,,915.9494759019581,None,2,0.7535141349653713,915.9494759019581,None,,,,,,,,,,,,,,,,None,None,None,,None,None,916.7520678599831,None,1,1,0.755747692019213,916.7520678599831,None,917.4993577849643,None,None,None,None,,24,001,2023_Jan_23_1343,searchDisc5,2021.2.3,59.96247500195817,
images/exp1a_trial_238_colour3_distractors31_r.png,r,3,3,31,0,,,,,0,154,154,154,,,,,,,,,,,,,,,,,,,,,,,,,,,,,,,,,,,,,,,,,,,917.5166127689881,None,2,0.6380539620295167,917.5166127689881,None,,,,,,,,,,,,,,,,None,None,None,,None,None,918.1997716689948,None,3,1,1.2156050180201419,918.1997716689948,None,919.4162294859823,None,None,None,None,,24,001,2023_Jan_23_1343,searchDisc5,2021.2.3,59.96247500195817,
images/exp2c_trial_317_colour3_distractors31_l.png,l,1,3,31,0,,,,,0,155,155,155,,,,,,,,,,,,,,,,,,,,,,,,,,,,,,,,,,,,,,,,,,,919.432703109982,None,2,0.6708692390238866,919.432703109982,None,,,,,,,,,,,,,,,,None,None,None,,None,None,920.1506610669894,None,1,1,1.4169590339879505,920.1506610669894,None,921.5662524069601,None,None,None,None,,24,001,2023_Jan_23_1343,searchDisc5,2021.2.3,59.96247500195817,
images/exp2c_trial_220_colour3_distractors19_l.png,l,1,3,19,0,,,,,0,156,156,156,,,,,,,,,,,,,,,,,,,,,,,,,,,,,,,,,,,,,,,,,,,921.5822177509544,None,2,0.5899737810250372,921.5822177509544,None,,,,,,,,,,,,,,,,None,None,None,,None,None,922.2168814539909,None,1,1,1.1850703780073673,922.2168814539909,None,923.3996637949429,None,None,None,None,,24,001,2023_Jan_23_1343,searchDisc5,2021.2.3,59.96247500195817,
images/exp2b_trial_136_colour2_distractors19_r.png,r,3,2,19,0,,,,,0,157,157,157,,,,,,,,,,,,,,,,,,,,,,,,,,,,,,,,,,,,,,,,,,,923.4190934169455,None,2,0.5241995230317116,923.4190934169455,None,,,,,,,,,,,,,,,,None,None,None,,None,None,923.9859477739665,None,3,1,0.9516130739939399,923.9859477739665,None,924.9331057329953,None,None,None,None,,24,001,2023_Jan_23_1343,searchDisc5,2021.2.3,59.96247500195817,
images/exp2b_trial_232_colour2_distractors19_r.png,r,3,2,19,0,,,,,0,158,158,158,,,,,,,,,,,,,,,,,,,,,,,,,,,,,,,,,,,,,,,,,,,924.952111682971,None,2,0.5374873619875871,924.952111682971,None,,,,,,,,,,,,,,,,None,None,None,,None,None,925.5360772929853,None,3,1,1.3366905659786426,925.5360772929853,None,926.866377940966,None,None,None,None,,24,001,2023_Jan_23_1343,searchDisc5,2021.2.3,59.96247500195817,
images/exp2c_trial_157_colour3_distractors31_l.png,l,1,3,31,0,,,,,0,159,159,159,,,,,,,,,,,,,,,,,,,,,,,,,,,,,,,,,,,,,,,,,,,926.8836446509813,None,2,0.5898917180020362,926.8836446509813,None,,,,,,,,,,,,,,,,None,None,None,,None,None,927.516801146965,None,1,1,0.7694626060547307,927.516801146965,None,928.2831190829572,None,None,None,None,,24,001,2023_Jan_23_1343,searchDisc5,2021.2.3,59.96247500195817,
images/exp2b_trial_237_colour3_distractors19_r.png,r,3,3,19,0,,,,,0,160,160,160,,,,,,,,,,,,,,,,,,,,,,,,,,,,,,,,,,,,,,,,,,,928.2992465579882,None,2,0.5037311050109565,928.2992465579882,None,,,,,,,,,,,,,,,,None,None,None,,None,None,928.8512992959586,None,3,1,1.48572455503745,928.8512992959586,None,930.3331843719759,None,None,None,None,,24,001,2023_Jan_23_1343,searchDisc5,2021.2.3,59.96247500195817,
images/exp2c_trial_222_colour0_distractors0_r.png,r,3,0,0,0,,,,,0,161,161,161,,,,,,,,,,,,,,,,,,,,,,,,,,,,,,,,,,,,,,,,,,,930.3497496109921,None,2,0.7211449909955263,930.3497496109921,None,,,,,,,,,,,,,,,,None,None,None,,None,None,931.1176854809746,None,3,1,0.7582543580210768,931.1176854809746,None,931.8686055789992,None,None,None,None,,24,001,2023_Jan_23_1343,searchDisc5,2021.2.3,59.96247500195817,
images/exp2c_trial_279_colour2_distractors19_l.png,l,1,2,19,0,,,,,0,162,162,162,,,,,,,,,,,,,,,,,,,,,,,,,,,,,,,,,,,,,,,,,,,931.8860030369833,None,2,0.7531988720293157,931.8860030369833,None,,,,,,,,,,,,,,,,None,None,None,,None,None,932.6834389699507,None,1,1,0.9863575029885396,932.6834389699507,None,933.666563116986,None,None,None,None,,24,001,2023_Jan_23_1343,searchDisc5,2021.2.3,59.96247500195817,
images/exp1a_trial_173_colour3_distractors19_r.png,r,3,3,19,0,,,,,0,163,163,163,,,,,,,,,,,,,,,,,,,,,,,,,,,,,,,,,,,,,,,,,,,933.6832287359866,None,2,0.655706224963069,933.6832287359866,None,,,,,,,,,,,,,,,,None,None,None,,None,None,934.3838979589636,None,3,1,0.7840291499742307,934.3838979589636,None,935.1666346749814,None,None,None,None,,24,001,2023_Jan_23_1343,searchDisc5,2021.2.3,59.96247500195817,
images/exp1a_trial_117_colour2_distractors4_l.png,l,1,2,4,0,,,,,0,164,164,164,,,,,,,,,,,,,,,,,,,,,,,,,,,,,,,,,,,,,,,,,,,935.1837680289755,None,2,0.705374747980386,935.1837680289755,None,,,,,,,,,,,,,,,,None,None,None,,None,None,935.936478095944,None,1,1,0.8043214280041866,935.936478095944,None,936.7335569739632,None,None,None,None,,24,001,2023_Jan_23_1343,searchDisc5,2021.2.3,59.96247500195817,
images/exp2a_trial_196_colour1_distractors31_r.png,r,3,1,31,0,,,,,0,165,165,165,,,,,,,,,,,,,,,,,,,,,,,,,,,,,,,,,,,,,,,,,,,936.750795387954,None,2,0.7877335779485293,936.750795387954,None,,,,,,,,,,,,,,,,None,None,None,,None,None,937.5860291049466,None,3,1,0.9882643269957043,937.5860291049466,None,938.5687768049945,None,None,None,None,,24,001,2023_Jan_23_1343,searchDisc5,2021.2.3,59.96247500195817,
images/exp2b_trial_112_colour1_distractors4_l.png,l,1,1,4,0,,,,,0,166,166,166,,,,,,,,,,,,,,,,,,,,,,,,,,,,,,,,,,,,,,,,,,,938.5854657779564,None,2,0.8524418490123935,938.5854657779564,None,,,,,,,,,,,,,,,,None,None,None,,None,None,939.4841645979905,None,1,1,0.8557503439951688,939.4841645979905,None,940.3335468879493,None,None,None,None,,24,001,2023_Jan_23_1343,searchDisc5,2021.2.3,59.96247500195817,
images/exp2c_trial_247_colour2_distractors19_l.png,l,1,2,19,0,,,,,0,167,167,167,,,,,,,,,,,,,,,,,,,,,,,,,,,,,,,,,,,,,,,,,,,940.3511092629633,None,2,0.8876406669733115,940.3511092629633,None,,,,,,,,,,,,,,,,None,None,None,,None,None,941.2846040449804,None,1,1,1.0712916940101422,941.2846040449804,None,942.3511284679814,None,None,None,None,,24,001,2023_Jan_23_1343,searchDisc5,2021.2.3,59.96247500195817,
images/exp2b_trial_163_colour1_distractors19_r.png,r,3,1,19,0,,,,,0,168,168,168,,,,,,,,,,,,,,,,,,,,,,,,,,,,,,,,,,,,,,,,,,,942.3679918689886,None,2,0.7227877450059168,942.3679918689886,None,,,,,,,,,,,,,,,,None,None,None,,None,None,943.1365923639969,None,3,1,1.3001594140077941,943.1365923639969,None,944.4334790209948,None,None,None,None,,24,001,2023_Jan_23_1343,searchDisc5,2021.2.3,59.96247500195817,
images/exp2c_trial_143_colour1_distractors1_l.png,l,1,1,1,0,,,,,0,169,169,169,,,,,,,,,,,,,,,,,,,,,,,,,,,,,,,,,,,,,,,,,,,944.4509669439867,None,2,0.836961783003062,944.4509669439867,None,,,,,,,,,,,,,,,,None,None,None,,None,None,945.3342080869479,None,1,1,1.8236019090400077,945.3342080869479,None,947.1503243689483,None,None,None,None,,24,001,2023_Jan_23_1343,searchDisc5,2021.2.3,59.96247500195817,
images/exp2a_trial_133_colour2_distractors1_r.png,r,3,2,1,0,,,,,0,170,170,170,,,,,,,,,,,,,,,,,,,,,,,,,,,,,,,,,,,,,,,,,,,947.1669234059518,None,2,0.7398822060204111,947.1669234059518,None,,,,,,,,,,,,,,,,None,None,None,,None,None,947.9526694129454,None,3,1,0.9726643450558186,947.9526694129454,None,948.918178538949,None,None,None,None,,24,001,2023_Jan_23_1343,searchDisc5,2021.2.3,59.96247500195817,
images/exp2c_trial_124_colour3_distractors19_l.png,l,1,3,19,0,,,,,0,171,171,171,,,,,,,,,,,,,,,,,,,,,,,,,,,,,,,,,,,,,,,,,,,948.9345534589957,None,2,0.818222483037971,948.9345534589957,None,,,,,,,,,,,,,,,,None,None,None,,None,None,949.8015878129518,None,1,1,1.0720014759572223,949.8015878129518,None,950.8671532979758,None,None,None,None,,24,001,2023_Jan_23_1343,searchDisc5,2021.2.3,59.96247500195817,
images/exp2b_trial_213_colour2_distractors4_l.png,l,1,2,4,0,,,,,0,172,172,172,,,,,,,,,,,,,,,,,,,,,,,,,,,,,,,,,,,,,,,,,,,950.8840491039446,None,2,1.285656948981341,950.8840491039446,None,,,,,,,,,,,,,,,,None,None,None,,None,None,952.2179768819478,None,1,1,1.0382059740368277,952.2179768819478,None,953.2500584139896,None,None,None,None,,24,001,2023_Jan_23_1343,searchDisc5,2021.2.3,59.96247500195817,
images/exp2a_trial_57_colour3_distractors1_l.png,l,1,3,1,0,,,,,0,173,173,173,,,,,,,,,,,,,,,,,,,,,,,,,,,,,,,,,,,,,,,,,,,953.2691842949716,None,2,0.8064513269928284,953.2691842949716,None,,,,,,,,,,,,,,,,None,None,None,,None,None,954.1195318189566,None,1,1,0.9382052469882183,954.1195318189566,None,955.0504739519499,None,None,None,None,,24,001,2023_Jan_23_1343,searchDisc5,2021.2.3,59.96247500195817,
images/exp1a_trial_122_colour3_distractors4_l.png,l,1,3,4,0,,,,,0,174,174,174,,,,,,,,,,,,,,,,,,,,,,,,,,,,,,,,,,,,,,,,,,,955.067181469989,None,2,0.8721357500180602,955.067181469989,None,,,,,,,,,,,,,,,,None,None,None,,None,None,955.9871892249794,None,1,1,0.8540929099544883,955.9871892249794,None,956.8338860529882,None,None,None,None,,24,001,2023_Jan_23_1343,searchDisc5,2021.2.3,59.96247500195817,
images/exp2b_trial_273_colour1_distractors9_l.png,l,1,1,9,0,,,,,0,175,175,175,,,,,,,,,,,,,,,,,,,,,,,,,,,,,,,,,,,,,,,,,,,956.8535574789857,None,2,0.8729790420038626,956.8535574789857,None,,,,,,,,,,,,,,,,None,None,None,,None,None,957.7702102019684,None,1,1,0.9853978959727101,957.7702102019684,None,958.7502102379628,None,None,None,None,,24,001,2023_Jan_23_1343,searchDisc5,2021.2.3,59.96247500195817,
images/exp2b_trial_122_colour3_distractors4_l.png,l,1,3,4,0,,,,,0,176,176,176,,,,,,,,,,,,,,,,,,,,,,,,,,,,,,,,,,,,,,,,,,,958.7676816779422,None,2,0.8550753240124322,958.7676816779422,None,,,,,,,,,,,,,,,,None,None,None,,None,None,959.6680653509684,None,1,1,1.0389163930085488,959.6680653509684,None,960.7006462449615,None,None,None,None,,24,001,2023_Jan_23_1343,searchDisc5,2021.2.3,59.96247500195817,
images/exp2a_trial_275_colour1_distractors31_l.png,l,1,1,31,0,,,,,0,177,177,177,,,,,,,,,,,,,,,,,,,,,,,,,,,,,,,,,,,,,,,,,,,960.7174013729673,None,2,1.354660069977399,960.7174013729673,None,,,,,,,,,,,,,,,,None,None,None,,None,None,962.1176926219487,None,1,1,0.7191085399826989,962.1176926219487,None,962.8340803879953,None,None,None,None,,24,001,2023_Jan_23_1343,searchDisc5,2021.2.3,59.96247500195817,
images/exp2a_trial_8_colour2_distractors19_r.png,r,3,2,19,0,,,,,0,178,178,178,,,,,,,,,,,,,,,,,,,,,,,,,,,,,,,,,,,,,,,,,,,962.8532650989946,None,2,1.0047008380061015,962.8532650989946,None,,,,,,,,,,,,,,,,None,None,None,,None,None,963.9033171489718,None,3,1,1.8329043079866096,963.9033171489718,None,965.7352454719774,None,None,None,None,,24,001,2023_Jan_23_1343,searchDisc5,2021.2.3,59.96247500195817,
images/exp2c_trial_243_colour1_distractors31_l.png,l,1,1,31,0,,,,,0,179,179,179,,,,,,,,,,,,,,,,,,,,,,,,,,,,,,,,,,,,,,,,,,,965.7506750379689,None,2,0.9028800550149754,965.7506750379689,None,,,,,,,,,,,,,,,,None,None,None,,None,None,966.7025649799616,None,1,1,0.8004309230018407,966.7025649799616,None,967.5010747509484,None,None,None,None,,24,001,2023_Jan_23_1343,searchDisc5,2021.2.3,59.96247500195817,
images/exp2b_trial_305_colour1_distractors9_l.png,l,1,1,9,0,,,,,0,180,180,180,,,,,,,,,,,,,,,,,,,,,,,,,,,,,,,,,,,,,,,,,,,967.5185096139903,None,2,0.7219786820351146,967.5185096139903,None,,,,,,,,,,,,,,,,None,None,None,,None,None,968.2850516999606,None,1,1,1.0556506110006012,968.2850516999606,None,969.3353218579839,None,None,None,None,,24,001,2023_Jan_23_1343,searchDisc5,2021.2.3,59.96247500195817,
images/exp2c_trial_156_colour3_distractors19_l.png,l,1,3,19,0,,,,,0,181,181,181,,,,,,,,,,,,,,,,,,,,,,,,,,,,,,,,,,,,,,,,,,,969.3511689799489,None,2,0.7532557750237174,969.3511689799489,None,,,,,,,,,,,,,,,,None,None,None,,None,None,970.1520224729902,None,1,1,1.3694329360150732,970.1520224729902,None,971.5172482089663,None,None,None,None,,24,001,2023_Jan_23_1343,searchDisc5,2021.2.3,59.96247500195817,
images/exp2a_trial_312_colour2_distractors31_l.png,l,1,2,31,0,,,,,0,182,182,182,,,,,,,,,,,,,,,,,,,,,,,,,,,,,,,,,,,,,,,,,,,971.5349520299933,None,2,0.6248794910497963,971.5349520299933,None,,,,,,,,,,,,,,,,None,None,None,,None,None,972.2013525799848,None,1,1,1.1445911390474066,972.2013525799848,None,973.3531758109864,None,None,None,None,,24,001,2023_Jan_23_1343,searchDisc5,2021.2.3,59.96247500195817,
images/exp1a_trial_305_colour1_distractors9_l.png,l,1,1,9,0,,,,,0,183,183,183,,,,,,,,,,,,,,,,,,,,,,,,,,,,,,,,,,,,,,,,,,,973.3684360579937,None,2,0.6851857859874144,973.3684360579937,None,,,,,,,,,,,,,,,,None,None,None,,None,None,974.1017082719482,None,1,1,1.588046985969413,974.1017082719482,None,975.6844228529778,None,None,None,None,,24,001,2023_Jan_23_1343,searchDisc5,2021.2.3,59.96247500195817,
images/exp1a_trial_51_colour1_distractors31_l.png,l,1,1,31,0,,,,,0,184,184,184,,,,,,,,,,,,,,,,,,,,,,,,,,,,,,,,,,,,,,,,,,,975.7002116549993,None,2,0.8554433960234746,975.7002116549993,None,,,,,,,,,,,,,,,,None,None,None,,None,None,976.6043638129486,None,1,1,1.283248050021939,976.6043638129486,None,977.8843232609622,None,None,None,None,,24,001,2023_Jan_23_1343,searchDisc5,2021.2.3,59.96247500195817,
images/exp2c_trial_251_colour3_distractors9_l.png,l,1,3,9,0,,,,,0,185,185,185,,,,,,,,,,,,,,,,,,,,,,,,,,,,,,,,,,,,,,,,,,,977.9018697959837,None,2,0.9085043820086867,977.9018697959837,None,,,,,,,,,,,,,,,,None,None,None,,None,None,978.8544653089484,None,1,1,0.8344544530264102,978.8544653089484,None,979.6845549999678,None,None,None,None,,24,001,2023_Jan_23_1343,searchDisc5,2021.2.3,59.96247500195817,
images/exp2b_trial_133_colour2_distractors1_r.png,r,3,2,1,0,,,,,0,186,186,186,,,,,,,,,,,,,,,,,,,,,,,,,,,,,,,,,,,,,,,,,,,979.701135048992,None,2,0.7759709649835713,979.701135048992,None,,,,,,,,,,,,,,,,None,None,None,,None,None,980.5194151179749,None,3,1,1.0371084029902704,980.5194151179749,None,981.5512656049511,None,None,None,None,,24,001,2023_Jan_23_1343,searchDisc5,2021.2.3,59.96247500195817,
images/exp2a_trial_110_colour3_distractors31_r.png,r,3,3,31,0,,,,,0,187,187,187,,,,,,,,,,,,,,,,,,,,,,,,,,,,,,,,,,,,,,,,,,,981.5681262839935,None,2,0.5366952000185847,981.5681262839935,None,,,,,,,,,,,,,,,,None,None,None,,None,None,982.1535528079839,None,3,1,1.1025053689954802,982.1535528079839,None,983.251422137994,None,None,None,None,,24,001,2023_Jan_23_1343,searchDisc5,2021.2.3,59.96247500195817,
images/exp1a_trial_83_colour1_distractors31_l.png,l,1,1,31,0,,,,,0,188,188,188,,,,,,,,,,,,,,,,,,,,,,,,,,,,,,,,,,,,,,,,,,,983.2689143329626,None,2,0.589495551015716,983.2689143329626,None,,,,,,,,,,,,,,,,None,None,None,,None,None,983.9037124939496,None,1,1,1.2812754539772868,983.9037124939496,None,985.1848078859446,None,None,None,None,,24,001,2023_Jan_23_1343,searchDisc5,2021.2.3,59.96247500195817,
images/exp2c_trial_173_colour3_distractors19_r.png,r,3,3,19,0,,,,,0,189,189,189,,,,,,,,,,,,,,,,,,,,,,,,,,,,,,,,,,,,,,,,,,,985.2023550439626,None,2,0.8542780560092069,985.2023550439626,None,,,,,,,,,,,,,,,,None,None,None,,None,None,986.1037862079684,None,3,1,1.5031930889817886,986.1037862079684,None,987.6013646779872,None,None,None,None,,24,001,2023_Jan_23_1343,searchDisc5,2021.2.3,59.96247500195817,
images/exp2c_trial_189_colour3_distractors31_l.png,l,1,3,31,0,,,,,0,190,190,190,,,,,,,,,,,,,,,,,,,,,,,,,,,,,,,,,,,,,,,,,,,987.6186337989639,None,2,0.6222272859886289,987.6186337989639,None,,,,,,,,,,,,,,,,None,None,None,,None,None,988.285309276951,None,1,1,0.7685363699565642,988.285309276951,None,989.0515748189471,None,None,None,None,,24,001,2023_Jan_23_1343,searchDisc5,2021.2.3,59.96247500195817,
images/exp1a_trial_221_colour3_distractors31_l.png,l,1,3,31,0,,,,,0,191,191,191,,,,,,,,,,,,,,,,,,,,,,,,,,,,,,,,,,,,,,,,,,,989.0692425559973,None,2,0.6541692379978485,989.0692425559973,None,,,,,,,,,,,,,,,,None,None,None,,None,None,989.7683900799602,None,1,1,1.200592870998662,989.7683900799602,None,990.969167860964,None,None,None,None,,24,001,2023_Jan_23_1343,searchDisc5,2021.2.3,59.96247500195817,
images/exp2c_trial_263_colour2_distractors9_r.png,r,3,2,9,0,,,,,0,192,192,192,,,,,,,,,,,,,,,,,,,,,,,,,,,,,,,,,,,,,,,,,,,990.9847284519929,None,2,0.7889770059846342,990.9847284519929,None,,,,,,,,,,,,,,,,None,None,None,,None,None,991.8213457339443,None,3,1,1.003815673000645,991.8213457339443,None,992.8182110239693,None,None,None,None,,24,001,2023_Jan_23_1343,searchDisc5,2021.2.3,59.96247500195817,
images/exp1a_trial_136_colour2_distractors19_r.png,r,3,2,19,0,,,,,0,193,193,193,,,,,,,,,,,,,,,,,,,,,,,,,,,,,,,,,,,,,,,,,,,992.8344160349807,None,2,0.5693457910092548,992.8344160349807,None,,,,,,,,,,,,,,,,None,None,None,,None,None,993.4523296929547,None,3,1,1.4203166399965994,993.4523296929547,None,994.8693343129532,None,None,None,None,,24,001,2023_Jan_23_1343,searchDisc5,2021.2.3,59.96247500195817,
images/exp2c_trial_276_colour2_distractors1_l.png,l,1,2,1,0,,,,,0,194,194,194,,,,,,,,,,,,,,,,,,,,,,,,,,,,,,,,,,,,,,,,,,,994.8878813299816,None,2,0.5706087529542856,994.8878813299816,None,,,,,,,,,,,,,,,,None,None,None,,None,None,995.5025763259619,None,1,1,1.022766807989683,995.5025763259619,None,996.5184944389446,None,None,None,None,,24,001,2023_Jan_23_1343,searchDisc5,2021.2.3,59.96247500195817,
images/exp2c_trial_146_colour1_distractors19_l.png,l,1,1,19,0,,,,,0,195,195,195,,,,,,,,,,,,,,,,,,,,,,,,,,,,,,,,,,,,,,,,,,,996.5380030809902,None,2,0.8707456039846875,996.5380030809902,None,,,,,,,,,,,,,,,,None,None,None,,None,None,997.4549103569589,None,1,1,1.469827072985936,997.4549103569589,None,998.918338397966,None,None,None,None,,24,001,2023_Jan_23_1343,searchDisc5,2021.2.3,59.96247500195817,
images/exp2c_trial_6_colour2_distractors4_r.png,r,3,2,4,0,,,,,0,196,196,196,,,,,,,,,,,,,,,,,,,,,,,,,,,,,,,,,,,,,,,,,,,998.935607272957,None,2,0.8380544069805183,998.935607272957,None,,,,,,,,,,,,,,,,None,None,None,,None,None,999.8188895959756,None,3,1,0.9717630089726299,999.8188895959756,None,1000.7851464279636,None,None,None,None,,24,001,2023_Jan_23_1343,searchDisc5,2021.2.3,59.96247500195817,
images/exp2c_trial_85_colour2_distractors4_l.png,l,1,2,4,0,,,,,0,197,197,197,,,,,,,,,,,,,,,,,,,,,,,,,,,,,,,,,,,,,,,,,,,1000.802279156982,None,2,0.7395404880517162,1000.802279156982,None,,,,,,,,,,,,,,,,None,None,None,,None,None,1001.5871323059546,None,1,1,0.8862107640015893,1001.5871323059546,None,1002.4685385079763,None,None,None,None,,24,001,2023_Jan_23_1343,searchDisc5,2021.2.3,59.96247500195817,
images/exp2b_trial_202_colour3_distractors1_r.png,r,3,3,1,0,,,,,0,198,198,198,,,,,,,,,,,,,,,,,,,,,,,,,,,,,,,,,,,,,,,,,,,1002.4856573379948,None,2,0.70675425499212,1002.4856573379948,None,,,,,,,,,,,,,,,,None,None,None,,None,None,1003.2357560859527,None,3,1,1.2704545260057785,1003.2357560859527,None,1004.5019261229725,None,None,None,None,,24,001,2023_Jan_23_1343,searchDisc5,2021.2.3,59.96247500195817,
images/exp2a_trial_38_colour2_distractors4_r.png,r,3,2,4,0,,,,,0,199,199,199,,,,,,,,,,,,,,,,,,,,,,,,,,,,,,,,,,,,,,,,,,,1004.5186509419582,None,2,0.6211632069898769,1004.5186509419582,None,,,,,,,,,,,,,,,,None,None,None,,None,None,1005.1855824269587,None,3,1,1.0043334850342944,1005.1855824269587,None,1006.1862506479781,None,None,None,None,,24,001,2023_Jan_23_1343,searchDisc5,2021.2.3,59.96247500195817,
images/exp2a_trial_30_colour0_distractors0_r.png,r,3,0,0,0,,,,,0,200,200,200,,,,,,,,,,,,,,,,,,,,,,,,,,,,,,,,,,,,,,,,,,,1006.2038878889871,None,2,0.5874718640116043,1006.2038878889871,None,,,,,,,,,,,,,,,,None,None,None,,None,None,1006.8355177899939,None,3,1,0.8548963040229864,1006.8355177899939,None,1007.6852865139779,None,None,None,None,,24,001,2023_Jan_23_1343,searchDisc5,2021.2.3,59.96247500195817,
images/exp2c_trial_67_colour1_distractors19_r.png,r,3,1,19,0,,,,,0,201,201,201,,,,,,,,,,,,,,,,,,,,,,,,,,,,,,,,,,,,,,,,,,,1007.7019531299593,None,2,0.6220479540061206,1007.7019531299593,None,,,,,,,,,,,,,,,,None,None,None,,None,None,1008.3697753009619,None,3,1,1.1532522880006582,1008.3697753009619,None,1009.518768155988,None,None,None,None,,24,001,2023_Jan_23_1343,searchDisc5,2021.2.3,59.96247500195817,
images/exp2a_trial_234_colour3_distractors1_r.png,r,3,3,1,0,,,,,0,202,202,202,,,,,,,,,,,,,,,,,,,,,,,,,,,,,,,,,,,,,,,,,,,1009.5353328450001,None,2,0.5574026620015502,1009.5353328450001,None,,,,,,,,,,,,,,,,None,None,None,,None,None,1010.1365549149923,None,3,1,0.6865405190037563,1010.1365549149923,None,1010.8187595899624,None,None,None,None,,24,001,2023_Jan_23_1343,searchDisc5,2021.2.3,59.96247500195817,
images/exp2b_trial_13_colour3_distractors19_r.png,r,3,3,19,0,,,,,0,203,203,203,,,,,,,,,,,,,,,,,,,,,,,,,,,,,,,,,,,,,,,,,,,1010.8363724849769,None,2,0.5571172069758177,1010.8363724849769,None,,,,,,,,,,,,,,,,None,None,None,,None,None,1011.4361184429727,None,3,1,0.7675278800306842,1011.4361184429727,None,1012.2021168059844,None,None,None,None,,24,001,2023_Jan_23_1343,searchDisc5,2021.2.3,59.96247500195817,
images/exp2a_trial_60_colour3_distractors19_l.png,l,1,3,19,0,,,,,0,204,204,204,,,,,,,,,,,,,,,,,,,,,,,,,,,,,,,,,,,,,,,,,,,1012.2187761699897,None,2,0.521164987992961,1012.2187761699897,None,,,,,,,,,,,,,,,,None,None,None,,None,None,1012.7885345889954,None,1,1,1.6367265190347098,1012.7885345889954,None,1014.4188718880002,None,None,None,None,,24,001,2023_Jan_23_1343,searchDisc5,2021.2.3,59.96247500195817,
images/exp2b_trial_66_colour1_distractors9_r.png,r,3,1,9,0,,,,,0,205,205,205,,,,,,,,,,,,,,,,,,,,,,,,,,,,,,,,,,,,,,,,,,,1014.4355608169571,None,2,0.6548142849933356,1014.4355608169571,None,,,,,,,,,,,,,,,,None,None,None,,None,None,1015.1366822669515,None,3,1,1.3543528990121558,1015.1366822669515,None,1016.4855062369431,None,None,None,None,,24,001,2023_Jan_23_1343,searchDisc5,2021.2.3,59.96247500195817,
images/exp1a_trial_113_colour1_distractors9_l.png,l,1,1,9,0,,,,,0,206,206,206,,,,,,,,,,,,,,,,,,,,,,,,,,,,,,,,,,,,,,,,,,,1016.5029733719421,None,2,0.587829040014185,1016.5029733719421,None,,,,,,,,,,,,,,,,None,None,None,,None,None,1017.1359238849836,None,1,1,1.1545496479957364,1017.1359238849836,None,1018.2855675889703,None,None,None,None,,24,001,2023_Jan_23_1343,searchDisc5,2021.2.3,59.96247500195817,
images/exp2b_trial_290_colour1_distractors9_r.png,r,3,1,9,0,,,,,0,207,207,207,,,,,,,,,,,,,,,,,,,,,,,,,,,,,,,,,,,,,,,,,,,1018.3022992039914,None,2,0.5743736360454932,1018.3022992039914,None,,,,,,,,,,,,,,,,None,None,None,,None,None,1018.9183381459443,None,3,1,0.9345420849858783,1018.9183381459443,None,1019.8523915969824,None,None,None,None,,24,001,2023_Jan_23_1343,searchDisc5,2021.2.3,59.96247500195817,
images/exp2a_trial_125_colour3_distractors31_l.png,l,1,3,31,0,,,,,0,208,208,208,,,,,,,,,,,,,,,,,,,,,,,,,,,,,,,,,,,,,,,,,,,1019.8689909599489,None,2,0.48884692101273686,1019.8689909599489,None,,,,,,,,,,,,,,,,None,None,None,,None,None,1020.4052175489487,None,1,1,0.6848680599941872,1020.4052175489487,None,1021.0854967149614,None,None,None,None,,24,001,2023_Jan_23_1343,searchDisc5,2021.2.3,59.96247500195817,
images/exp2b_trial_288_colour1_distractors1_r.png,r,3,1,1,0,,,,,0,209,209,209,,,,,,,,,,,,,,,,,,,,,,,,,,,,,,,,,,,,,,,,,,,1021.103004783974,None,2,0.537289174972102,1021.103004783974,None,,,,,,,,,,,,,,,,None,None,None,,None,None,1021.6890012629447,None,3,1,0.8907619850360788,1021.6890012629447,None,1022.5691620919795,None,None,None,None,,24,001,2023_Jan_23_1343,searchDisc5,2021.2.3,59.96247500195817,
images/exp2a_trial_37_colour2_distractors1_r.png,r,3,2,1,0,,,,,0,210,210,210,,,,,,,,,,,,,,,,,,,,,,,,,,,,,,,,,,,,,,,,,,,1022.5857095239917,None,2,0.5552268149913289,1022.5857095239917,None,,,,,,,,,,,,,,,,None,None,None,,None,None,1023.1878446029732,None,3,1,1.0060694660060108,1023.1878446029732,None,1024.1869481819856,None,None,None,None,,24,001,2023_Jan_23_1343,searchDisc5,2021.2.3,59.96247500195817,
images/exp1a_trial_236_colour3_distractors9_r.png,r,3,3,9,0,,,,,0,211,211,211,,,,,,,,,,,,,,,,,,,,,,,,,,,,,,,,,,,,,,,,,,,1024.2032870969852,None,2,0.5377570820273831,1024.2032870969852,None,,,,,,,,,,,,,,,,None,None,None,,None,None,1024.7891619609436,None,3,1,0.9195599969825707,1024.7891619609436,None,1025.7024434869934,None,None,None,None,,24,001,2023_Jan_23_1343,searchDisc5,2021.2.3,59.96247500195817,
images/exp2c_trial_90_colour3_distractors4_l.png,l,1,3,4,0,,,,,0,212,212,212,,,,,,,,,,,,,,,,,,,,,,,,,,,,,,,,,,,,,,,,,,,1025.7191779969726,None,2,0.5219926789868623,1025.7191779969726,None,,,,,,,,,,,,,,,,None,None,None,,None,None,1026.2868569069542,None,1,1,1.0544945239671506,1026.2868569069542,None,1027.3359786809713,None,None,None,None,,24,001,2023_Jan_23_1343,searchDisc5,2021.2.3,59.96247500195817,
images/exp1a_trial_243_colour1_distractors31_l.png,l,1,1,31,0,,,,,0,213,213,213,,,,,,,,,,,,,,,,,,,,,,,,,,,,,,,,,,,,,,,,,,,1027.3530351889785,None,2,0.573457402002532,1027.3530351889785,None,,,,,,,,,,,,,,,,None,None,None,,None,None,1027.971722423972,None,1,1,1.0497575550107285,1027.971722423972,None,1029.0203446839994,None,None,None,None,,24,001,2023_Jan_23_1343,searchDisc5,2021.2.3,59.96247500195817,
images/exp2c_trial_9_colour2_distractors31_r.png,r,3,2,31,0,,,,,0,214,214,214,,,,,,,,,,,,,,,,,,,,,,,,,,,,,,,,,,,,,,,,,,,1029.0358288859716,None,2,0.5526213319972157,1029.0358288859716,None,,,,,,,,,,,,,,,,None,None,None,,None,None,1029.6379979239427,None,3,1,0.8693183620343916,1029.6379979239427,None,1030.5026148579607,None,None,None,None,,24,001,2023_Jan_23_1343,searchDisc5,2021.2.3,59.96247500195817,
images/exp2b_trial_277_colour2_distractors4_l.png,l,1,2,4,0,,,,,0,215,215,215,,,,,,,,,,,,,,,,,,,,,,,,,,,,,,,,,,,,,,,,,,,1030.5199129519751,None,2,0.5560265120002441,1030.5199129519751,None,,,,,,,,,,,,,,,,None,None,None,,None,None,1031.1220691109775,None,1,1,0.8048851279891096,1031.1220691109775,None,1031.9203299759945,None,None,None,None,,24,001,2023_Jan_23_1343,searchDisc5,2021.2.3,59.96247500195817,
images/exp1a_trial_57_colour3_distractors1_l.png,l,1,3,1,0,,,,,0,216,216,216,,,,,,,,,,,,,,,,,,,,,,,,,,,,,,,,,,,,,,,,,,,1031.9357526659733,None,2,0.5366803759825416,1031.9357526659733,None,,,,,,,,,,,,,,,,None,None,None,,None,None,1032.5216030359734,None,1,1,0.6399321350036189,1032.5216030359734,None,1033.1526380709663,None,None,None,None,,24,001,2023_Jan_23_1343,searchDisc5,2021.2.3,59.96247500195817,
images/exp2a_trial_50_colour1_distractors19_l.png,l,1,1,19,0,,,,,0,217,217,217,,,,,,,,,,,,,,,,,,,,,,,,,,,,,,,,,,,,,,,,,,,1033.1699410569854,None,2,0.5243118400103413,1033.1699410569854,None,,,,,,,,,,,,,,,,None,None,None,,None,None,1033.7379864369868,None,1,1,1.034738361951895,1033.7379864369868,None,1034.7702012569468,None,None,None,None,,24,001,2023_Jan_23_1343,searchDisc5,2021.2.3,59.96247500195817,
images/exp2b_trial_148_colour2_distractors1_l.png,l,1,2,1,0,,,,,0,218,218,218,,,,,,,,,,,,,,,,,,,,,,,,,,,,,,,,,,,,,,,,,,,1034.7866368339746,None,2,0.5390904229716398,1034.7866368339746,None,,,,,,,,,,,,,,,,None,None,None,,None,None,1035.3717233899515,None,1,1,0.7541063799872063,1035.3717233899515,None,1036.119534476992,None,None,None,None,,24,001,2023_Jan_23_1343,searchDisc5,2021.2.3,59.96247500195817,
images/exp2a_trial_135_colour2_distractors9_r.png,r,3,2,9,0,,,,,0,219,219,219,,,,,,,,,,,,,,,,,,,,,,,,,,,,,,,,,,,,,,,,,,,1036.1369954259717,None,2,0.5398113580304198,1036.1369954259717,None,,,,,,,,,,,,,,,,None,None,None,,None,None,1036.7217338929768,None,3,1,1.3822608980117366,1036.7217338929768,None,1038.102825275954,None,None,None,None,,24,001,2023_Jan_23_1343,searchDisc5,2021.2.3,59.96247500195817,
images/exp2b_trial_204_colour3_distractors9_r.png,r,3,3,9,0,,,,,0,220,220,220,,,,,,,,,,,,,,,,,,,,,,,,,,,,,,,,,,,,,,,,,,,1038.120263741992,None,2,0.5551999980234541,1038.120263741992,None,,,,,,,,,,,,,,,,None,None,None,,None,None,1038.7230493079987,None,3,1,1.3700850199675187,1038.7230493079987,None,1040.085676076979,None,None,None,None,,24,001,2023_Jan_23_1343,searchDisc5,2021.2.3,59.96247500195817,
images/exp2b_trial_85_colour2_distractors4_l.png,l,1,2,4,0,,,,,0,221,221,221,,,,,,,,,,,,,,,,,,,,,,,,,,,,,,,,,,,,,,,,,,,1040.1033698079991,None,2,0.5573127410025336,1040.1033698079991,None,,,,,,,,,,,,,,,,None,None,None,,None,None,1040.7027224379708,None,1,1,1.0696771799703129,1040.7027224379708,None,1041.769589456945,None,None,None,None,,24,001,2023_Jan_23_1343,searchDisc5,2021.2.3,59.96247500195817,
images/exp2a_trial_24_colour2_distractors31_l.png,l,1,2,31,0,,,,,0,222,222,222,,,,,,,,,,,,,,,,,,,,,,,,,,,,,,,,,,,,,,,,,,,1041.7853200929821,None,2,0.5046482459874824,1041.7853200929821,None,,,,,,,,,,,,,,,,None,None,None,,None,None,1042.336768527981,None,1,1,1.04766366496915,1042.336768527981,None,1043.3863312119909,None,None,None,None,,24,001,2023_Jan_23_1343,searchDisc5,2021.2.3,59.96247500195817,
images/exp2b_trial_151_colour2_distractors19_l.png,l,1,2,19,0,,,,,0,223,223,223,,,,,,,,,,,,,,,,,,,,,,,,,,,,,,,,,,,,,,,,,,,1043.4029559429619,None,2,0.5188203320140019,1043.4029559429619,None,,,,,,,,,,,,,,,,None,None,None,,None,None,1043.9723939589458,None,1,1,0.7547111670137383,1043.9723939589458,None,1044.7196714109566,None,None,None,None,,24,001,2023_Jan_23_1343,searchDisc5,2021.2.3,59.96247500195817,
images/exp2b_trial_40_colour2_distractors19_r.png,r,3,2,19,0,,,,,0,224,224,224,,,,,,,,,,,,,,,,,,,,,,,,,,,,,,,,,,,,,,,,,,,1044.7363373459666,None,2,0.4878706750459969,1044.7363373459666,None,,,,,,,,,,,,,,,,None,None,None,,None,None,1045.2708630019915,None,3,1,1.020779853046406,1045.2708630019915,None,1046.2873109389736,None,None,None,None,,24,001,2023_Jan_23_1343,searchDisc5,2021.2.3,59.96247500195817,
images/exp2c_trial_233_colour2_distractors31_r.png,r,3,2,31,0,,,,,0,225,225,225,,,,,,,,,,,,,,,,,,,,,,,,,,,,,,,,,,,,,,,,,,,1046.302886969992,None,2,0.5398504680488259,1046.302886969992,None,,,,,,,,,,,,,,,,None,None,None,,None,None,1046.8891865279875,None,3,1,0.9331897950032726,1046.8891865279875,None,1047.8199233169842,None,None,None,None,,24,001,2023_Jan_23_1343,searchDisc5,2021.2.3,59.96247500195817,
images/exp2b_trial_246_colour2_distractors9_l.png,l,1,2,9,0,,,,,0,226,226,226,,,,,,,,,,,,,,,,,,,,,,,,,,,,,,,,,,,,,,,,,,,1047.8392626179848,None,2,0.8045316420029849,1047.8392626179848,None,,,,,,,,,,,,,,,,None,None,None,,None,None,1048.689768938988,None,1,1,0.8219095320091583,1048.689768938988,None,1049.5032114629691,None,None,None,None,,24,001,2023_Jan_23_1343,searchDisc5,2021.2.3,59.96247500195817,
