ImageFile,targ_side,correctAnswer,colour,distNo,targetType,trials_2.thisRepN,trials_2.thisTrialN,trials_2.thisN,trials_2.thisIndex,trials.thisRepN,trials.thisTrialN,trials.thisN,trials.thisIndex,text_6.started,text_6.stopped,buttonBox.keys,buttonBox.rt,buttonBox.started,buttonBox.stopped,text_7.started,text_7.stopped,buttonBox_3.keys,buttonBox_3.rt,buttonBox_3.started,buttonBox_3.stopped,text_8.started,text_8.stopped,buttonBox_4.keys,buttonBox_4.rt,buttonBox_4.started,buttonBox_4.stopped,text_9.started,text_9.stopped,buttonBox_5.keys,buttonBox_5.rt,buttonBox_5.started,buttonBox_5.stopped,text_2.started,text_2.stopped,buttonBox_6.keys,buttonBox_6.rt,buttonBox_6.started,buttonBox_6.stopped,text_5.started,text_5.stopped,buttonBox_7.keys,buttonBox_7.rt,image_2.started,image_2.stopped,image_3.started,image_3.stopped,buttonBox_8.keys,buttonBox_8.rt,buttonBox_8.started,buttonBox_8.stopped,polygon.started,polygon.stopped,buttonBox_9.keys,buttonBox_9.rt,buttonBox_9.started,buttonBox_9.stopped,image.started,image.stopped,buttonBox_10.keys,buttonBox_10.corr,buttonBox_10.rt,buttonBox_10.started,buttonBox_10.stopped,text_4.started,text_4.stopped,text.started,text.stopped,buttonBox_11.keys,buttonBox_11.rt,buttonBox_11.started,buttonBox_11.stopped,targetTypeInstruction.started,targetTypeInstruction.stopped,buttonBox_2.keys,buttonBox_2.rt,buttonBox_2.started,buttonBox_2.stopped,dispStimuli.started,dispStimuli.stopped,buttonBox_12.keys,buttonBox_12.corr,buttonBox_12.rt,buttonBox_12.started,buttonBox_12.stopped,breakMessage.started,breakMessage.stopped,buttonBox_13.keys,buttonBox_13.started,buttonBox_13.stopped,buttonBox_13.rt,participant,session,date,expName,psychopyVersion,frameRate,
,,,,,,,,,,,,,,40.57584562600823,None,2,21.24669455504045,40.57584562600823,None,,,,,,,,,,,,,,,,,,,,,,,,,,,,,,,,,,,,,,,,,,,,,,,,,,,,,,,,,,,,,,,,,,,,,,,,,,,,,26,001,2023_Jan_23_1521,searchDisc5,2021.2.3,60.033356226390566,
,,,,,,,,,,,,,,,,,,,,61.824394745985046,None,2,0.16668493195902556,61.824394745985046,None,,,,,,,,,,,,,,,,,,,,,,,,,,,,,,,,,,,,,,,,,,,,,,,,,,,,,,,,,,,,,,,,,,,,,,,26,001,2023_Jan_23_1521,searchDisc5,2021.2.3,60.033356226390566,
,,,,,,,,,,,,,,,,,,,,,,,,,,61.9910343909869,None,2,12.880698822962586,61.9910343909869,None,,,,,,,,,,,,,,,,,,,,,,,,,,,,,,,,,,,,,,,,,,,,,,,,,,,,,,,,,,,,,,,,,26,001,2023_Jan_23_1521,searchDisc5,2021.2.3,60.033356226390566,
,,,,,,,,,,,,,,,,,,,,,,,,,,,,,,,,74.8743329209974,None,2,4.2625036489916965,74.8743329209974,None,,,,,,,,,,,,,,,,,,,,,,,,,,,,,,,,,,,,,,,,,,,,,,,,,,,,,,,,,,,26,001,2023_Jan_23_1521,searchDisc5,2021.2.3,60.033356226390566,
,,,,,,,,,,,,,,,,,,,,,,,,,,,,,,,,,,,,,,79.1413138420321,None,2,9.450388797034975,80.12707467301516,None,,,,,,,,,,,,,,,,,,,,,,,,,,,,,,,,,,,,,,,,,,,,,,,,,,,,,26,001,2023_Jan_23_1521,searchDisc5,2021.2.3,60.033356226390566,
,,,,,,,,,,,,,,,,,,,,,,,,,,,,,,,,,,,,,,,,,,,,89.57715624500997,None,2,8.064771494013257,,,,,,,,,,,,,,,,,,,,,,,,,,,,,,,,,,,,,,,,,,,,,,,,,26,001,2023_Jan_23_1521,searchDisc5,2021.2.3,60.033356226390566,
,,,,,,,,,,,,,,,,,,,,,,,,,,,,,,,,,,,,,,,,,,,,,,,,100.64188506198116,None,100.64188506198116,None,2,4.930703275022097,100.64188506198116,None,,,,,,,,,,,,,,,,,,,,,,,,,,,,,,,,,,,,,,,,,26,001,2023_Jan_23_1521,searchDisc5,2021.2.3,60.033356226390566,
Practice arrays/exp1a_trial_1_colour1_distractors4_r.png,r,3,,,,0,0,0,1,,,,,,,,,,,,,,,,,,,,,,,,,,,,,,,,,,,,,,,,,,,,,,,105.59194185800152,None,2,13.072458645969164,105.59194185800152,None,118.72852563601919,None,3,1,2.003735646023415,118.72852563601919,None,120.7261359320255,None,,,,,,,,,,,,,,,,,,,,,,,,,,26,001,2023_Jan_23_1521,searchDisc5,2021.2.3,60.033356226390566,
Practice arrays/exp1a_trial_16_colour1_distractors4_l.png,l,1,,,,0,1,1,13,,,,,,,,,,,,,,,,,,,,,,,,,,,,,,,,,,,,,,,,,,,,,,,122.72783146298025,None,2,1.5815624319948256,122.72783146298025,None,124.36152156302705,None,3,0,0.9019461490097456,124.36152156302705,None,125.259591930022,None,,,,,,,,,,,,,,,,,,,,,,,,,,26,001,2023_Jan_23_1521,searchDisc5,2021.2.3,60.033356226390566,
Practice arrays/exp1a_trial_10_colour3_distractors1_r.png,r,3,,,,0,2,2,4,,,,,,,,,,,,,,,,,,,,,,,,,,,,,,,,,,,,,,,,,,,,,,,127.26142331800656,None,2,0.5638828920200467,127.26142331800656,None,127.87649494002108,None,3,1,0.9868242760421708,127.87649494002108,None,128.85949682700448,None,,,,,,,,,,,,,,,,,,,,,,,,,,26,001,2023_Jan_23_1521,searchDisc5,2021.2.3,60.033356226390566,
Practice arrays/exp1a_trial_30_colour0_distractors0_r.png,r,3,,,,0,3,3,14,,,,,,,,,,,,,,,,,,,,,,,,,,,,,,,,,,,,,,,,,,,,,,,130.86159407999367,None,2,0.39712588797556236,130.86159407999367,None,131.30956471903482,None,3,1,0.5895113470032811,131.30956471903482,None,131.89298040798167,None,,,,,,,,,,,,,,,,,,,,,,,,,,26,001,2023_Jan_23_1521,searchDisc5,2021.2.3,60.033356226390566,
Practice arrays/exp1a_trial_8_colour2_distractors19_r.png,r,3,,,,0,4,4,3,,,,,,,,,,,,,,,,,,,,,,,,,,,,,,,,,,,,,,,,,,,,,,,133.89459492702736,None,2,0.499194276984781,133.89459492702736,None,134.44587941101054,None,3,1,2.4803417089860886,134.44587941101054,None,136.92642523098039,None,,,,,,,,,,,,,,,,,,,,,,,,,,26,001,2023_Jan_23_1521,searchDisc5,2021.2.3,60.033356226390566,
Practice arrays/exp1a_trial_27_colour3_distractors9_l.png,l,1,,,,0,5,5,12,,,,,,,,,,,,,,,,,,,,,,,,,,,,,,,,,,,,,,,,,,,,,,,138.9284635570366,None,2,0.3304656510008499,138.9284635570366,None,139.31192617001943,None,1,1,1.1543059890391305,139.31192617001943,None,140.4598460670095,None,,,,,,,,,,,,,,,,,,,,,,,,,,26,001,2023_Jan_23_1521,searchDisc5,2021.2.3,60.033356226390566,
Practice arrays/exp1a_trial_25_colour3_distractors1_l.png,l,1,,,,0,6,6,11,,,,,,,,,,,,,,,,,,,,,,,,,,,,,,,,,,,,,,,,,,,,,,,142.4618826310034,None,2,0.43022967799333856,142.4618826310034,None,142.94323871302186,None,1,1,2.2865943409851752,142.94323871302186,None,145.2266204589978,None,,,,,,,,,,,,,,,,,,,,,,,,,,26,001,2023_Jan_23_1521,searchDisc5,2021.2.3,60.033356226390566,
Practice arrays/exp1a_trial_17_colour1_distractors9_l.png,l,1,,,,0,7,7,7,,,,,,,,,,,,,,,,,,,,,,,,,,,,,,,,,,,,,,,,,,,,,,,147.22875171003398,None,2,0.6639255349873565,147.22875171003398,None,147.94479951501125,None,1,1,1.9196026969584636,147.94479951501125,None,149.85994123702403,None,,,,,,,,,,,,,,,,,,,,,,,,,,26,001,2023_Jan_23_1521,searchDisc5,2021.2.3,60.033356226390566,
Practice arrays/exp1a_trial_21_colour2_distractors4_l.png,l,1,,,,0,8,8,9,,,,,,,,,,,,,,,,,,,,,,,,,,,,,,,,,,,,,,,,,,,,,,,151.86227121698903,None,2,0.41357191803399473,151.86227121698903,None,152.3268868420273,None,3,0,1.3385552580002695,152.3268868420273,None,153.66018688498298,None,,,,,,,,,,,,,,,,,,,,,,,,,,26,001,2023_Jan_23_1521,searchDisc5,2021.2.3,60.033356226390566,
Practice arrays/exp1a_trial_14_colour3_distractors31_r.png,r,3,,,,0,9,9,6,,,,,,,,,,,,,,,,,,,,,,,,,,,,,,,,,,,,,,,,,,,,,,,155.66186566103715,None,2,0.4310257990146056,155.66186566103715,None,156.14545903698308,None,3,1,0.7829776369617321,156.14545903698308,None,156.92675344698364,None,,,,,,,,,,,,,,,,,,,,,,,,,,26,001,2023_Jan_23_1521,searchDisc5,2021.2.3,60.033356226390566,
Practice arrays/exp1a_trial_18_colour1_distractors19_l.png,l,1,,,,0,10,10,8,,,,,,,,,,,,,,,,,,,,,,,,,,,,,,,,,,,,,,,,,,,,,,,158.92898949998198,None,2,0.38375582196749747,158.92898949998198,None,159.35975271998905,None,1,1,0.8152951830415986,159.35975271998905,None,160.17698920099065,None,,,,,,,,,,,,,,,,,,,,,,,,,,26,001,2023_Jan_23_1521,searchDisc5,2021.2.3,60.033356226390566,
Practice arrays/exp1a_trial_12_colour3_distractors9_r.png,r,3,,,,0,11,11,5,,,,,,,,,,,,,,,,,,,,,,,,,,,,,,,,,,,,,,,,,,,,,,,162.17862612201134,None,2,0.29708489699987695,162.17862612201134,None,162.52937363402452,None,3,1,0.7203107110108249,162.52937363402452,None,163.24375426099868,None,,,,,,,,,,,,,,,,,,,,,,,,,,26,001,2023_Jan_23_1521,searchDisc5,2021.2.3,60.033356226390566,
Practice arrays/exp1a_trial_0_colour1_distractors1_r.png,r,3,,,,0,12,12,0,,,,,,,,,,,,,,,,,,,,,,,,,,,,,,,,,,,,,,,,,,,,,,,165.24575279903365,None,2,0.3494473029859364,165.24575279903365,None,165.64599984302185,None,3,1,0.8219726940151304,165.64599984302185,None,166.46039207000285,None,,,,,,,,,,,,,,,,,,,,,,,,,,26,001,2023_Jan_23_1521,searchDisc5,2021.2.3,60.033356226390566,
Practice arrays/exp1a_trial_23_colour2_distractors19_l.png,l,1,,,,0,13,13,10,,,,,,,,,,,,,,,,,,,,,,,,,,,,,,,,,,,,,,,,,,,,,,,168.46251493901946,None,2,0.28068551601609215,168.46251493901946,None,168.79603227000916,None,1,1,0.817774408031255,168.79603227000916,None,169.6104320550221,None,,,,,,,,,,,,,,,,,,,,,,,,,,26,001,2023_Jan_23_1521,searchDisc5,2021.2.3,60.033356226390566,
Practice arrays/exp1a_trial_7_colour2_distractors9_r.png,r,3,,,,0,14,14,2,,,,,,,,,,,,,,,,,,,,,,,,,,,,,,,,,,,,,,,,,,,,,,,171.61223963199882,None,2,0.349249373015482,171.61223963199882,None,172.01241042203037,None,3,1,0.601494284986984,172.01241042203037,None,172.6105726719834,None,,,,,,,,,,,,,,,,,,,,,,,,,,26,001,2023_Jan_23_1521,searchDisc5,2021.2.3,60.033356226390566,
Practice arrays/exp1a_trial_31_colour0_distractors0_l.png,l,1,,,,0,15,15,15,,,,,,,,,,,,,,,,,,,,,,,,,,,,,,,,,,,,,,,,,,,,,,,174.61279144702712,None,2,0.2471093240310438,174.61279144702712,None,174.91085173399188,None,1,1,0.5065387150389142,174.91085173399188,None,175.41077342099743,None,,,,,,,,,,,,,,,,,,,,,,,,,,26,001,2023_Jan_23_1521,searchDisc5,2021.2.3,60.033356226390566,
,,,,,,,,,,,,,,,,,,,,,,,,,,,,,,,,,,,,,,,,,,,,,,,,,,,,,,,,,,,,,,,,,,,,,,,177.4961584599805,None,2,5.318926698004361,178.47759947599843,None,,,,,,,,,,,,,,,,,,,,26,001,2023_Jan_23_1521,searchDisc5,2021.2.3,60.033356226390566,
images/exp2a_trial_275_colour1_distractors31_l.png,l,1,1,31,0,,,,,0,0,0,0,,,,,,,,,,,,,,,,,,,,,,,,,,,,,,,,,,,,,,,,,,,190.17730418703286,None,2,1.079101792012807,190.17730418703286,None,,,,,,,,,,,,,,,,184.3962956580217,None,2,3.7980581870069727,186.3794302950264,None,191.32063909701537,None,1,1,0.6466698180302046,191.32063909701537,None,191.97822244660927,None,None,None,None,,26,001,2023_Jan_23_1521,searchDisc5,2021.2.3,60.033356226390566,
images/exp2c_trial_314_colour3_distractors4_l.png,l,1,3,4,0,,,,,0,1,1,1,,,,,,,,,,,,,,,,,,,,,,,,,,,,,,,,,,,,,,,,,,,191.99425291299121,None,2,0.8889313340187073,191.99425291299121,None,,,,,,,,,,,,,,,,None,None,None,,None,None,192.93005553400144,None,1,1,0.9386494369828142,192.93005553400144,None,193.861372720293,None,None,None,None,,26,001,2023_Jan_23_1521,searchDisc5,2021.2.3,60.033356226390566,
images/exp2b_trial_99_colour1_distractors19_r.png,r,3,1,19,0,,,,,0,2,2,2,,,,,,,,,,,,,,,,,,,,,,,,,,,,,,,,,,,,,,,,,,,193.87979450798593,None,2,0.7359112889971584,193.87979450798593,None,,,,,,,,,,,,,,,,None,None,None,,None,None,194.6626724640373,None,3,1,1.6028683540062048,194.6626724640373,None,196.26138531133182,None,None,None,None,,26,001,2023_Jan_23_1521,searchDisc5,2021.2.3,60.033356226390566,
images/exp1a_trial_285_colour3_distractors31_l.png,l,1,3,31,0,,,,,0,3,3,3,,,,,,,,,,,,,,,,,,,,,,,,,,,,,,,,,,,,,,,,,,,196.28017282002838,None,2,0.5040048980154097,196.28017282002838,None,,,,,,,,,,,,,,,,None,None,None,,None,None,196.829731542035,None,1,1,0.8331917530158535,196.829731542035,None,197.6615014863375,None,None,None,None,,26,001,2023_Jan_23_1521,searchDisc5,2021.2.3,60.033356226390566,
images/exp1a_trial_223_colour0_distractors0_l.png,l,1,0,0,0,,,,,0,4,4,4,,,,,,,,,,,,,,,,,,,,,,,,,,,,,,,,,,,,,,,,,,,197.67803274898324,None,2,0.5204239510348998,197.67803274898324,None,,,,,,,,,,,,,,,,None,None,None,,None,None,198.2470101660001,None,1,1,0.6068692770204507,198.2470101660001,None,198.84482659733038,None,None,None,None,,26,001,2023_Jan_23_1521,searchDisc5,2021.2.3,60.033356226390566,
images/exp1a_trial_1_colour1_distractors4_r.png,r,3,1,4,0,,,,,0,5,5,5,,,,,,,,,,,,,,,,,,,,,,,,,,,,,,,,,,,,,,,,,,,198.8628737310064,None,2,0.48685115203261375,198.8628737310064,None,,,,,,,,,,,,,,,,None,None,None,,None,None,199.39468389301328,None,3,1,1.0364665620145388,199.39468389301328,None,200.42832385430228,None,None,None,None,,26,001,2023_Jan_23_1521,searchDisc5,2021.2.3,60.033356226390566,
images/exp2a_trial_4_colour1_distractors31_r.png,r,3,1,31,0,,,,,0,6,6,6,,,,,,,,,,,,,,,,,,,,,,,,,,,,,,,,,,,,,,,,,,,200.44685585598927,None,2,0.4726915300125256,200.44685585598927,None,,,,,,,,,,,,,,,,None,None,None,,None,None,200.96344288100954,None,3,1,0.7159877920057625,200.96344288100954,None,201.6781896143395,None,None,None,None,,26,001,2023_Jan_23_1521,searchDisc5,2021.2.3,60.033356226390566,
images/exp2c_trial_61_colour3_distractors31_l.png,l,1,3,31,0,,,,,0,7,7,7,,,,,,,,,,,,,,,,,,,,,,,,,,,,,,,,,,,,,,,,,,,201.6941620290163,None,2,0.4734483590000309,201.6941620290163,None,,,,,,,,,,,,,,,,None,None,None,,None,None,202.2133769899956,None,1,1,1.0338005580124445,202.2133769899956,None,203.24493086828733,None,None,None,None,,26,001,2023_Jan_23_1521,searchDisc5,2021.2.3,60.033356226390566,
images/exp2a_trial_151_colour2_distractors19_l.png,l,1,2,19,0,,,,,0,8,8,8,,,,,,,,,,,,,,,,,,,,,,,,,,,,,,,,,,,,,,,,,,,203.26137630298035,None,2,0.4388808479998261,203.26137630298035,None,,,,,,,,,,,,,,,,None,None,None,,None,None,203.74855493498035,None,1,1,0.846345222031232,203.74855493498035,None,204.59491922731394,None,None,None,None,,26,001,2023_Jan_23_1521,searchDisc5,2021.2.3,60.033356226390566,
images/exp2a_trial_291_colour1_distractors19_r.png,r,3,1,19,0,,,,,0,9,9,9,,,,,,,,,,,,,,,,,,,,,,,,,,,,,,,,,,,,,,,,,,,204.61336493503768,None,2,0.471361021976918,204.61336493503768,None,,,,,,,,,,,,,,,,None,None,None,,None,None,205.1303611670155,None,3,1,1.550202272948809,205.1303611670155,None,206.6783017823065,None,None,None,None,,26,001,2023_Jan_23_1521,searchDisc5,2021.2.3,60.033356226390566,
images/exp1a_trial_294_colour2_distractors4_r.png,r,3,2,4,0,,,,,0,10,10,10,,,,,,,,,,,,,,,,,,,,,,,,,,,,,,,,,,,,,,,,,,,206.69485994201386,None,2,0.38748985796701163,206.69485994201386,None,,,,,,,,,,,,,,,,None,None,None,,None,None,207.13045969197992,None,3,1,0.5720036959974095,207.13045969197992,None,207.69474851231206,None,None,None,None,,26,001,2023_Jan_23_1521,searchDisc5,2021.2.3,60.033356226390566,
images/exp2c_trial_23_colour2_distractors19_l.png,l,1,2,19,0,,,,,0,11,11,11,,,,,,,,,,,,,,,,,,,,,,,,,,,,,,,,,,,,,,,,,,,207.71104881598148,None,2,0.4698520840029232,207.71104881598148,None,,,,,,,,,,,,,,,,None,None,None,,None,None,208.22836903698044,None,1,1,0.7208440069807693,208.22836903698044,None,208.94478566329343,None,None,None,None,,26,001,2023_Jan_23_1521,searchDisc5,2021.2.3,60.033356226390566,
images/exp2c_trial_232_colour2_distractors19_r.png,r,3,2,19,0,,,,,0,12,12,12,,,,,,,,,,,,,,,,,,,,,,,,,,,,,,,,,,,,,,,,,,,208.96163670398528,None,2,0.4048720479477197,208.96163670398528,None,,,,,,,,,,,,,,,,None,None,None,,None,None,209.41307503700955,None,3,1,0.6039877600269392,209.41307503700955,None,210.01178304229978,None,None,None,None,,26,001,2023_Jan_23_1521,searchDisc5,2021.2.3,60.033356226390566,
images/exp1a_trial_220_colour3_distractors19_l.png,l,1,3,19,0,,,,,0,13,13,13,,,,,,,,,,,,,,,,,,,,,,,,,,,,,,,,,,,,,,,,,,,210.029775322997,None,2,0.3898133320035413,210.029775322997,None,,,,,,,,,,,,,,,,None,None,None,,None,None,210.46402918803506,None,1,1,0.652130534988828,210.46402918803506,None,211.1119565253204,None,None,None,None,,26,001,2023_Jan_23_1521,searchDisc5,2021.2.3,60.033356226390566,
images/exp2c_trial_191_colour0_distractors0_l.png,l,1,0,0,0,,,,,0,14,14,14,,,,,,,,,,,,,,,,,,,,,,,,,,,,,,,,,,,,,,,,,,,211.12752021098277,None,2,0.35269759502261877,211.12752021098277,None,,,,,,,,,,,,,,,,None,None,None,,None,None,211.52883240400115,None,1,1,0.6739514279761352,211.52883240400115,None,212.19528608631225,None,None,None,None,,26,001,2023_Jan_23_1521,searchDisc5,2021.2.3,60.033356226390566,
images/exp2b_trial_271_colour1_distractors1_l.png,l,1,1,1,0,,,,,0,15,15,15,,,,,,,,,,,,,,,,,,,,,,,,,,,,,,,,,,,,,,,,,,,212.21161969401874,None,2,0.35554244701052085,212.21161969401874,None,,,,,,,,,,,,,,,,None,None,None,,None,None,212.61164540599566,None,1,1,0.7888902460108511,212.61164540599566,None,213.39522756632067,None,None,None,None,,26,001,2023_Jan_23_1521,searchDisc5,2021.2.3,60.033356226390566,
images/exp2a_trial_144_colour1_distractors4_l.png,l,1,1,4,0,,,,,0,16,16,16,,,,,,,,,,,,,,,,,,,,,,,,,,,,,,,,,,,,,,,,,,,213.41318038798636,None,2,0.3378678620210849,213.41318038798636,None,,,,,,,,,,,,,,,,None,None,None,,None,None,213.7972032619873,None,1,1,0.6556598129682243,213.7972032619873,None,214.44461112733114,None,None,None,None,,26,001,2023_Jan_23_1521,searchDisc5,2021.2.3,60.033356226390566,
images/exp2b_trial_87_colour2_distractors19_l.png,l,1,2,19,0,,,,,0,17,17,17,,,,,,,,,,,,,,,,,,,,,,,,,,,,,,,,,,,,,,,,,,,214.46169438498328,None,2,0.30575846903957427,214.46169438498328,None,,,,,,,,,,,,,,,,None,None,None,,None,None,214.81164100102615,None,1,1,0.6199553220067173,214.81164100102615,None,215.4285570843087,None,None,None,None,,26,001,2023_Jan_23_1521,searchDisc5,2021.2.3,60.033356226390566,
images/exp2b_trial_200_colour2_distractors19_r.png,r,3,2,19,0,,,,,0,18,18,18,,,,,,,,,,,,,,,,,,,,,,,,,,,,,,,,,,,,,,,,,,,215.44506052002544,None,2,0.32166714302729815,215.44506052002544,None,,,,,,,,,,,,,,,,None,None,None,,None,None,215.81187468400458,None,3,1,1.0364940340514295,215.81187468400458,None,216.8454098302929,None,None,None,None,,26,001,2023_Jan_23_1521,searchDisc5,2021.2.3,60.033356226390566,
images/exp2b_trial_125_colour3_distractors31_l.png,l,1,3,31,0,,,,,0,19,19,19,,,,,,,,,,,,,,,,,,,,,,,,,,,,,,,,,,,,,,,,,,,216.8638623250299,None,2,0.30415668903151527,216.8638623250299,None,,,,,,,,,,,,,,,,None,None,None,,None,None,217.21219433902297,None,1,1,0.7028499679872766,217.21219433902297,None,217.91187325232312,None,None,None,None,,26,001,2023_Jan_23_1521,searchDisc5,2021.2.3,60.033356226390566,
images/exp2b_trial_301_colour3_distractors19_r.png,r,3,3,19,0,,,,,0,20,20,20,,,,,,,,,,,,,,,,,,,,,,,,,,,,,,,,,,,,,,,,,,,217.92833487299504,None,2,0.43752353999298066,217.92833487299504,None,,,,,,,,,,,,,,,,None,None,None,,None,None,218.41344608098734,None,3,1,0.9028163900366053,218.41344608098734,None,219.3120897993387,None,None,None,None,,26,001,2023_Jan_23_1521,searchDisc5,2021.2.3,60.033356226390566,
images/exp2a_trial_244_colour2_distractors1_l.png,l,1,2,1,0,,,,,0,21,21,21,,,,,,,,,,,,,,,,,,,,,,,,,,,,,,,,,,,,,,,,,,,219.3284348769812,None,2,0.43996565899578854,219.3284348769812,None,,,,,,,,,,,,,,,,None,None,None,,None,None,219.8139490049798,None,1,1,0.7204292170354165,219.8139490049798,None,220.529134432337,None,None,None,None,,26,001,2023_Jan_23_1521,searchDisc5,2021.2.3,60.033356226390566,
images/exp1a_trial_7_colour2_distractors9_r.png,r,3,2,9,0,,,,,0,22,22,22,,,,,,,,,,,,,,,,,,,,,,,,,,,,,,,,,,,,,,,,,,,220.54529118002392,None,2,0.3705431089620106,220.54529118002392,None,,,,,,,,,,,,,,,,None,None,None,,None,None,220.96196411002893,None,3,1,0.6212869809824042,220.96196411002893,None,221.57862120234057,None,None,None,None,,26,001,2023_Jan_23_1521,searchDisc5,2021.2.3,60.033356226390566,
images/exp2a_trial_94_colour0_distractors0_r.png,r,3,0,0,0,,,,,0,23,23,23,,,,,,,,,,,,,,,,,,,,,,,,,,,,,,,,,,,,,,,,,,,221.59526931401342,None,2,0.4041055950219743,221.59526931401342,None,,,,,,,,,,,,,,,,None,None,None,,None,None,222.04533178400015,None,3,1,0.5213476159842685,222.04533178400015,None,222.56186517830355,None,None,None,None,,26,001,2023_Jan_23_1521,searchDisc5,2021.2.3,60.033356226390566,
images/exp2b_trial_255_colour0_distractors0_l.png,l,1,0,0,0,,,,,0,24,24,24,,,,,,,,,,,,,,,,,,,,,,,,,,,,,,,,,,,,,,,,,,,222.57864343200345,None,2,0.43800589203601703,222.57864343200345,None,,,,,,,,,,,,,,,,None,None,None,,None,None,223.0640918990248,None,1,1,0.5754004240152426,223.0640918990248,None,223.62867438329266,None,None,None,None,,26,001,2023_Jan_23_1521,searchDisc5,2021.2.3,60.033356226390566,
images/exp2c_trial_39_colour2_distractors9_r.png,r,3,2,9,0,,,,,0,25,25,25,,,,,,,,,,,,,,,,,,,,,,,,,,,,,,,,,,,,,,,,,,,223.64486974402098,None,2,0.36940669699106365,223.64486974402098,None,,,,,,,,,,,,,,,,None,None,None,,None,None,224.0618925659801,None,3,1,0.5884149679914117,224.0618925659801,None,224.64552528930943,None,None,None,None,,26,001,2023_Jan_23_1521,searchDisc5,2021.2.3,60.033356226390566,
images/exp2a_trial_300_colour3_distractors9_r.png,r,3,3,9,0,,,,,0,26,26,26,,,,,,,,,,,,,,,,,,,,,,,,,,,,,,,,,,,,,,,,,,,224.66134307999164,None,2,0.4561416379874572,224.66134307999164,None,,,,,,,,,,,,,,,,None,None,None,,None,None,225.1623919470003,None,3,1,0.6870577150257304,225.1623919470003,None,225.84544228833983,None,None,None,None,,26,001,2023_Jan_23_1521,searchDisc5,2021.2.3,60.033356226390566,
images/exp1a_trial_125_colour3_distractors31_l.png,l,1,3,31,0,,,,,0,27,27,27,,,,,,,,,,,,,,,,,,,,,,,,,,,,,,,,,,,,,,,,,,,225.86156731302617,None,2,0.4230891729821451,225.86156731302617,None,,,,,,,,,,,,,,,,None,None,None,,None,None,226.33086493698647,None,1,1,0.7321912539773621,226.33086493698647,None,227.06246878033852,None,None,None,None,,26,001,2023_Jan_23_1521,searchDisc5,2021.2.3,60.033356226390566,
images/exp1a_trial_244_colour2_distractors1_l.png,l,1,2,1,0,,,,,0,28,28,28,,,,,,,,,,,,,,,,,,,,,,,,,,,,,,,,,,,,,,,,,,,227.07859934098087,None,2,0.37073370296275243,227.07859934098087,None,,,,,,,,,,,,,,,,None,None,None,,None,None,227.49763706000522,None,1,1,0.7730565740494058,227.49763706000522,None,228.26194275428423,None,None,None,None,,26,001,2023_Jan_23_1521,searchDisc5,2021.2.3,60.033356226390566,
images/exp1a_trial_203_colour3_distractors4_r.png,r,3,3,4,0,,,,,0,29,29,29,,,,,,,,,,,,,,,,,,,,,,,,,,,,,,,,,,,,,,,,,,,228.27862277498934,None,2,0.3876481330371462,228.27862277498934,None,,,,,,,,,,,,,,,,None,None,None,,None,None,228.71430882503046,None,3,1,0.7559178280062042,228.71430882503046,None,229.46179089429205,None,None,None,None,,26,001,2023_Jan_23_1521,searchDisc5,2021.2.3,60.033356226390566,
images/exp1a_trial_160_colour1_distractors1_r.png,r,3,1,1,0,,,,,0,30,30,30,,,,,,,,,,,,,,,,,,,,,,,,,,,,,,,,,,,,,,,,,,,229.4787149800104,None,2,0.35489155899267644,229.4787149800104,None,,,,,,,,,,,,,,,,None,None,None,,None,None,229.87866316200234,None,3,1,0.6068762830109335,229.87866316200234,None,230.4792577863147,None,None,None,None,,26,001,2023_Jan_23_1521,searchDisc5,2021.2.3,60.033356226390566,
images/exp2b_trial_306_colour1_distractors19_l.png,l,1,1,19,0,,,,,0,31,31,31,,,,,,,,,,,,,,,,,,,,,,,,,,,,,,,,,,,,,,,,,,,230.4953227469814,None,2,0.4076408779947087,230.4953227469814,None,,,,,,,,,,,,,,,,None,None,None,,None,None,230.9473613880109,None,1,1,0.7501220179838128,230.9473613880109,None,231.69566077833878,None,None,None,None,,26,001,2023_Jan_23_1521,searchDisc5,2021.2.3,60.033356226390566,
images/exp2a_trial_235_colour3_distractors4_r.png,r,3,3,4,0,,,,,0,32,32,32,,,,,,,,,,,,,,,,,,,,,,,,,,,,,,,,,,,,,,,,,,,231.7116485449951,None,2,0.354408124985639,231.7116485449951,None,,,,,,,,,,,,,,,,None,None,None,,None,None,232.1143986909883,None,3,1,0.6551525249960832,232.1143986909883,None,232.762393507309,None,None,None,None,,26,001,2023_Jan_23_1521,searchDisc5,2021.2.3,60.033356226390566,
images/exp1a_trial_30_colour0_distractors0_r.png,r,3,0,0,0,,,,,0,33,33,33,,,,,,,,,,,,,,,,,,,,,,,,,,,,,,,,,,,,,,,,,,,232.7783175270306,None,2,0.43985437898663804,232.7783175270306,None,,,,,,,,,,,,,,,,None,None,None,,None,None,233.2645289740176,None,3,1,0.5716659459867515,233.2645289740176,None,233.82912804531514,None,None,None,None,,26,001,2023_Jan_23_1521,searchDisc5,2021.2.3,60.033356226390566,
images/exp1a_trial_176_colour1_distractors4_l.png,l,1,1,4,0,,,,,0,34,34,34,,,,,,,,,,,,,,,,,,,,,,,,,,,,,,,,,,,,,,,,,,,233.8450356000103,None,2,0.42324169498169795,233.8450356000103,None,,,,,,,,,,,,,,,,None,None,None,,None,None,234.3144489750266,None,1,1,0.6543087780009955,234.3144489750266,None,234.9624410133285,None,None,None,None,,26,001,2023_Jan_23_1521,searchDisc5,2021.2.3,60.033356226390566,
images/exp2b_trial_55_colour2_distractors19_l.png,l,1,2,19,0,,,,,0,35,35,35,,,,,,,,,,,,,,,,,,,,,,,,,,,,,,,,,,,,,,,,,,,234.97885418101214,None,2,0.3373832849902101,234.97885418101214,None,,,,,,,,,,,,,,,,None,None,None,,None,None,235.3625235829968,None,1,1,0.739737135998439,235.3625235829968,None,236.09603161028934,None,None,None,None,,26,001,2023_Jan_23_1521,searchDisc5,2021.2.3,60.033356226390566,
images/exp1a_trial_20_colour2_distractors1_l.png,l,1,2,1,0,,,,,0,36,36,36,,,,,,,,,,,,,,,,,,,,,,,,,,,,,,,,,,,,,,,,,,,236.11214279202977,None,2,0.4021994619979523,236.11214279202977,None,,,,,,,,,,,,,,,,None,None,None,,None,None,236.56443778501125,None,1,1,1.5230218180222437,236.56443778501125,None,238.07902793931424,None,None,None,None,,26,001,2023_Jan_23_1521,searchDisc5,2021.2.3,60.033356226390566,
images/exp2b_trial_69_colour2_distractors1_r.png,r,3,2,1,0,,,,,0,37,37,37,,,,,,,,,,,,,,,,,,,,,,,,,,,,,,,,,,,,,,,,,,,238.09505211701617,None,2,0.2879656369914301,238.09505211701617,None,,,,,,,,,,,,,,,,None,None,None,,None,None,238.4292251750012,None,3,1,0.690109125978779,238.4292251750012,None,239.11261391129227,None,None,None,None,,26,001,2023_Jan_23_1521,searchDisc5,2021.2.3,60.033356226390566,
images/exp2a_trial_91_colour3_distractors9_l.png,l,1,3,9,0,,,,,0,38,38,38,,,,,,,,,,,,,,,,,,,,,,,,,,,,,,,,,,,,,,,,,,,239.12875413603615,None,2,0.33768771798349917,239.12875413603615,None,,,,,,,,,,,,,,,,None,None,None,,None,None,239.51180673303315,None,1,1,0.6383695029653609,239.51180673303315,None,240.14587148932623,None,None,None,None,,26,001,2023_Jan_23_1521,searchDisc5,2021.2.3,60.033356226390566,
images/exp2a_trial_154_colour3_distractors4_l.png,l,1,3,4,0,,,,,0,39,39,39,,,,,,,,,,,,,,,,,,,,,,,,,,,,,,,,,,,,,,,,,,,240.1646400919999,None,2,0.32127511699218303,240.1646400919999,None,,,,,,,,,,,,,,,,None,None,None,,None,None,240.5307524090167,None,1,1,0.8223789439653046,240.5307524090167,None,241.34625624628387,None,None,None,None,,26,001,2023_Jan_23_1521,searchDisc5,2021.2.3,60.033356226390566,
images/exp2c_trial_291_colour1_distractors19_r.png,r,3,1,19,0,,,,,0,40,40,40,,,,,,,,,,,,,,,,,,,,,,,,,,,,,,,,,,,,,,,,,,,241.36261819803622,None,2,0.27081963000819087,241.36261819803622,None,,,,,,,,,,,,,,,,None,None,None,,None,None,241.6793300770223,None,3,1,0.6372501570149325,241.6793300770223,None,242.31259759732637,None,None,None,None,,26,001,2023_Jan_23_1521,searchDisc5,2021.2.3,60.033356226390566,
images/exp1a_trial_92_colour3_distractors19_l.png,l,1,3,19,0,,,,,0,41,41,41,,,,,,,,,,,,,,,,,,,,,,,,,,,,,,,,,,,,,,,,,,,242.33111049700528,None,2,0.423405816021841,242.33111049700528,None,,,,,,,,,,,,,,,,None,None,None,,None,None,242.79544401401654,None,1,1,0.6332503319717944,242.79544401401654,None,243.42873723032534,None,None,None,None,,26,001,2023_Jan_23_1521,searchDisc5,2021.2.3,60.033356226390566,
images/exp1a_trial_86_colour2_distractors9_l.png,l,1,2,9,0,,,,,0,42,42,42,,,,,,,,,,,,,,,,,,,,,,,,,,,,,,,,,,,,,,,,,,,243.4458158899797,None,2,0.35569844499696046,243.4458158899797,None,,,,,,,,,,,,,,,,None,None,None,,None,None,243.84589672798757,None,1,1,0.7042647310299799,243.84589672798757,None,244.54603859632624,None,None,None,None,,26,001,2023_Jan_23_1521,searchDisc5,2021.2.3,60.033356226390566,
images/exp2a_trial_202_colour3_distractors1_r.png,r,3,3,1,0,,,,,0,43,43,43,,,,,,,,,,,,,,,,,,,,,,,,,,,,,,,,,,,,,,,,,,,244.56211936898762,None,2,0.40640799899119884,244.56211936898762,None,,,,,,,,,,,,,,,,None,None,None,,None,None,245.01416061801137,None,3,1,0.6870132809854113,245.01416061801137,None,245.6961986693379,None,None,None,None,,26,001,2023_Jan_23_1521,searchDisc5,2021.2.3,60.033356226390566,
images/exp1a_trial_13_colour3_distractors19_r.png,r,3,3,19,0,,,,,0,44,44,44,,,,,,,,,,,,,,,,,,,,,,,,,,,,,,,,,,,,,,,,,,,245.71392509603174,None,2,0.3542683540144935,245.71392509603174,None,,,,,,,,,,,,,,,,None,None,None,,None,None,246.11472907400457,None,3,1,0.8681661399896257,246.11472907400457,None,246.97932091531692,None,None,None,None,,26,001,2023_Jan_23_1521,searchDisc5,2021.2.3,60.033356226390566,
images/exp2a_trial_126_colour0_distractors0_r.png,r,3,0,0,0,,,,,0,45,45,45,,,,,,,,,,,,,,,,,,,,,,,,,,,,,,,,,,,,,,,,,,,246.99530532903736,None,2,0.38812538201455027,246.99530532903736,None,,,,,,,,,,,,,,,,None,None,None,,None,None,247.42892116302392,None,3,1,0.5716203959891573,247.42892116302392,None,247.99619647530488,None,None,None,None,,26,001,2023_Jan_23_1521,searchDisc5,2021.2.3,60.033356226390566,
images/exp1a_trial_93_colour3_distractors31_l.png,l,1,3,31,0,,,,,0,46,46,46,,,,,,,,,,,,,,,,,,,,,,,,,,,,,,,,,,,,,,,,,,,248.0121291410178,None,2,0.38798315898748115,248.0121291410178,None,,,,,,,,,,,,,,,,None,None,None,,None,None,248.44792653998593,None,1,1,0.6845724020386115,248.44792653998593,None,249.12955316629376,None,None,None,None,,26,001,2023_Jan_23_1521,searchDisc5,2021.2.3,60.033356226390566,
images/exp2c_trial_91_colour3_distractors9_l.png,l,1,3,9,0,,,,,0,47,47,47,,,,,,,,,,,,,,,,,,,,,,,,,,,,,,,,,,,,,,,,,,,249.14790271403035,None,2,0.3044935030047782,249.14790271403035,None,,,,,,,,,,,,,,,,None,None,None,,None,None,249.49595871800557,None,1,1,0.8905469379969873,249.49595871800557,None,250.3794793443114,None,None,None,None,,26,001,2023_Jan_23_1521,searchDisc5,2021.2.3,60.033356226390566,
images/exp2c_trial_33_colour1_distractors4_r.png,r,3,1,4,0,,,,,0,48,48,48,,,,,,,,,,,,,,,,,,,,,,,,,,,,,,,,,,,,,,,,,,,250.39794477802934,None,2,0.31910437799524516,250.39794477802934,None,,,,,,,,,,,,,,,,None,None,None,,None,None,250.7627615290112,None,3,1,1.0883013700367883,250.7627615290112,None,251.84595762229873,None,None,None,None,,26,001,2023_Jan_23_1521,searchDisc5,2021.2.3,60.033356226390566,
images/exp2b_trial_71_colour2_distractors9_r.png,r,3,2,9,0,,,,,0,49,49,49,,,,,,,,,,,,,,,,,,,,,,,,,,,,,,,,,,,,,,,,,,,251.86277163901832,None,2,0.27141314098844305,251.86277163901832,None,,,,,,,,,,,,,,,,None,None,None,,None,None,252.1790335290134,None,3,1,0.6899687979603186,252.1790335290134,None,252.8629783102835,None,None,None,None,,26,001,2023_Jan_23_1521,searchDisc5,2021.2.3,60.033356226390566,
images/exp2b_trial_153_colour3_distractors1_l.png,l,1,3,1,0,,,,,0,50,50,50,,,,,,,,,,,,,,,,,,,,,,,,,,,,,,,,,,,,,,,,,,,252.8791680840077,None,2,0.35273335000965744,252.8791680840077,None,,,,,,,,,,,,,,,,None,None,None,,None,None,253.27915346098598,None,1,1,0.6410738570266403,253.27915346098598,None,253.91303685431484,None,None,None,None,,26,001,2023_Jan_23_1521,searchDisc5,2021.2.3,60.033356226390566,
images/exp2b_trial_197_colour2_distractors1_r.png,r,3,2,1,0,,,,,0,51,51,51,,,,,,,,,,,,,,,,,,,,,,,,,,,,,,,,,,,,,,,,,,,253.9286643420346,None,2,0.35296129796188325,253.9286643420346,None,,,,,,,,,,,,,,,,None,None,None,,None,None,254.3287830229965,None,3,1,0.7414962209877558,254.3287830229965,None,255.0630481112923,None,None,None,None,,26,001,2023_Jan_23_1521,searchDisc5,2021.2.3,60.033356226390566,
images/exp1a_trial_161_colour1_distractors4_r.png,r,3,1,4,0,,,,,0,52,52,52,,,,,,,,,,,,,,,,,,,,,,,,,,,,,,,,,,,,,,,,,,,255.08155724598328,None,2,0.35225838399492204,255.08155724598328,None,,,,,,,,,,,,,,,,None,None,None,,None,None,255.48179655103013,None,3,1,0.7892138310126029,255.48179655103013,None,256.26302257833885,None,None,None,None,,26,001,2023_Jan_23_1521,searchDisc5,2021.2.3,60.033356226390566,
images/exp2b_trial_216_colour2_distractors31_l.png,l,1,2,31,0,,,,,0,53,53,53,,,,,,,,,,,,,,,,,,,,,,,,,,,,,,,,,,,,,,,,,,,256.2795200680266,None,2,0.3710812100325711,256.2795200680266,None,,,,,,,,,,,,,,,,None,None,None,,None,None,256.69643340300536,None,1,1,0.6701530379941687,256.69643340300536,None,257.3631265373144,None,None,None,None,,26,001,2023_Jan_23_1521,searchDisc5,2021.2.3,60.033356226390566,
images/exp2c_trial_224_colour1_distractors1_r.png,r,3,1,1,0,,,,,0,54,54,54,,,,,,,,,,,,,,,,,,,,,,,,,,,,,,,,,,,,,,,,,,,257.3792166420026,None,2,0.3378658629953861,257.3792166420026,None,,,,,,,,,,,,,,,,None,None,None,,None,None,257.76297652203357,None,3,1,0.7062109469552524,257.76297652203357,None,258.4630878932832,None,None,None,None,,26,001,2023_Jan_23_1521,searchDisc5,2021.2.3,60.033356226390566,
images/exp1a_trial_130_colour1_distractors9_r.png,r,3,1,9,0,,,,,0,55,55,55,,,,,,,,,,,,,,,,,,,,,,,,,,,,,,,,,,,,,,,,,,,258.4793788579991,None,2,0.38777649600524455,258.4793788579991,None,,,,,,,,,,,,,,,,None,None,None,,None,None,258.91506928001763,None,3,1,0.7723650789703242,258.91506928001763,None,259.67968657928867,None,None,None,None,,26,001,2023_Jan_23_1521,searchDisc5,2021.2.3,60.033356226390566,
images/exp2a_trial_243_colour1_distractors31_l.png,l,1,1,31,0,,,,,0,56,56,56,,,,,,,,,,,,,,,,,,,,,,,,,,,,,,,,,,,,,,,,,,,259.69823778799037,None,2,0.389520472032018,259.69823778799037,None,,,,,,,,,,,,,,,,None,None,None,,None,None,260.13179713400314,None,1,1,0.7501683349837549,260.13179713400314,None,260.87984613528823,None,None,None,None,,26,001,2023_Jan_23_1521,searchDisc5,2021.2.3,60.033356226390566,
images/exp1a_trial_180_colour2_distractors1_l.png,l,1,2,1,0,,,,,0,57,57,57,,,,,,,,,,,,,,,,,,,,,,,,,,,,,,,,,,,,,,,,,,,260.896016350016,None,2,0.3707909520016983,260.896016350016,None,,,,,,,,,,,,,,,,None,None,None,,None,None,261.31471286399756,None,1,1,0.6068259479943663,261.31471286399756,None,261.9133829302911,None,None,None,None,,26,001,2023_Jan_23_1521,searchDisc5,2021.2.3,60.033356226390566,
images/exp2c_trial_164_colour1_distractors31_r.png,r,3,1,31,0,,,,,0,58,58,58,,,,,,,,,,,,,,,,,,,,,,,,,,,,,,,,,,,,,,,,,,,261.9292693469906,None,2,0.32096071902196854,261.9292693469906,None,,,,,,,,,,,,,,,,None,None,None,,None,None,262.29654705902794,None,3,1,0.6022664890042506,262.29654705902794,None,262.89640479030203,None,None,None,None,,26,001,2023_Jan_23_1521,searchDisc5,2021.2.3,60.033356226390566,
images/exp2c_trial_293_colour2_distractors1_r.png,r,3,2,1,0,,,,,0,59,59,59,,,,,,,,,,,,,,,,,,,,,,,,,,,,,,,,,,,,,,,,,,,262.9130176799954,None,2,0.3046849449747242,262.9130176799954,None,,,,,,,,,,,,,,,,None,None,None,,None,None,263.2632848090143,None,3,1,0.5896505269920453,263.2632848090143,None,263.84643432732554,None,None,None,None,,26,001,2023_Jan_23_1521,searchDisc5,2021.2.3,60.033356226390566,
images/exp1a_trial_11_colour3_distractors4_r.png,r,3,3,4,0,,,,,0,60,60,60,,,,,,,,,,,,,,,,,,,,,,,,,,,,,,,,,,,,,,,,,,,263.862443199032,None,2,0.3547183310147375,263.862443199032,None,,,,,,,,,,,,,,,,None,None,None,,None,None,264.26256693998585,None,3,1,0.7888513670186512,264.26256693998585,None,265.046551484341,None,None,None,None,,26,001,2023_Jan_23_1521,searchDisc5,2021.2.3,60.033356226390566,
images/exp2c_trial_40_colour2_distractors19_r.png,r,3,2,19,0,,,,,0,61,61,61,,,,,,,,,,,,,,,,,,,,,,,,,,,,,,,,,,,,,,,,,,,265.06245396099985,None,2,0.3213403790141456,265.06245396099985,None,,,,,,,,,,,,,,,,None,None,None,,None,None,265.43001288501546,None,3,1,0.5344661250128411,265.43001288501546,None,265.96335165530326,None,None,None,None,,26,001,2023_Jan_23_1521,searchDisc5,2021.2.3,60.033356226390566,
images/exp1a_trial_238_colour3_distractors31_r.png,r,3,3,31,0,,,,,0,62,62,62,,,,,,,,,,,,,,,,,,,,,,,,,,,,,,,,,,,,,,,,,,,265.9796737640281,None,2,0.32085140998242423,265.9796737640281,None,,,,,,,,,,,,,,,,None,None,None,,None,None,266.34670116298366,None,3,1,0.5350920759956352,266.34670116298366,None,266.87995986828463,None,None,None,None,,26,001,2023_Jan_23_1521,searchDisc5,2021.2.3,60.033356226390566,
images/exp2a_trial_213_colour2_distractors4_l.png,l,1,2,4,0,,,,,0,63,63,63,,,,,,,,,,,,,,,,,,,,,,,,,,,,,,,,,,,,,,,,,,,266.8963792800205,None,2,0.33612373302457854,266.8963792800205,None,,,,,,,,,,,,,,,,None,None,None,,None,None,267.28005344001576,None,1,1,0.7563937759841792,267.28005344001576,None,268.03003078229375,None,None,None,None,,26,001,2023_Jan_23_1521,searchDisc5,2021.2.3,60.033356226390566,
images/exp2a_trial_134_colour2_distractors4_r.png,r,3,2,4,0,,,,,0,64,64,64,,,,,,,,,,,,,,,,,,,,,,,,,,,,,,,,,,,,,,,,,,,268.04608639201615,None,2,0.2696431539952755,268.04608639201615,None,,,,,,,,,,,,,,,,None,None,None,,None,None,268.3628938019974,None,3,1,0.6223673269851133,268.3628938019974,None,268.9801630393078,None,None,None,None,,26,001,2023_Jan_23_1521,searchDisc5,2021.2.3,60.033356226390566,
images/exp2c_trial_70_colour2_distractors4_r.png,r,3,2,4,0,,,,,0,65,65,65,,,,,,,,,,,,,,,,,,,,,,,,,,,,,,,,,,,,,,,,,,,268.9963874730165,None,2,0.30286159698152915,268.9963874730165,None,,,,,,,,,,,,,,,,None,None,None,,None,None,269.3459334230283,None,3,1,0.6232616329798475,269.3459334230283,None,269.9634244333312,None,None,None,None,,26,001,2023_Jan_23_1521,searchDisc5,2021.2.3,60.033356226390566,
images/exp2c_trial_38_colour2_distractors4_r.png,r,3,2,4,0,,,,,0,66,66,66,,,,,,,,,,,,,,,,,,,,,,,,,,,,,,,,,,,,,,,,,,,269.9797356760246,None,2,0.3045787049923092,269.9797356760246,None,,,,,,,,,,,,,,,,None,None,None,,None,None,270.3303729760228,None,3,1,0.5723261800012551,270.3303729760228,None,270.8966783473326,None,None,None,None,,26,001,2023_Jan_23_1521,searchDisc5,2021.2.3,60.033356226390566,
images/exp1a_trial_48_colour1_distractors4_l.png,l,1,1,4,0,,,,,0,67,67,67,,,,,,,,,,,,,,,,,,,,,,,,,,,,,,,,,,,,,,,,,,,270.91522230103146,None,2,0.3710364350117743,270.91522230103146,None,,,,,,,,,,,,,,,,None,None,None,,None,None,271.3321651450242,None,1,1,0.8379938990110531,271.3321651450242,None,272.1628626393096,None,None,None,None,,26,001,2023_Jan_23_1521,searchDisc5,2021.2.3,60.033356226390566,
images/exp2c_trial_155_colour3_distractors9_l.png,l,1,3,9,0,,,,,0,68,68,68,,,,,,,,,,,,,,,,,,,,,,,,,,,,,,,,,,,,,,,,,,,272.1800504550338,None,2,0.3051102409954183,272.1800504550338,None,,,,,,,,,,,,,,,,None,None,None,,None,None,272.53020515298704,None,1,1,0.8555632019997574,272.53020515298704,None,273.380109442299,None,None,None,None,,26,001,2023_Jan_23_1521,searchDisc5,2021.2.3,60.033356226390566,
images/exp2c_trial_254_colour0_distractors0_r.png,r,3,0,0,0,,,,,0,69,69,69,,,,,,,,,,,,,,,,,,,,,,,,,,,,,,,,,,,,,,,,,,,273.39645551901776,None,2,0.3038896750076674,273.39645551901776,None,,,,,,,,,,,,,,,,None,None,None,,None,None,273.74633742298465,None,3,1,0.6235594179597683,273.74633742298465,None,274.3634882323269,None,None,None,None,,26,001,2023_Jan_23_1521,searchDisc5,2021.2.3,60.033356226390566,
images/exp2c_trial_76_colour3_distractors9_r.png,r,3,3,9,0,,,,,0,70,70,70,,,,,,,,,,,,,,,,,,,,,,,,,,,,,,,,,,,,,,,,,,,274.3797991630272,None,2,0.30477996601257473,274.3797991630272,None,,,,,,,,,,,,,,,,None,None,None,,None,None,274.73008176498115,None,3,1,0.7885212569963187,274.73008176498115,None,275.5134788153402,None,None,None,None,,26,001,2023_Jan_23_1521,searchDisc5,2021.2.3,60.033356226390566,
images/exp2a_trial_270_colour3_distractors31_r.png,r,3,3,31,0,,,,,0,71,71,71,,,,,,,,,,,,,,,,,,,,,,,,,,,,,,,,,,,,,,,,,,,275.5295097740018,None,2,0.30462828400777653,275.5295097740018,None,,,,,,,,,,,,,,,,None,None,None,,None,None,275.8795515759848,None,3,1,0.5526097969850525,275.8795515759848,None,276.43034373830886,None,None,None,None,,26,001,2023_Jan_23_1521,searchDisc5,2021.2.3,60.033356226390566,
images/exp1a_trial_197_colour2_distractors1_r.png,r,3,2,1,0,,,,,0,72,72,72,,,,,,,,,,,,,,,,,,,,,,,,,,,,,,,,,,,,,,,,,,,276.44844048900995,None,2,0.3209502319805324,276.44844048900995,None,,,,,,,,,,,,,,,,None,None,None,,None,None,276.8150179060176,None,3,1,0.7732705590315163,276.8150179060176,None,277.5802361433336,None,None,None,None,,26,001,2023_Jan_23_1521,searchDisc5,2021.2.3,60.033356226390566,
images/exp2a_trial_116_colour2_distractors1_l.png,l,1,2,1,0,,,,,0,73,73,73,,,,,,,,,,,,,,,,,,,,,,,,,,,,,,,,,,,,,,,,,,,277.59615694201784,None,2,0.32109236903488636,277.59615694201784,None,,,,,,,,,,,,,,,,None,None,None,,None,None,277.96355833503185,None,1,1,0.6562316730269231,277.96355833503185,None,278.61354321633115,None,None,None,None,,26,001,2023_Jan_23_1521,searchDisc5,2021.2.3,60.033356226390566,
images/exp2c_trial_303_colour1_distractors1_l.png,l,1,1,1,0,,,,,0,74,74,74,,,,,,,,,,,,,,,,,,,,,,,,,,,,,,,,,,,,,,,,,,,278.62962006003363,None,2,0.27371129899984226,278.62962006003363,None,,,,,,,,,,,,,,,,None,None,None,,None,None,278.9465800410253,None,1,1,0.6033715819939971,278.9465800410253,None,279.54615916231995,None,None,None,None,,26,001,2023_Jan_23_1521,searchDisc5,2021.2.3,60.033356226390566,
images/exp2c_trial_85_colour2_distractors4_l.png,l,1,2,4,0,,,,,0,75,75,75,,,,,,,,,,,,,,,,,,,,,,,,,,,,,,,,,,,,,,,,,,,279.56544932798715,None,2,0.3222495090449229,279.56544932798715,None,,,,,,,,,,,,,,,,None,None,None,,None,None,279.9301958330325,None,1,1,0.6060521060135216,279.9301958330325,None,280.5302282152872,None,None,None,None,,26,001,2023_Jan_23_1521,searchDisc5,2021.2.3,60.033356226390566,
images/exp2b_trial_221_colour3_distractors31_l.png,l,1,3,31,0,,,,,0,76,76,76,,,,,,,,,,,,,,,,,,,,,,,,,,,,,,,,,,,,,,,,,,,280.54667893599253,None,2,0.2880169560085051,280.54667893599253,None,,,,,,,,,,,,,,,,None,None,None,,None,None,280.88054946501506,None,1,1,1.4537334920023568,280.88054946501506,None,282.3303616413206,None,None,None,None,,26,001,2023_Jan_23_1521,searchDisc5,2021.2.3,60.033356226390566,
images/exp1a_trial_132_colour1_distractors31_r.png,r,3,1,31,0,,,,,0,77,77,77,,,,,,,,,,,,,,,,,,,,,,,,,,,,,,,,,,,,,,,,,,,282.34661495499313,None,2,0.2564080950105563,282.34661495499313,None,,,,,,,,,,,,,,,,None,None,None,,None,None,282.6468537549954,None,3,1,1.3994947180035524,282.6468537549954,None,284.0471101253235,None,None,None,None,,26,001,2023_Jan_23_1521,searchDisc5,2021.2.3,60.033356226390566,
images/exp2c_trial_71_colour2_distractors9_r.png,r,3,2,9,0,,,,,0,78,78,78,,,,,,,,,,,,,,,,,,,,,,,,,,,,,,,,,,,,,,,,,,,284.06359383498784,None,2,0.2878243470331654,284.06359383498784,None,,,,,,,,,,,,,,,,None,None,None,,None,None,284.39673863502685,None,3,1,0.6702681149472483,284.39673863502685,None,285.06390955533715,None,None,None,None,,26,001,2023_Jan_23_1521,searchDisc5,2021.2.3,60.033356226390566,
images/exp1a_trial_44_colour3_distractors9_r.png,r,3,3,9,0,,,,,0,79,79,79,,,,,,,,,,,,,,,,,,,,,,,,,,,,,,,,,,,,,,,,,,,285.0801804760122,None,2,0.3221482750377618,285.0801804760122,None,,,,,,,,,,,,,,,,None,None,None,,None,None,285.44650934799574,None,3,1,0.6368446359992959,285.44650934799574,None,286.08019164229626,None,None,None,None,,26,001,2023_Jan_23_1521,searchDisc5,2021.2.3,60.033356226390566,
images/exp2b_trial_173_colour3_distractors19_r.png,r,3,3,19,0,,,,,0,80,80,80,,,,,,,,,,,,,,,,,,,,,,,,,,,,,,,,,,,,,,,,,,,286.0962520620087,None,2,0.30489406298147514,286.0962520620087,None,,,,,,,,,,,,,,,,None,None,None,,None,None,286.44716303702444,None,3,1,0.6213359460234642,286.44716303702444,None,287.0639526912884,None,None,None,None,,26,001,2023_Jan_23_1521,searchDisc5,2021.2.3,60.033356226390566,
images/exp1a_trial_65_colour1_distractors4_r.png,r,3,1,4,0,,,,,0,81,81,81,,,,,,,,,,,,,,,,,,,,,,,,,,,,,,,,,,,,,,,,,,,287.0823030450265,None,2,0.32160637399647385,287.0823030450265,None,,,,,,,,,,,,,,,,None,None,None,,None,None,287.4470672309981,None,3,1,0.5375223869923502,287.4470672309981,None,287.979961368331,None,None,None,None,,26,001,2023_Jan_23_1521,searchDisc5,2021.2.3,60.033356226390566,
images/exp2a_trial_159_colour0_distractors0_l.png,l,1,0,0,0,,,,,0,82,82,82,,,,,,,,,,,,,,,,,,,,,,,,,,,,,,,,,,,,,,,,,,,287.99689050298184,None,2,0.30509358301060274,287.99689050298184,None,,,,,,,,,,,,,,,,None,None,None,,None,None,288.3462658310309,None,1,1,1.0399974820320494,288.3462658310309,None,289.38048793528577,None,None,None,None,,26,001,2023_Jan_23_1521,searchDisc5,2021.2.3,60.033356226390566,
images/exp2a_trial_198_colour2_distractors4_r.png,r,3,2,4,0,,,,,0,83,83,83,,,,,,,,,,,,,,,,,,,,,,,,,,,,,,,,,,,,,,,,,,,289.3969538240344,None,2,0.22325006098253652,289.3969538240344,None,,,,,,,,,,,,,,,,None,None,None,,None,None,289.663801437011,None,3,1,0.6019096960080788,289.663801437011,None,290.2640015923127,None,None,None,None,,26,001,2023_Jan_23_1521,searchDisc5,2021.2.3,60.033356226390566,
images/exp2a_trial_315_colour3_distractors9_l.png,l,1,3,9,0,,,,,0,84,84,84,,,,,,,,,,,,,,,,,,,,,,,,,,,,,,,,,,,,,,,,,,,290.28033035999397,None,2,0.3211800790159032,290.28033035999397,None,,,,,,,,,,,,,,,,None,None,None,,None,None,290.6472471150337,None,1,1,0.871884717955254,290.6472471150337,None,291.51399372030863,None,None,None,None,,26,001,2023_Jan_23_1521,searchDisc5,2021.2.3,60.033356226390566,
images/exp2a_trial_38_colour2_distractors4_r.png,r,3,2,4,0,,,,,0,85,85,85,,,,,,,,,,,,,,,,,,,,,,,,,,,,,,,,,,,,,,,,,,,291.5306127149961,None,2,0.30416644597426057,291.5306127149961,None,,,,,,,,,,,,,,,,None,None,None,,None,None,291.8800163450069,None,3,1,0.8036468360223807,291.8800163450069,None,292.6805919243081,None,None,None,None,,26,001,2023_Jan_23_1521,searchDisc5,2021.2.3,60.033356226390566,
images/exp2a_trial_152_colour2_distractors31_l.png,l,1,2,31,0,,,,,0,86,86,86,,,,,,,,,,,,,,,,,,,,,,,,,,,,,,,,,,,,,,,,,,,292.6965324599878,None,2,0.33794017403852195,292.6965324599878,None,,,,,,,,,,,,,,,,None,None,None,,None,None,293.0807065470144,None,1,1,1.0464706649654545,293.0807065470144,None,294.13065629931515,None,None,None,None,,26,001,2023_Jan_23_1521,searchDisc5,2021.2.3,60.033356226390566,
images/exp2a_trial_128_colour1_distractors1_r.png,r,3,1,1,0,,,,,0,87,87,87,,,,,,,,,,,,,,,,,,,,,,,,,,,,,,,,,,,,,,,,,,,294.146964679996,None,2,0.3210621499456465,294.146964679996,None,,,,,,,,,,,,,,,,None,None,None,,None,None,294.5139471649891,None,3,1,0.8062574060168117,294.5139471649891,None,295.3142116283008,None,None,None,None,,26,001,2023_Jan_23_1521,searchDisc5,2021.2.3,60.033356226390566,
images/exp2b_trial_121_colour3_distractors1_l.png,l,1,3,1,0,,,,,0,88,88,88,,,,,,,,,,,,,,,,,,,,,,,,,,,,,,,,,,,,,,,,,,,295.33047301199986,None,2,0.33961670903954655,295.33047301199986,None,,,,,,,,,,,,,,,,None,None,None,,None,None,295.71368051099125,None,1,1,0.7219120200024918,295.71368051099125,None,296.43106518233543,None,None,None,None,,26,001,2023_Jan_23_1521,searchDisc5,2021.2.3,60.033356226390566,
images/exp2a_trial_107_colour3_distractors4_r.png,r,3,3,4,0,,,,,0,89,89,89,,,,,,,,,,,,,,,,,,,,,,,,,,,,,,,,,,,,,,,,,,,296.4473288030131,None,2,0.35415259504225105,296.4473288030131,None,,,,,,,,,,,,,,,,None,None,None,,None,None,296.8474065150367,None,3,1,0.705555817054119,296.8474065150367,None,297.5467398913053,None,None,None,None,,26,001,2023_Jan_23_1521,searchDisc5,2021.2.3,60.033356226390566,
images/exp2a_trial_194_colour1_distractors9_r.png,r,3,1,9,0,,,,,0,90,90,90,,,,,,,,,,,,,,,,,,,,,,,,,,,,,,,,,,,,,,,,,,,297.5638243590365,None,2,0.33857931796228513,297.5638243590365,None,,,,,,,,,,,,,,,,None,None,None,,None,None,297.9468812700361,None,3,1,0.6734285739948973,297.9468812700361,None,298.6142217253393,None,None,None,None,,26,001,2023_Jan_23_1521,searchDisc5,2021.2.3,60.033356226390566,
images/exp2c_trial_259_colour1_distractors19_r.png,r,3,1,19,0,,,,,0,91,91,91,,,,,,,,,,,,,,,,,,,,,,,,,,,,,,,,,,,,,,,,,,,298.6306550389854,None,2,0.32003652898129076,298.6306550389854,None,,,,,,,,,,,,,,,,None,None,None,,None,None,298.9977067569853,None,3,1,0.6033392320387065,298.9977067569853,None,299.5975812833232,None,None,None,None,,26,001,2023_Jan_23_1521,searchDisc5,2021.2.3,60.033356226390566,
images/exp1a_trial_36_colour1_distractors31_r.png,r,3,1,31,0,,,,,0,92,92,92,,,,,,,,,,,,,,,,,,,,,,,,,,,,,,,,,,,,,,,,,,,299.6140562220244,None,2,0.3200113159837201,299.6140562220244,None,,,,,,,,,,,,,,,,None,None,None,,None,None,299.98007097799564,None,3,1,2.817577538022306,299.98007097799564,None,302.79771337531855,None,None,None,None,,26,001,2023_Jan_23_1521,searchDisc5,2021.2.3,60.033356226390566,
images/exp1a_trial_55_colour2_distractors19_l.png,l,1,2,19,0,,,,,0,93,93,93,,,,,,,,,,,,,,,,,,,,,,,,,,,,,,,,,,,,,,,,,,,302.813770223991,None,2,0.28759287000866607,302.813770223991,None,,,,,,,,,,,,,,,,None,None,None,,None,None,303.1475620850106,None,1,1,0.6514381229644641,303.1475620850106,None,303.79759302131714,None,None,None,None,,26,001,2023_Jan_23_1521,searchDisc5,2021.2.3,60.033356226390566,
images/exp1a_trial_310_colour2_distractors9_l.png,l,1,2,9,0,,,,,0,94,94,94,,,,,,,,,,,,,,,,,,,,,,,,,,,,,,,,,,,,,,,,,,,303.8135716650286,None,2,0.2879131649970077,303.8135716650286,None,,,,,,,,,,,,,,,,None,None,None,,None,None,304.1473618129967,None,1,1,0.6376056419685483,304.1473618129967,None,304.78099904333357,None,None,None,None,,26,001,2023_Jan_23_1521,searchDisc5,2021.2.3,60.033356226390566,
images/exp2b_trial_70_colour2_distractors4_r.png,r,3,2,4,0,,,,,0,95,95,95,,,,,,,,,,,,,,,,,,,,,,,,,,,,,,,,,,,,,,,,,,,304.7968350300216,None,2,0.32122848799917847,304.7968350300216,None,,,,,,,,,,,,,,,,None,None,None,,None,None,305.1645053399843,None,3,1,0.5055572069832124,305.1645053399843,None,305.6634305113286,None,None,None,None,,26,001,2023_Jan_23_1521,searchDisc5,2021.2.3,60.033356226390566,
images/exp2a_trial_307_colour1_distractors31_l.png,l,1,1,31,0,,,,,0,96,96,96,,,,,,,,,,,,,,,,,,,,,,,,,,,,,,,,,,,,,,,,,,,305.6807844740106,None,2,0.32171514100627974,305.6807844740106,None,,,,,,,,,,,,,,,,None,None,None,,None,None,306.04775179503486,None,1,1,1.052799170021899,306.04775179503486,None,307.0976377203071,None,None,None,None,,26,001,2023_Jan_23_1521,searchDisc5,2021.2.3,60.033356226390566,
images/exp2c_trial_5_colour2_distractors1_r.png,r,3,2,1,0,,,,,0,97,97,97,,,,,,,,,,,,,,,,,,,,,,,,,,,,,,,,,,,,,,,,,,,307.11393957200926,None,2,0.32101578096626326,307.11393957200926,None,,,,,,,,,,,,,,,,None,None,None,,None,None,307.4809366270201,None,3,1,0.8398190939915366,307.4809366270201,None,308.3143645723059,None,None,None,None,,26,001,2023_Jan_23_1521,searchDisc5,2021.2.3,60.033356226390566,
images/exp2c_trial_198_colour2_distractors4_r.png,r,3,2,4,0,,,,,0,98,98,98,,,,,,,,,,,,,,,,,,,,,,,,,,,,,,,,,,,,,,,,,,,308.3307388740359,None,2,0.32133733300725,308.3307388740359,None,,,,,,,,,,,,,,,,None,None,None,,None,None,308.6977075370378,None,3,1,0.6726763590122573,308.6977075370378,None,309.36445396331254,None,None,None,None,,26,001,2023_Jan_23_1521,searchDisc5,2021.2.3,60.033356226390566,
images/exp2b_trial_165_colour2_distractors1_r.png,r,3,2,1,0,,,,,0,99,99,99,,,,,,,,,,,,,,,,,,,,,,,,,,,,,,,,,,,,,,,,,,,309.3803135700291,None,2,0.30658431799383834,309.3803135700291,None,,,,,,,,,,,,,,,,None,None,None,,None,None,309.73089687601896,None,3,1,0.705874526000116,309.73089687601896,None,310.43119018730357,None,None,None,None,,26,001,2023_Jan_23_1521,searchDisc5,2021.2.3,60.033356226390566,
images/exp1a_trial_143_colour1_distractors1_l.png,l,1,1,1,0,,,,,0,100,100,100,,,,,,,,,,,,,,,,,,,,,,,,,,,,,,,,,,,,,,,,,,,310.4470354320365,None,2,0.35479668504558504,310.4470354320365,None,,,,,,,,,,,,,,,,None,None,None,,None,None,310.84780601901,None,1,1,0.6705819620401599,310.84780601901,None,311.51402341733336,None,None,None,None,,26,001,2023_Jan_23_1521,searchDisc5,2021.2.3,60.033356226390566,
images/exp2b_trial_250_colour3_distractors4_l.png,l,1,3,4,0,,,,,0,101,101,101,,,,,,,,,,,,,,,,,,,,,,,,,,,,,,,,,,,,,,,,,,,311.53078870801255,None,2,0.30619117798050866,311.53078870801255,None,,,,,,,,,,,,,,,,None,None,None,,None,None,311.8809589720331,None,1,1,0.6707565740216523,311.8809589720331,None,312.5479008323338,None,None,None,None,,26,001,2023_Jan_23_1521,searchDisc5,2021.2.3,60.033356226390566,
images/exp2c_trial_213_colour2_distractors4_l.png,l,1,2,4,0,,,,,0,102,102,102,,,,,,,,,,,,,,,,,,,,,,,,,,,,,,,,,,,,,,,,,,,312.56416265503503,None,2,0.32094889297150075,312.56416265503503,None,,,,,,,,,,,,,,,,None,None,None,,None,None,312.9311198919895,None,1,1,1.1227952750050463,312.9311198919895,None,314.0478752663068,None,None,None,None,,26,001,2023_Jan_23_1521,searchDisc5,2021.2.3,60.033356226390566,
images/exp2b_trial_156_colour3_distractors19_l.png,l,1,3,19,0,,,,,0,103,103,103,,,,,,,,,,,,,,,,,,,,,,,,,,,,,,,,,,,,,,,,,,,314.06384088099,None,2,0.25466518400935456,314.06384088099,None,,,,,,,,,,,,,,,,None,None,None,,None,None,314.36454497103114,None,1,1,0.9899068980012089,314.36454497103114,None,315.348038897285,None,None,None,None,,26,001,2023_Jan_23_1521,searchDisc5,2021.2.3,60.033356226390566,
images/exp2a_trial_169_colour2_distractors31_r.png,r,3,2,31,0,,,,,0,104,104,104,,,,,,,,,,,,,,,,,,,,,,,,,,,,,,,,,,,,,,,,,,,315.36435984499985,None,2,0.255915843998082,315.36435984499985,None,,,,,,,,,,,,,,,,None,None,None,,None,None,315.6719366799807,None,3,1,0.7920778869884089,315.6719366799807,None,316.4639994283381,None,None,None,None,,26,001,2023_Jan_23_1521,searchDisc5,2021.2.3,60.033356226390566,
images/exp1a_trial_170_colour3_distractors1_r.png,r,3,3,1,0,,,,,0,105,105,105,,,,,,,,,,,,,,,,,,,,,,,,,,,,,,,,,,,,,,,,,,,316.481062537001,None,2,0.3379699799697846,316.481062537001,None,,,,,,,,,,,,,,,,None,None,None,,None,None,316.86438036401523,None,3,1,0.6557310689822771,316.86438036401523,None,317.5139084833383,None,None,None,None,,26,001,2023_Jan_23_1521,searchDisc5,2021.2.3,60.033356226390566,
images/exp2c_trial_166_colour2_distractors4_r.png,r,3,2,4,0,,,,,0,106,106,106,,,,,,,,,,,,,,,,,,,,,,,,,,,,,,,,,,,,,,,,,,,317.53116654098267,None,2,0.30517200101166964,317.53116654098267,None,,,,,,,,,,,,,,,,None,None,None,,None,None,317.88139664102346,None,3,1,0.6560034690191969,317.88139664102346,None,318.53125245032714,None,None,None,None,,26,001,2023_Jan_23_1521,searchDisc5,2021.2.3,60.033356226390566,
images/exp2a_trial_39_colour2_distractors9_r.png,r,3,2,9,0,,,,,0,107,107,107,,,,,,,,,,,,,,,,,,,,,,,,,,,,,,,,,,,,,,,,,,,318.5497283450095,None,2,0.35462823399575427,318.5497283450095,None,,,,,,,,,,,,,,,,None,None,None,,None,None,318.94995001802454,None,3,1,0.9019856669474393,318.94995001802454,None,319.84803585331537,None,None,None,None,,26,001,2023_Jan_23_1521,searchDisc5,2021.2.3,60.033356226390566,
images/exp2b_trial_243_colour1_distractors31_l.png,l,1,1,31,0,,,,,0,108,108,108,,,,,,,,,,,,,,,,,,,,,,,,,,,,,,,,,,,,,,,,,,,319.8640503080096,None,2,0.35454991098959,319.8640503080096,None,,,,,,,,,,,,,,,,None,None,None,,None,None,320.26479778799694,None,1,1,0.753617858979851,320.26479778799694,None,321.01502265130983,None,None,None,None,,26,001,2023_Jan_23_1521,searchDisc5,2021.2.3,60.033356226390566,
images/exp2c_trial_267_colour3_distractors4_r.png,r,3,3,4,0,,,,,0,109,109,109,,,,,,,,,,,,,,,,,,,,,,,,,,,,,,,,,,,,,,,,,,,321.033472110983,None,2,0.3041220589657314,321.033472110983,None,,,,,,,,,,,,,,,,None,None,None,,None,None,321.3807566110045,None,3,1,0.8392221339745447,321.3807566110045,None,322.2146630803065,None,None,None,None,,26,001,2023_Jan_23_1521,searchDisc5,2021.2.3,60.033356226390566,
images/exp1a_trial_71_colour2_distractors9_r.png,r,3,2,9,0,,,,,0,110,110,110,,,,,,,,,,,,,,,,,,,,,,,,,,,,,,,,,,,,,,,,,,,322.23121192498365,None,2,0.28794495901092887,322.23121192498365,None,,,,,,,,,,,,,,,,None,None,None,,None,None,322.5647747099865,None,3,1,0.7372796460404061,322.5647747099865,None,323.2982447793067,None,None,None,None,,26,001,2023_Jan_23_1521,searchDisc5,2021.2.3,60.033356226390566,
images/exp1a_trial_188_colour3_distractors19_l.png,l,1,3,19,0,,,,,0,111,111,111,,,,,,,,,,,,,,,,,,,,,,,,,,,,,,,,,,,,,,,,,,,323.31657690601423,None,2,0.354071700014174,323.31657690601423,None,,,,,,,,,,,,,,,,None,None,None,,None,None,323.7167361190077,None,1,1,0.7187150579993613,323.7167361190077,None,324.431284582318,None,None,None,None,,26,001,2023_Jan_23_1521,searchDisc5,2021.2.3,60.033356226390566,
images/exp2b_trial_49_colour1_distractors9_l.png,l,1,1,9,0,,,,,0,112,112,112,,,,,,,,,,,,,,,,,,,,,,,,,,,,,,,,,,,,,,,,,,,324.4472235470312,None,2,0.30665903503540903,324.4472235470312,None,,,,,,,,,,,,,,,,None,None,None,,None,None,324.79794289998244,None,1,1,0.7693314180360176,324.79794289998244,None,325.5648661162879,None,None,None,None,,26,001,2023_Jan_23_1521,searchDisc5,2021.2.3,60.033356226390566,
images/exp2b_trial_259_colour1_distractors19_r.png,r,3,1,19,0,,,,,0,113,113,113,,,,,,,,,,,,,,,,,,,,,,,,,,,,,,,,,,,,,,,,,,,325.5829815809848,None,2,0.3213574499823153,325.5829815809848,None,,,,,,,,,,,,,,,,None,None,None,,None,None,325.9481057850062,None,3,1,0.6560042990022339,325.9481057850062,None,326.5982812373142,None,None,None,None,,26,001,2023_Jan_23_1521,searchDisc5,2021.2.3,60.033356226390566,
images/exp2a_trial_82_colour1_distractors19_l.png,l,1,1,19,0,,,,,0,114,114,114,,,,,,,,,,,,,,,,,,,,,,,,,,,,,,,,,,,,,,,,,,,326.61514735099627,None,2,0.28762913902755827,326.61514735099627,None,,,,,,,,,,,,,,,,None,None,None,,None,None,326.94756665598834,None,1,1,1.002696659998037,326.94756665598834,None,327.94842836530296,None,None,None,None,,26,001,2023_Jan_23_1521,searchDisc5,2021.2.3,60.033356226390566,
images/exp1a_trial_66_colour1_distractors9_r.png,r,3,1,9,0,,,,,0,115,115,115,,,,,,,,,,,,,,,,,,,,,,,,,,,,,,,,,,,,,,,,,,,327.9646290820092,None,2,0.23983776796376333,327.9646290820092,None,,,,,,,,,,,,,,,,None,None,None,,None,None,328.24967803800246,None,3,1,0.9352350109838881,328.24967803800246,None,329.1818470123282,None,None,None,None,,26,001,2023_Jan_23_1521,searchDisc5,2021.2.3,60.033356226390566,
images/exp2b_trial_196_colour1_distractors31_r.png,r,3,1,31,0,,,,,0,116,116,116,,,,,,,,,,,,,,,,,,,,,,,,,,,,,,,,,,,,,,,,,,,329.1982006590115,None,2,0.2873485420132056,329.1982006590115,None,,,,,,,,,,,,,,,,None,None,None,,None,None,329.5332842870266,None,3,1,0.9031108270282857,329.5332842870266,None,330.43114065031403,None,None,None,None,,26,001,2023_Jan_23_1521,searchDisc5,2021.2.3,60.033356226390566,
images/exp2b_trial_54_colour2_distractors9_l.png,l,1,2,9,0,,,,,0,117,117,117,,,,,,,,,,,,,,,,,,,,,,,,,,,,,,,,,,,,,,,,,,,330.4482531460235,None,2,0.28790509898681194,330.4482531460235,None,,,,,,,,,,,,,,,,None,None,None,,None,None,330.781530414999,None,1,1,0.6720467080012895,330.781530414999,None,331.44833697729626,None,None,None,None,,26,001,2023_Jan_23_1521,searchDisc5,2021.2.3,60.033356226390566,
images/exp2a_trial_276_colour2_distractors1_l.png,l,1,2,1,0,,,,,0,118,118,118,,,,,,,,,,,,,,,,,,,,,,,,,,,,,,,,,,,,,,,,,,,331.4643009569845,None,2,0.2882128300261684,331.4643009569845,None,,,,,,,,,,,,,,,,None,None,None,,None,None,331.8003089830163,None,1,1,0.806064137024805,331.8003089830163,None,332.59841035733115,None,None,None,None,,26,001,2023_Jan_23_1521,searchDisc5,2021.2.3,60.033356226390566,
images/exp2c_trial_176_colour1_distractors4_l.png,l,1,1,4,0,,,,,0,119,119,119,,,,,,,,,,,,,,,,,,,,,,,,,,,,,,,,,,,,,,,,,,,332.614743617014,None,2,0.2878457800252363,332.614743617014,None,,,,,,,,,,,,,,,,None,None,None,,None,None,332.94785829703324,None,1,1,0.7888714199652895,332.94785829703324,None,333.73166799628524,None,None,None,None,,26,001,2023_Jan_23_1521,searchDisc5,2021.2.3,60.033356226390566,
images/exp2b_trial_120_colour2_distractors31_l.png,l,1,2,31,0,,,,,0,120,120,120,,,,,,,,,,,,,,,,,,,,,,,,,,,,,,,,,,,,,,,,,,,333.74774998798966,None,2,0.2879568689968437,333.74774998798966,None,,,,,,,,,,,,,,,,None,None,None,,None,None,334.08182020200184,None,1,1,0.7367370030260645,334.08182020200184,None,334.8149469313386,None,None,None,None,,26,001,2023_Jan_23_1521,searchDisc5,2021.2.3,60.033356226390566,
images/exp2a_trial_7_colour2_distractors9_r.png,r,3,2,9,0,,,,,0,121,121,121,,,,,,,,,,,,,,,,,,,,,,,,,,,,,,,,,,,,,,,,,,,334.833630077017,None,2,0.2878079010406509,334.833630077017,None,,,,,,,,,,,,,,,,None,None,None,,None,None,335.1647555340314,None,1,0,0.7682002190267667,335.1647555340314,None,335.9320413682901,None,None,None,None,,26,001,2023_Jan_23_1521,searchDisc5,2021.2.3,60.033356226390566,
images/exp1a_trial_162_colour1_distractors9_r.png,r,3,1,9,0,,,,,0,122,122,122,,,,,,,,,,,,,,,,,,,,,,,,,,,,,,,,,,,,,,,,,,,335.9479005879839,None,2,1.1565312479506247,335.9479005879839,None,,,,,,,,,,,,,,,,None,None,None,,None,None,337.14812289900146,None,3,1,0.6838143420172855,337.14812289900146,None,337.8318426063226,None,None,None,None,,26,001,2023_Jan_23_1521,searchDisc5,2021.2.3,60.033356226390566,
images/exp2b_trial_73_colour2_distractors31_r.png,r,3,2,31,0,,,,,0,123,123,123,,,,,,,,,,,,,,,,,,,,,,,,,,,,,,,,,,,,,,,,,,,337.8483670760179,None,2,0.3373673140304163,337.8483670760179,None,,,,,,,,,,,,,,,,None,None,None,,None,None,338.2319073100225,None,3,1,0.7852750000311062,338.2319073100225,None,339.0153691473126,None,None,None,None,,26,001,2023_Jan_23_1521,searchDisc5,2021.2.3,60.033356226390566,
images/exp2c_trial_148_colour2_distractors1_l.png,l,1,2,1,0,,,,,0,124,124,124,,,,,,,,,,,,,,,,,,,,,,,,,,,,,,,,,,,,,,,,,,,339.03148996201344,None,2,0.30424810003023595,339.03148996201344,None,,,,,,,,,,,,,,,,None,None,None,,None,None,339.3814515339909,None,1,1,0.6037171930074692,339.3814515339909,None,339.98195911631336,None,None,None,None,,26,001,2023_Jan_23_1521,searchDisc5,2021.2.3,60.033356226390566,
images/exp2c_trial_206_colour3_distractors31_r.png,r,3,3,31,0,,,,,0,125,125,125,,,,,,,,,,,,,,,,,,,,,,,,,,,,,,,,,,,,,,,,,,,339.99829742102884,None,2,0.33779802394565195,339.99829742102884,None,,,,,,,,,,,,,,,,None,None,None,,None,None,340.3817311950261,None,3,1,0.7347000900190324,340.3817311950261,None,341.1147106302844,None,None,None,None,,26,001,2023_Jan_23_1521,searchDisc5,2021.2.3,60.033356226390566,
images/exp2c_trial_0_colour1_distractors1_r.png,r,3,1,1,0,,,,,0,126,126,126,,,,,,,,,,,,,,,,,,,,,,,,,,,,,,,,,,,,,,,,,,,341.1320663940278,None,2,0.3184196089860052,341.1320663940278,None,,,,,,,,,,,,,,,,None,None,None,,None,None,341.4979101869976,None,3,1,0.7047426109784283,341.4979101869976,None,342.19812470728647,None,None,None,None,,26,001,2023_Jan_23_1521,searchDisc5,2021.2.3,60.033356226390566,
images/exp1a_trial_246_colour2_distractors9_l.png,l,1,2,9,0,,,,,0,127,127,127,,,,,,,,,,,,,,,,,,,,,,,,,,,,,,,,,,,,,,,,,,,342.21451895398786,None,2,0.28830688196467236,342.21451895398786,None,,,,,,,,,,,,,,,,None,None,None,,None,None,342.5486725390074,None,1,1,0.7537776560056955,342.5486725390074,None,343.2986626423255,None,None,None,None,,26,001,2023_Jan_23_1521,searchDisc5,2021.2.3,60.033356226390566,
images/exp1a_trial_301_colour3_distractors19_r.png,r,3,3,19,0,,,,,0,128,128,128,,,,,,,,,,,,,,,,,,,,,,,,,,,,,,,,,,,,,,,,,,,343.3170385680278,None,2,0.2878448029514402,343.3170385680278,None,,,,,,,,,,,,,,,,None,None,None,,None,None,343.6486042290344,None,3,1,0.9014132730080746,343.6486042290344,None,344.54867292430134,None,None,None,None,,26,001,2023_Jan_23_1521,searchDisc5,2021.2.3,60.033356226390566,
images/exp1a_trial_307_colour1_distractors31_l.png,l,1,1,31,0,,,,,0,129,129,129,,,,,,,,,,,,,,,,,,,,,,,,,,,,,,,,,,,,,,,,,,,344.5649118630099,None,2,0.2565147220157087,344.5649118630099,None,,,,,,,,,,,,,,,,None,None,None,,None,None,344.865372448985,None,1,1,0.8823102040332742,344.865372448985,None,345.74871183031354,None,None,None,None,,26,001,2023_Jan_23_1521,searchDisc5,2021.2.3,60.033356226390566,
images/exp1a_trial_58_colour3_distractors4_l.png,l,1,3,4,0,,,,,0,130,130,130,,,,,,,,,,,,,,,,,,,,,,,,,,,,,,,,,,,,,,,,,,,345.7648332089884,None,2,0.2566437480272725,345.7648332089884,None,,,,,,,,,,,,,,,,None,None,None,,None,None,346.06841979402816,None,1,1,0.8550521570141427,346.06841979402816,None,346.9166159863409,None,None,None,None,,26,001,2023_Jan_23_1521,searchDisc5,2021.2.3,60.033356226390566,
images/exp2c_trial_158_colour0_distractors0_r.png,r,3,0,0,0,,,,,0,131,131,131,,,,,,,,,,,,,,,,,,,,,,,,,,,,,,,,,,,,,,,,,,,346.93462184100645,None,2,0.30348508001770824,346.93462184100645,None,,,,,,,,,,,,,,,,None,None,None,,None,None,347.284659411991,None,3,1,0.7408128789975308,347.284659411991,None,348.0163775503344,None,None,None,None,,26,001,2023_Jan_23_1521,searchDisc5,2021.2.3,60.033356226390566,
images/exp1a_trial_72_colour2_distractors19_r.png,r,3,2,19,0,,,,,0,132,132,132,,,,,,,,,,,,,,,,,,,,,,,,,,,,,,,,,,,,,,,,,,,348.03403431002516,None,2,0.3037057290202938,348.03403431002516,None,,,,,,,,,,,,,,,,None,None,None,,None,None,348.38245818699943,None,3,1,0.754832927021198,348.38245818699943,None,349.1331513993384,None,None,None,None,,26,001,2023_Jan_23_1521,searchDisc5,2021.2.3,60.033356226390566,
images/exp2a_trial_207_colour1_distractors1_l.png,l,1,1,1,0,,,,,0,133,133,133,,,,,,,,,,,,,,,,,,,,,,,,,,,,,,,,,,,,,,,,,,,349.15079535299446,None,2,0.31899503601016477,349.15079535299446,None,,,,,,,,,,,,,,,,None,None,None,,None,None,349.5159893450327,None,1,1,0.7887865610537119,349.5159893450327,None,350.29885340734035,None,None,None,None,,26,001,2023_Jan_23_1521,searchDisc5,2021.2.3,60.033356226390566,
images/exp2a_trial_60_colour3_distractors19_l.png,l,1,3,19,0,,,,,0,134,134,134,,,,,,,,,,,,,,,,,,,,,,,,,,,,,,,,,,,,,,,,,,,350.31796678103274,None,2,0.3548473980044946,350.31796678103274,None,,,,,,,,,,,,,,,,None,None,None,,None,None,350.71837576199323,None,1,1,0.653265978966374,350.71837576199323,None,351.36560166628914,None,None,None,None,,26,001,2023_Jan_23_1521,searchDisc5,2021.2.3,60.033356226390566,
images/exp2a_trial_37_colour2_distractors1_r.png,r,3,2,1,0,,,,,0,135,135,135,,,,,,,,,,,,,,,,,,,,,,,,,,,,,,,,,,,,,,,,,,,351.38218903099187,None,2,0.337967703002505,351.38218903099187,None,,,,,,,,,,,,,,,,None,None,None,,None,None,351.7667255839915,None,3,1,0.7051641789730638,351.7667255839915,None,352.4649703453353,None,None,None,None,,26,001,2023_Jan_23_1521,searchDisc5,2021.2.3,60.033356226390566,
images/exp2a_trial_256_colour1_distractors1_r.png,r,3,1,1,0,,,,,0,136,136,136,,,,,,,,,,,,,,,,,,,,,,,,,,,,,,,,,,,,,,,,,,,352.48305272700964,None,2,0.33777159999590367,352.48305272700964,None,,,,,,,,,,,,,,,,None,None,None,,None,None,352.8659108810243,None,3,1,0.5235492860083468,352.8659108810243,None,353.3824004203372,None,None,None,None,,26,001,2023_Jan_23_1521,searchDisc5,2021.2.3,60.033356226390566,
images/exp2c_trial_312_colour2_distractors31_l.png,l,1,2,31,0,,,,,0,137,137,137,,,,,,,,,,,,,,,,,,,,,,,,,,,,,,,,,,,,,,,,,,,353.3985725659877,None,2,0.35457388701615855,353.3985725659877,None,,,,,,,,,,,,,,,,None,None,None,,None,None,353.7987517750007,None,1,1,0.602921680023428,353.7987517750007,None,354.39897386230876,None,None,None,None,,26,001,2023_Jan_23_1521,searchDisc5,2021.2.3,60.033356226390566,
images/exp2a_trial_147_colour1_distractors31_l.png,l,1,1,31,0,,,,,0,138,138,138,,,,,,,,,,,,,,,,,,,,,,,,,,,,,,,,,,,,,,,,,,,354.41549808101263,None,2,0.3044132009963505,354.41549808101263,None,,,,,,,,,,,,,,,,None,None,None,,None,None,354.76644333201693,None,1,1,0.5711978559847921,354.76644333201693,None,355.33227650130283,None,None,None,None,,26,001,2023_Jan_23_1521,searchDisc5,2021.2.3,60.033356226390566,
images/exp2c_trial_208_colour1_distractors4_l.png,l,1,1,4,0,,,,,0,139,139,139,,,,,,,,,,,,,,,,,,,,,,,,,,,,,,,,,,,,,,,,,,,355.3487507610116,None,2,0.3199201099923812,355.3487507610116,None,,,,,,,,,,,,,,,,None,None,None,,None,None,355.7165010460303,None,1,1,0.5569928189506754,355.7165010460303,None,356.2667816943314,None,None,None,None,,26,001,2023_Jan_23_1521,searchDisc5,2021.2.3,60.033356226390566,
images/exp2c_trial_171_colour3_distractors4_r.png,r,3,3,4,0,,,,,0,140,140,140,,,,,,,,,,,,,,,,,,,,,,,,,,,,,,,,,,,,,,,,,,,356.2826590820332,None,2,0.35564022400649264,356.2826590820332,None,,,,,,,,,,,,,,,,None,None,None,,None,None,356.68444031698164,None,3,1,0.6235164509853348,356.68444031698164,None,357.3022360163333,None,None,None,None,,26,001,2023_Jan_23_1521,searchDisc5,2021.2.3,60.033356226390566,
images/exp2a_trial_30_colour0_distractors0_r.png,r,3,0,0,0,,,,,0,141,141,141,,,,,,,,,,,,,,,,,,,,,,,,,,,,,,,,,,,,,,,,,,,357.3181732050143,None,2,0.3189945310004987,357.3181732050143,None,,,,,,,,,,,,,,,,None,None,None,,None,None,357.6851170519949,None,3,1,0.6561777730239555,357.6851170519949,None,358.33339894931413,None,None,None,None,,26,001,2023_Jan_23_1521,searchDisc5,2021.2.3,60.033356226390566,
images/exp2b_trial_286_colour0_distractors0_r.png,r,3,0,0,0,,,,,0,142,142,142,,,,,,,,,,,,,,,,,,,,,,,,,,,,,,,,,,,,,,,,,,,358.34872983099194,None,2,0.32061403105035424,358.34872983099194,None,,,,,,,,,,,,,,,,None,None,None,,None,None,358.71668330102693,None,3,1,0.7568907410022803,358.71668330102693,None,359.46674697731504,None,None,None,None,,26,001,2023_Jan_23_1521,searchDisc5,2021.2.3,60.033356226390566,
images/exp1a_trial_42_colour3_distractors1_r.png,r,3,3,1,0,,,,,0,143,143,143,,,,,,,,,,,,,,,,,,,,,,,,,,,,,,,,,,,,,,,,,,,359.48220745200524,None,2,0.2900513099739328,359.48220745200524,None,,,,,,,,,,,,,,,,None,None,None,,None,None,359.8160771569819,None,3,1,0.7035725549794734,359.8160771569819,None,360.51585434431325,None,None,None,None,,26,001,2023_Jan_23_1521,searchDisc5,2021.2.3,60.033356226390566,
images/exp2c_trial_108_colour3_distractors9_r.png,r,3,3,9,0,,,,,0,144,144,144,,,,,,,,,,,,,,,,,,,,,,,,,,,,,,,,,,,,,,,,,,,360.5322875470156,None,2,0.337780057976488,360.5322875470156,None,,,,,,,,,,,,,,,,None,None,None,,None,None,360.91584193799645,None,3,1,0.7229771739803255,360.91584193799645,None,361.63366964833693,None,None,None,None,,26,001,2023_Jan_23_1521,searchDisc5,2021.2.3,60.033356226390566,
images/exp2a_trial_215_colour2_distractors19_l.png,l,1,2,19,0,,,,,0,145,145,145,,,,,,,,,,,,,,,,,,,,,,,,,,,,,,,,,,,,,,,,,,,361.65137130900985,None,2,0.3209930559969507,361.65137130900985,None,,,,,,,,,,,,,,,,None,None,None,,None,None,362.01643780601444,None,1,1,0.7152147489832714,362.01643780601444,None,362.732573345321,None,None,None,None,,26,001,2023_Jan_23_1521,searchDisc5,2021.2.3,60.033356226390566,
images/exp2a_trial_282_colour3_distractors4_l.png,l,1,3,4,0,,,,,0,146,146,146,,,,,,,,,,,,,,,,,,,,,,,,,,,,,,,,,,,,,,,,,,,362.7493728210102,None,2,0.29076314298436046,362.7493728210102,None,,,,,,,,,,,,,,,,None,None,None,,None,None,363.08260036003776,None,1,1,0.6709338159998879,363.08260036003776,None,363.75026051730964,None,None,None,None,,26,001,2023_Jan_23_1521,searchDisc5,2021.2.3,60.033356226390566,
images/exp2c_trial_282_colour3_distractors4_l.png,l,1,3,4,0,,,,,0,147,147,147,,,,,,,,,,,,,,,,,,,,,,,,,,,,,,,,,,,,,,,,,,,363.7656781459809,None,2,0.32069603697163984,363.7656781459809,None,,,,,,,,,,,,,,,,None,None,None,,None,None,364.1326222370262,None,1,1,0.7389945450122468,364.1326222370262,None,364.8660369783349,None,None,None,None,,26,001,2023_Jan_23_1521,searchDisc5,2021.2.3,60.033356226390566,
images/exp2b_trial_105_colour2_distractors31_r.png,r,3,2,31,0,,,,,0,148,148,148,,,,,,,,,,,,,,,,,,,,,,,,,,,,,,,,,,,,,,,,,,,364.8824344429886,None,2,0.2887215430382639,364.8824344429886,None,,,,,,,,,,,,,,,,None,None,None,,None,None,365.21674255200196,None,3,1,0.6035562650067732,365.21674255200196,None,365.8171249402978,None,None,None,None,,26,001,2023_Jan_23_1521,searchDisc5,2021.2.3,60.033356226390566,
images/exp2c_trial_146_colour1_distractors19_l.png,l,1,1,19,0,,,,,0,149,149,149,,,,,,,,,,,,,,,,,,,,,,,,,,,,,,,,,,,,,,,,,,,365.8335388249834,None,2,0.2874277090304531,365.8335388249834,None,,,,,,,,,,,,,,,,None,None,None,,None,None,366.1662419650238,None,3,0,0.6693901070393622,366.1662419650238,None,366.8326839023095,None,None,None,None,,26,001,2023_Jan_23_1521,searchDisc5,2021.2.3,60.033356226390566,
images/exp2c_trial_10_colour3_distractors1_r.png,r,3,3,1,0,,,,,0,150,150,150,,,,,,,,,,,,,,,,,,,,,,,,,,,,,,,,,,,,,,,,,,,366.8492388940067,None,2,0.5046177739859559,366.8492388940067,None,,,,,,,,,,,,,,,,None,None,None,,None,None,367.4016569100204,None,3,1,0.7385647760238498,367.4016569100204,None,368.1321844012884,None,None,None,None,,26,001,2023_Jan_23_1521,searchDisc5,2021.2.3,60.033356226390566,
images/exp2a_trial_43_colour3_distractors4_r.png,r,3,3,4,0,,,,,0,151,151,151,,,,,,,,,,,,,,,,,,,,,,,,,,,,,,,,,,,,,,,,,,,368.1499225849984,None,2,0.33911632403032854,368.1499225849984,None,,,,,,,,,,,,,,,,None,None,None,,None,None,368.53329129400663,None,3,1,0.6043687900528312,368.53329129400663,None,369.13273594332276,None,None,None,None,,26,001,2023_Jan_23_1521,searchDisc5,2021.2.3,60.033356226390566,
images/exp2a_trial_106_colour3_distractors1_r.png,r,3,3,1,0,,,,,0,152,152,152,,,,,,,,,,,,,,,,,,,,,,,,,,,,,,,,,,,,,,,,,,,369.1497261840268,None,2,0.30464461498195305,369.1497261840268,None,,,,,,,,,,,,,,,,None,None,None,,None,None,369.49937484401744,None,3,1,0.5721905559767038,369.49937484401744,None,370.0661011852964,None,None,None,None,,26,001,2023_Jan_23_1521,searchDisc5,2021.2.3,60.033356226390566,
images/exp1a_trial_181_colour2_distractors4_l.png,l,1,2,4,0,,,,,0,153,153,153,,,,,,,,,,,,,,,,,,,,,,,,,,,,,,,,,,,,,,,,,,,370.08351322903764,None,2,0.3217818349949084,370.08351322903764,None,,,,,,,,,,,,,,,,None,None,None,,None,None,370.4487044410198,None,1,1,0.6374827900435776,370.4487044410198,None,371.08280424234107,None,None,None,None,,26,001,2023_Jan_23_1521,searchDisc5,2021.2.3,60.033356226390566,
images/exp2c_trial_250_colour3_distractors4_l.png,l,1,3,4,0,,,,,0,154,154,154,,,,,,,,,,,,,,,,,,,,,,,,,,,,,,,,,,,,,,,,,,,371.09922083298443,None,2,0.28871138498652726,371.09922083298443,None,,,,,,,,,,,,,,,,None,None,None,,None,None,371.4336301960284,None,1,1,0.7719824489904568,371.4336301960284,None,372.1995225892926,None,None,None,None,,26,001,2023_Jan_23_1521,searchDisc5,2021.2.3,60.033356226390566,
images/exp1a_trial_151_colour2_distractors19_l.png,l,1,2,19,0,,,,,0,155,155,155,,,,,,,,,,,,,,,,,,,,,,,,,,,,,,,,,,,,,,,,,,,372.21601186000044,None,2,0.27099976799217984,372.21601186000044,None,,,,,,,,,,,,,,,,None,None,None,,None,None,372.53325704601593,None,1,1,0.5352058330317959,372.53325704601593,None,373.06634390233665,None,None,None,None,,26,001,2023_Jan_23_1521,searchDisc5,2021.2.3,60.033356226390566,
images/exp1a_trial_96_colour1_distractors1_r.png,r,3,1,1,0,,,,,0,156,156,156,,,,,,,,,,,,,,,,,,,,,,,,,,,,,,,,,,,,,,,,,,,373.08322841703193,None,2,0.28884105797624215,373.08322841703193,None,,,,,,,,,,,,,,,,None,None,None,,None,None,373.4159073680057,None,1,0,0.48865608102642,373.4159073680057,None,373.89950587229686,None,None,None,None,,26,001,2023_Jan_23_1521,searchDisc5,2021.2.3,60.033356226390566,
images/exp2a_trial_140_colour3_distractors9_r.png,r,3,3,9,0,,,,,0,157,157,157,,,,,,,,,,,,,,,,,,,,,,,,,,,,,,,,,,,,,,,,,,,373.9179067760124,None,2,0.6381429469911382,373.9179067760124,None,,,,,,,,,,,,,,,,None,None,None,,None,None,374.5994835110032,None,3,1,0.8380234020296484,374.5994835110032,None,375.4329941293283,None,None,None,None,,26,001,2023_Jan_23_1521,searchDisc5,2021.2.3,60.033356226390566,
images/exp1a_trial_6_colour2_distractors4_r.png,r,3,2,4,0,,,,,0,158,158,158,,,,,,,,,,,,,,,,,,,,,,,,,,,,,,,,,,,,,,,,,,,375.4493509050226,None,2,0.24064953194465488,375.4493509050226,None,,,,,,,,,,,,,,,,None,None,None,,None,None,375.73341538902605,None,3,1,0.6225767079740763,375.73341538902605,None,376.3508772363013,None,None,None,None,,26,001,2023_Jan_23_1521,searchDisc5,2021.2.3,60.033356226390566,
images/exp2b_trial_46_colour3_distractors31_r.png,r,3,3,31,0,,,,,0,159,159,159,,,,,,,,,,,,,,,,,,,,,,,,,,,,,,,,,,,,,,,,,,,376.3673762489925,None,2,0.2353136109886691,376.3673762489925,None,,,,,,,,,,,,,,,,None,None,None,,None,None,376.64993638702435,None,3,1,0.6546749020344578,376.64993638702435,None,377.3016813952883,None,None,None,None,,26,001,2023_Jan_23_1521,searchDisc5,2021.2.3,60.033356226390566,
images/exp2a_trial_160_colour1_distractors1_r.png,r,3,1,1,0,,,,,0,160,160,160,,,,,,,,,,,,,,,,,,,,,,,,,,,,,,,,,,,,,,,,,,,377.3165691299946,None,2,0.32237599400104955,377.3165691299946,None,,,,,,,,,,,,,,,,None,None,None,,None,None,377.68613528402057,None,3,1,0.9531741389655508,377.68613528402057,None,378.6330549832957,None,None,None,None,,26,001,2023_Jan_23_1521,searchDisc5,2021.2.3,60.033356226390566,
images/exp2a_trial_248_colour2_distractors31_l.png,l,1,2,31,0,,,,,0,161,161,161,,,,,,,,,,,,,,,,,,,,,,,,,,,,,,,,,,,,,,,,,,,378.6494246569928,None,2,0.2887745770276524,378.6494246569928,None,,,,,,,,,,,,,,,,None,None,None,,None,None,378.9823277469841,None,1,1,1.362522847019136,378.9823277469841,None,380.3497103603033,None,None,None,None,,26,001,2023_Jan_23_1521,searchDisc5,2021.2.3,60.033356226390566,
images/exp2a_trial_109_colour3_distractors19_r.png,r,3,3,19,0,,,,,0,162,162,162,,,,,,,,,,,,,,,,,,,,,,,,,,,,,,,,,,,,,,,,,,,380.3661172899883,None,2,0.3379738620133139,380.3661172899883,None,,,,,,,,,,,,,,,,None,None,None,,None,None,380.7503927160287,None,3,1,1.0714851139928214,380.7503927160287,None,381.8175289363309,None,None,None,None,,26,001,2023_Jan_23_1521,searchDisc5,2021.2.3,60.033356226390566,
images/exp2c_trial_244_colour2_distractors1_l.png,l,1,2,1,0,,,,,0,163,163,163,,,,,,,,,,,,,,,,,,,,,,,,,,,,,,,,,,,,,,,,,,,381.83378384500975,None,2,0.31952015997376293,381.83378384500975,None,,,,,,,,,,,,,,,,None,None,None,,None,None,382.1997653639992,None,1,1,0.8402856499888003,382.1997653639992,None,383.0331010873371,None,None,None,None,,26,001,2023_Jan_23_1521,searchDisc5,2021.2.3,60.033356226390566,
images/exp1a_trial_219_colour3_distractors9_l.png,l,1,3,9,0,,,,,0,164,164,164,,,,,,,,,,,,,,,,,,,,,,,,,,,,,,,,,,,,,,,,,,,383.0494640810066,None,2,0.3230946090188809,383.0494640810066,None,,,,,,,,,,,,,,,,None,None,None,,None,None,383.4184897749801,None,1,1,1.0360682249884121,383.4184897749801,None,384.44978255628956,None,None,None,None,,26,001,2023_Jan_23_1521,searchDisc5,2021.2.3,60.033356226390566,
images/exp2b_trial_180_colour2_distractors1_l.png,l,1,2,1,0,,,,,0,165,165,165,,,,,,,,,,,,,,,,,,,,,,,,,,,,,,,,,,,,,,,,,,,384.46623166900827,None,2,0.30609572102548555,384.46623166900827,None,,,,,,,,,,,,,,,,None,None,None,,None,None,384.81687953701476,None,1,1,0.6381548360222951,384.81687953701476,None,385.4499613263353,None,None,None,None,,26,001,2023_Jan_23_1521,searchDisc5,2021.2.3,60.033356226390566,
images/exp2b_trial_147_colour1_distractors31_l.png,l,1,1,31,0,,,,,0,166,166,166,,,,,,,,,,,,,,,,,,,,,,,,,,,,,,,,,,,,,,,,,,,385.4670685050078,None,2,0.34001064201584086,385.4670685050078,None,,,,,,,,,,,,,,,,None,None,None,,None,None,385.85099327599164,None,1,1,0.7518110949895345,385.85099327599164,None,386.60101852532824,None,None,None,None,,26,001,2023_Jan_23_1521,searchDisc5,2021.2.3,60.033356226390566,
images/exp2c_trial_194_colour1_distractors9_r.png,r,3,1,9,0,,,,,0,167,167,167,,,,,,,,,,,,,,,,,,,,,,,,,,,,,,,,,,,,,,,,,,,386.6183623740217,None,2,0.33624654699815437,386.6183623740217,None,,,,,,,,,,,,,,,,None,None,None,,None,None,387.00299942702986,None,3,1,0.6551718259579502,387.00299942702986,None,387.6492138722853,None,None,None,None,,26,001,2023_Jan_23_1521,searchDisc5,2021.2.3,60.033356226390566,
images/exp2b_trial_278_colour2_distractors9_l.png,l,1,2,9,0,,,,,0,168,168,168,,,,,,,,,,,,,,,,,,,,,,,,,,,,,,,,,,,,,,,,,,,387.66634111799067,None,2,0.37275630404474214,387.66634111799067,None,,,,,,,,,,,,,,,,None,None,None,,None,None,388.08504897303646,None,1,1,0.6874851430184208,388.08504897303646,None,388.7666290872905,None,None,None,None,,26,001,2023_Jan_23_1521,searchDisc5,2021.2.3,60.033356226390566,
images/exp1a_trial_154_colour3_distractors4_l.png,l,1,3,4,0,,,,,0,169,169,169,,,,,,,,,,,,,,,,,,,,,,,,,,,,,,,,,,,,,,,,,,,388.7823249080102,None,2,0.3201483989832923,388.7823249080102,None,,,,,,,,,,,,,,,,None,None,None,,None,None,389.15266998298466,None,1,1,0.723021813959349,389.15266998298466,None,389.86660751830203,None,None,None,None,,26,001,2023_Jan_23_1521,searchDisc5,2021.2.3,60.033356226390566,
images/exp2a_trial_191_colour0_distractors0_l.png,l,1,0,0,0,,,,,0,170,170,170,,,,,,,,,,,,,,,,,,,,,,,,,,,,,,,,,,,,,,,,,,,389.883528328035,None,2,0.33736989001045004,389.883528328035,None,,,,,,,,,,,,,,,,None,None,None,,None,None,390.2668166999938,None,1,1,0.5900017319945619,390.2668166999938,None,390.84992813931893,None,None,None,None,,26,001,2023_Jan_23_1521,searchDisc5,2021.2.3,60.033356226390566,
images/exp2a_trial_229_colour2_distractors1_r.png,r,3,2,1,0,,,,,0,171,171,171,,,,,,,,,,,,,,,,,,,,,,,,,,,,,,,,,,,,,,,,,,,390.8685149840312,None,2,0.3046225979924202,390.8685149840312,None,,,,,,,,,,,,,,,,None,None,None,,None,None,391.21669745701365,None,3,1,0.5228494020411745,391.21669745701365,None,391.73343967432737,None,None,None,None,,26,001,2023_Jan_23_1521,searchDisc5,2021.2.3,60.033356226390566,
images/exp2a_trial_18_colour1_distractors19_l.png,l,1,1,19,0,,,,,0,172,172,172,,,,,,,,,,,,,,,,,,,,,,,,,,,,,,,,,,,,,,,,,,,391.7506028279895,None,2,0.2898537829751149,391.7506028279895,None,,,,,,,,,,,,,,,,None,None,None,,None,None,392.0833356970106,None,1,1,0.6015146659919992,392.0833356970106,None,392.68335815631434,None,None,None,None,,26,001,2023_Jan_23_1521,searchDisc5,2021.2.3,60.033356226390566,
images/exp2a_trial_254_colour0_distractors0_r.png,r,3,0,0,0,,,,,0,173,173,173,,,,,,,,,,,,,,,,,,,,,,,,,,,,,,,,,,,,,,,,,,,392.70040187303675,None,2,0.2888154950342141,392.70040187303675,None,,,,,,,,,,,,,,,,None,None,None,,None,None,393.0343680420192,None,3,1,0.6395689819473773,393.0343680420192,None,393.66721304333186,None,None,None,None,,26,001,2023_Jan_23_1521,searchDisc5,2021.2.3,60.033356226390566,
images/exp2c_trial_163_colour1_distractors19_r.png,r,3,1,19,0,,,,,0,174,174,174,,,,,,,,,,,,,,,,,,,,,,,,,,,,,,,,,,,,,,,,,,,393.68403871398186,None,2,0.2878608739702031,393.68403871398186,None,,,,,,,,,,,,,,,,None,None,None,,None,None,394.01635138399433,None,3,1,0.6703822870040312,394.01635138399433,None,394.6833119752875,None,None,None,None,,26,001,2023_Jan_23_1521,searchDisc5,2021.2.3,60.033356226390566,
images/exp2c_trial_64_colour1_distractors1_r.png,r,3,1,1,0,,,,,0,175,175,175,,,,,,,,,,,,,,,,,,,,,,,,,,,,,,,,,,,,,,,,,,,394.7002010900178,None,2,0.33807214797707275,394.7002010900178,None,,,,,,,,,,,,,,,,None,None,None,,None,None,395.08645062102005,None,3,1,0.5737087330198847,395.08645062102005,None,395.6510935243161,None,None,None,None,,26,001,2023_Jan_23_1521,searchDisc5,2021.2.3,60.033356226390566,
images/exp2a_trial_31_colour0_distractors0_l.png,l,1,0,0,0,,,,,0,176,176,176,,,,,,,,,,,,,,,,,,,,,,,,,,,,,,,,,,,,,,,,,,,395.6671563530108,None,2,0.28696172998752445,395.6671563530108,None,,,,,,,,,,,,,,,,None,None,None,,None,None,396.0001054430031,None,1,1,0.8757731789955869,396.0001054430031,None,396.86692020828485,None,None,None,None,,26,001,2023_Jan_23_1521,searchDisc5,2021.2.3,60.033356226390566,
images/exp2b_trial_208_colour1_distractors4_l.png,l,1,1,4,0,,,,,0,177,177,177,,,,,,,,,,,,,,,,,,,,,,,,,,,,,,,,,,,,,,,,,,,396.88431723299436,None,2,0.2040745770209469,396.88431723299436,None,,,,,,,,,,,,,,,,None,None,None,,None,None,397.13591751799686,None,1,1,0.8553846380091272,397.13591751799686,None,397.98552732933894,None,None,None,None,,26,001,2023_Jan_23_1521,searchDisc5,2021.2.3,60.033356226390566,
images/exp1a_trial_309_colour2_distractors4_l.png,l,1,2,4,0,,,,,0,178,178,178,,,,,,,,,,,,,,,,,,,,,,,,,,,,,,,,,,,,,,,,,,,397.999968788994,None,2,0.23589129897300154,397.999968788994,None,,,,,,,,,,,,,,,,None,None,None,,None,None,398.28374753700336,None,1,1,0.6569122409564443,398.28374753700336,None,398.9345421113132,None,None,None,None,,26,001,2023_Jan_23_1521,searchDisc5,2021.2.3,60.033356226390566,
images/exp2a_trial_96_colour1_distractors1_r.png,r,3,1,1,0,,,,,0,179,179,179,,,,,,,,,,,,,,,,,,,,,,,,,,,,,,,,,,,,,,,,,,,398.9491072790115,None,2,0.23854665702674538,398.9491072790115,None,,,,,,,,,,,,,,,,None,None,None,,None,None,399.2335049720132,None,3,1,0.7559500209754333,399.2335049720132,None,399.9835527212883,None,None,None,None,,26,001,2023_Jan_23_1521,searchDisc5,2021.2.3,60.033356226390566,
images/exp1a_trial_251_colour3_distractors9_l.png,l,1,3,9,0,,,,,0,180,180,180,,,,,,,,,,,,,,,,,,,,,,,,,,,,,,,,,,,,,,,,,,,400.0000631060102,None,2,0.27001445199130103,400.0000631060102,None,,,,,,,,,,,,,,,,None,None,None,,None,None,400.3169372440316,None,1,1,0.7541005740058608,400.3169372440316,None,401.06637003129,None,None,None,None,,26,001,2023_Jan_23_1521,searchDisc5,2021.2.3,60.033356226390566,
images/exp2b_trial_6_colour2_distractors4_r.png,r,3,2,4,0,,,,,0,181,181,181,,,,,,,,,,,,,,,,,,,,,,,,,,,,,,,,,,,,,,,,,,,401.08415309502743,None,2,0.3051375239738263,401.08415309502743,None,,,,,,,,,,,,,,,,None,None,None,,None,None,401.4339684800361,None,3,1,0.5886650150059722,401.4339684800361,None,402.0166095273045,None,None,None,None,,26,001,2023_Jan_23_1521,searchDisc5,2021.2.3,60.033356226390566,
images/exp2b_trial_199_colour2_distractors9_r.png,r,3,2,9,0,,,,,0,182,182,182,,,,,,,,,,,,,,,,,,,,,,,,,,,,,,,,,,,,,,,,,,,402.0338362369803,None,2,0.4077043639845215,402.0338362369803,None,,,,,,,,,,,,,,,,None,None,None,,None,None,402.4864176820265,None,3,1,0.6033552320441231,402.4864176820265,None,403.0847638152947,None,None,None,None,,26,001,2023_Jan_23_1521,searchDisc5,2021.2.3,60.033356226390566,
images/exp2a_trial_26_colour3_distractors4_l.png,l,1,3,4,0,,,,,0,183,183,183,,,,,,,,,,,,,,,,,,,,,,,,,,,,,,,,,,,,,,,,,,,403.1001084080199,None,2,0.3369618589640595,403.1001084080199,None,,,,,,,,,,,,,,,,None,None,None,,None,None,403.4858285500086,None,1,1,0.8056906250421889,403.4858285500086,None,404.2836925772892,None,None,None,None,,26,001,2023_Jan_23_1521,searchDisc5,2021.2.3,60.033356226390566,
images/exp2c_trial_99_colour1_distractors19_r.png,r,3,1,19,0,,,,,0,184,184,184,,,,,,,,,,,,,,,,,,,,,,,,,,,,,,,,,,,,,,,,,,,404.3008479080163,None,2,0.30779411300318316,404.3008479080163,None,,,,,,,,,,,,,,,,None,None,None,,None,None,404.6530613200157,None,3,1,0.8359166449517943,404.6530613200157,None,405.4857869193249,None,None,None,None,,26,001,2023_Jan_23_1521,searchDisc5,2021.2.3,60.033356226390566,
images/exp2a_trial_71_colour2_distractors9_r.png,r,3,2,9,0,,,,,0,185,185,185,,,,,,,,,,,,,,,,,,,,,,,,,,,,,,,,,,,,,,,,,,,405.50095319602406,None,2,0.3698303019627929,405.50095319602406,None,,,,,,,,,,,,,,,,None,None,None,,None,None,405.9179984109942,None,3,1,0.8185391509905457,405.9179984109942,None,406.7344409023237,None,None,None,None,,26,001,2023_Jan_23_1521,searchDisc5,2021.2.3,60.033356226390566,
images/exp1a_trial_50_colour1_distractors19_l.png,l,1,1,19,0,,,,,0,186,186,186,,,,,,,,,,,,,,,,,,,,,,,,,,,,,,,,,,,,,,,,,,,406.7505248450325,None,2,0.3369892400223762,406.7505248450325,None,,,,,,,,,,,,,,,,None,None,None,,None,None,407.13454589102184,None,1,1,0.8530672579654492,407.13454589102184,None,407.9843618953193,None,None,None,None,,26,001,2023_Jan_23_1521,searchDisc5,2021.2.3,60.033356226390566,
images/exp2b_trial_20_colour2_distractors1_l.png,l,1,2,1,0,,,,,0,187,187,187,,,,,,,,,,,,,,,,,,,,,,,,,,,,,,,,,,,,,,,,,,,408.0009612700087,None,2,0.3876475049764849,408.0009612700087,None,,,,,,,,,,,,,,,,None,None,None,,None,None,408.4366080620093,None,3,0,0.6250813090009615,408.4366080620093,None,409.05055594632285,None,None,None,None,,26,001,2023_Jan_23_1521,searchDisc5,2021.2.3,60.033356226390566,
images/exp2a_trial_35_colour1_distractors19_r.png,r,3,1,19,0,,,,,0,188,188,188,,,,,,,,,,,,,,,,,,,,,,,,,,,,,,,,,,,,,,,,,,,409.06725078902673,None,2,0.6381658859900199,409.06725078902673,None,,,,,,,,,,,,,,,,None,None,None,,None,None,409.7504659940023,None,3,1,0.7039092519553378,409.7504659940023,None,410.451643250318,None,None,None,None,,26,001,2023_Jan_23_1521,searchDisc5,2021.2.3,60.033356226390566,
images/exp2c_trial_189_colour3_distractors31_l.png,l,1,3,31,0,,,,,0,189,189,189,,,,,,,,,,,,,,,,,,,,,,,,,,,,,,,,,,,,,,,,,,,410.46692858001916,None,2,0.26886451797327027,410.46692858001916,None,,,,,,,,,,,,,,,,None,None,None,,None,None,410.78492528398056,None,1,1,1.3039203909575008,410.78492528398056,None,412.0840248243359,None,None,None,None,,26,001,2023_Jan_23_1521,searchDisc5,2021.2.3,60.033356226390566,
images/exp1a_trial_70_colour2_distractors4_r.png,r,3,2,4,0,,,,,0,190,190,190,,,,,,,,,,,,,,,,,,,,,,,,,,,,,,,,,,,,,,,,,,,412.103291056992,None,2,0.18899542198050767,412.103291056992,None,,,,,,,,,,,,,,,,None,None,None,,None,None,412.3348385160207,None,3,1,0.5707547089550644,412.3348385160207,None,412.9006180603348,None,None,None,None,,26,001,2023_Jan_23_1521,searchDisc5,2021.2.3,60.033356226390566,
images/exp2b_trial_101_colour2_distractors1_r.png,r,3,2,1,0,,,,,0,191,191,191,,,,,,,,,,,,,,,,,,,,,,,,,,,,,,,,,,,,,,,,,,,412.91696189402137,None,2,0.32096791797084734,412.91696189402137,None,,,,,,,,,,,,,,,,None,None,None,,None,None,413.2848688689992,None,3,1,1.1735600600368343,413.2848688689992,None,414.45060891432803,None,None,None,None,,26,001,2023_Jan_23_1521,searchDisc5,2021.2.3,60.033356226390566,
images/exp2a_trial_203_colour3_distractors4_r.png,r,3,3,4,0,,,,,0,192,192,192,,,,,,,,,,,,,,,,,,,,,,,,,,,,,,,,,,,,,,,,,,,414.4676223290153,None,2,0.28888527397066355,414.4676223290153,None,,,,,,,,,,,,,,,,None,None,None,,None,None,414.80154975503683,None,3,1,1.005947885045316,414.80154975503683,None,415.8006793763081,None,None,None,None,,26,001,2023_Jan_23_1521,searchDisc5,2021.2.3,60.033356226390566,
images/exp2a_trial_211_colour1_distractors31_l.png,l,1,1,31,0,,,,,0,193,193,193,,,,,,,,,,,,,,,,,,,,,,,,,,,,,,,,,,,,,,,,,,,415.81718816200737,None,2,0.35464767197845504,415.81718816200737,None,,,,,,,,,,,,,,,,None,None,None,,None,None,416.2172547529917,None,1,1,0.9363470270182006,416.2172547529917,None,417.1509266753157,None,None,None,None,,26,001,2023_Jan_23_1521,searchDisc5,2021.2.3,60.033356226390566,
images/exp2a_trial_15_colour1_distractors1_l.png,l,1,1,1,0,,,,,0,194,194,194,,,,,,,,,,,,,,,,,,,,,,,,,,,,,,,,,,,,,,,,,,,417.16664324799785,None,2,0.23747388395713642,417.16664324799785,None,,,,,,,,,,,,,,,,None,None,None,,None,None,417.45130269398214,None,1,1,0.5233837260166183,417.45130269398214,None,417.9674981393211,None,None,None,None,,26,001,2023_Jan_23_1521,searchDisc5,2021.2.3,60.033356226390566,
images/exp2c_trial_197_colour2_distractors1_r.png,r,3,2,1,0,,,,,0,195,195,195,,,,,,,,,,,,,,,,,,,,,,,,,,,,,,,,,,,,,,,,,,,417.9866679410334,None,2,0.303717078990303,417.9866679410334,None,,,,,,,,,,,,,,,,None,None,None,,None,None,418.33504819200607,None,3,1,0.822971430956386,418.33504819200607,None,419.15002799728535,None,None,None,None,,26,001,2023_Jan_23_1521,searchDisc5,2021.2.3,60.033356226390566,
images/exp2b_trial_66_colour1_distractors9_r.png,r,3,1,9,0,,,,,0,196,196,196,,,,,,,,,,,,,,,,,,,,,,,,,,,,,,,,,,,,,,,,,,,419.16729353001574,None,2,0.5751474949647672,419.16729353001574,None,,,,,,,,,,,,,,,,None,None,None,,None,None,419.7869641800062,None,3,1,1.169131656002719,419.7869641800062,None,420.95101939230807,None,None,None,None,,26,001,2023_Jan_23_1521,searchDisc5,2021.2.3,60.033356226390566,
images/exp2c_trial_204_colour3_distractors9_r.png,r,3,3,9,0,,,,,0,197,197,197,,,,,,,,,,,,,,,,,,,,,,,,,,,,,,,,,,,,,,,,,,,420.9679176250356,None,2,0.28794154402567074,420.9679176250356,None,,,,,,,,,,,,,,,,None,None,None,,None,None,421.3020297160256,None,3,1,0.7053653619950637,421.3020297160256,None,422.00132924832286,None,None,None,None,,26,001,2023_Jan_23_1521,searchDisc5,2021.2.3,60.033356226390566,
images/exp1a_trial_60_colour3_distractors19_l.png,l,1,3,19,0,,,,,0,198,198,198,,,,,,,,,,,,,,,,,,,,,,,,,,,,,,,,,,,,,,,,,,,422.0182066420093,None,2,0.2716157709946856,422.0182066420093,None,,,,,,,,,,,,,,,,None,None,None,,None,None,422.3348441349808,None,1,1,0.8011276969918981,422.3348441349808,None,423.13425318828666,None,None,None,None,,26,001,2023_Jan_23_1521,searchDisc5,2021.2.3,60.033356226390566,
images/exp2a_trial_0_colour1_distractors1_r.png,r,3,1,1,0,,,,,0,199,199,199,,,,,,,,,,,,,,,,,,,,,,,,,,,,,,,,,,,,,,,,,,,423.15136516001076,None,2,0.2888722520438023,423.15136516001076,None,,,,,,,,,,,,,,,,None,None,None,,None,None,423.48448015301256,None,3,1,0.7054903180105612,423.48448015301256,None,424.18447959832264,None,None,None,None,,26,001,2023_Jan_23_1521,searchDisc5,2021.2.3,60.033356226390566,
images/exp2c_trial_95_colour0_distractors0_l.png,l,1,0,0,0,,,,,0,200,200,200,,,,,,,,,,,,,,,,,,,,,,,,,,,,,,,,,,,,,,,,,,,424.20147186203394,None,2,0.2711776070063934,424.20147186203394,None,,,,,,,,,,,,,,,,None,None,None,,None,None,424.51772941899253,None,1,1,0.8083655889495276,424.51772941899253,None,425.3186199953372,None,None,None,None,,26,001,2023_Jan_23_1521,searchDisc5,2021.2.3,60.033356226390566,
images/exp2c_trial_106_colour3_distractors1_r.png,r,3,3,1,0,,,,,0,201,201,201,,,,,,,,,,,,,,,,,,,,,,,,,,,,,,,,,,,,,,,,,,,425.334550545027,None,2,0.31910852500004694,425.334550545027,None,,,,,,,,,,,,,,,,None,None,None,,None,None,425.70095882198075,None,3,1,0.8233199950191192,425.70095882198075,None,426.51765328531036,None,None,None,None,,26,001,2023_Jan_23_1521,searchDisc5,2021.2.3,60.033356226390566,
images/exp2c_trial_154_colour3_distractors4_l.png,l,1,3,4,0,,,,,0,202,202,202,,,,,,,,,,,,,,,,,,,,,,,,,,,,,,,,,,,,,,,,,,,426.53571147902403,None,2,0.2706254029762931,426.53571147902403,None,,,,,,,,,,,,,,,,None,None,None,,None,None,426.8510189850349,None,1,1,0.8734520440339111,426.8510189850349,None,427.7179098283115,None,None,None,None,,26,001,2023_Jan_23_1521,searchDisc5,2021.2.3,60.033356226390566,
images/exp1a_trial_128_colour1_distractors1_r.png,r,3,1,1,0,,,,,0,203,203,203,,,,,,,,,,,,,,,,,,,,,,,,,,,,,,,,,,,,,,,,,,,427.73598748398945,None,2,0.1732690379722044,427.73598748398945,None,,,,,,,,,,,,,,,,None,None,None,,None,None,427.953193791036,None,3,1,0.5547053609625436,427.953193791036,None,428.5020807673165,None,None,None,None,,26,001,2023_Jan_23_1521,searchDisc5,2021.2.3,60.033356226390566,
images/exp2a_trial_90_colour3_distractors4_l.png,l,1,3,4,0,,,,,0,204,204,204,,,,,,,,,,,,,,,,,,,,,,,,,,,,,,,,,,,,,,,,,,,428.5185732439859,None,2,0.28748829901451245,428.5185732439859,None,,,,,,,,,,,,,,,,None,None,None,,None,None,428.85122297203634,None,1,1,0.804867758997716,428.85122297203634,None,429.6511870863207,None,None,None,None,,26,001,2023_Jan_23_1521,searchDisc5,2021.2.3,60.033356226390566,
images/exp1a_trial_269_colour3_distractors19_r.png,r,3,3,19,0,,,,,0,205,205,205,,,,,,,,,,,,,,,,,,,,,,,,,,,,,,,,,,,,,,,,,,,429.67030575999524,None,2,0.2210998450173065,429.67030575999524,None,,,,,,,,,,,,,,,,None,None,None,,None,None,429.935460246983,None,3,1,0.5187377639813349,429.935460246983,None,430.4520907523285,None,None,None,None,,26,001,2023_Jan_23_1521,searchDisc5,2021.2.3,60.033356226390566,
images/exp2b_trial_27_colour3_distractors9_l.png,l,1,3,9,0,,,,,0,206,206,206,,,,,,,,,,,,,,,,,,,,,,,,,,,,,,,,,,,,,,,,,,,430.469584416016,None,2,0.25460479501634836,430.469584416016,None,,,,,,,,,,,,,,,,None,None,None,,None,None,430.76868136500707,None,1,1,0.7370954809593968,430.76868136500707,None,431.50074368530767,None,None,None,None,,26,001,2023_Jan_23_1521,searchDisc5,2021.2.3,60.033356226390566,
images/exp1a_trial_312_colour2_distractors31_l.png,l,1,2,31,0,,,,,0,207,207,207,,,,,,,,,,,,,,,,,,,,,,,,,,,,,,,,,,,,,,,,,,,431.5176156749949,None,2,0.27170077397022396,431.5176156749949,None,,,,,,,,,,,,,,,,None,None,None,,None,None,431.83429593098117,None,1,1,1.1172881670063362,431.83429593098117,None,432.95122014732914,None,None,None,None,,26,001,2023_Jan_23_1521,searchDisc5,2021.2.3,60.033356226390566,
images/exp2b_trial_9_colour2_distractors31_r.png,r,3,2,31,0,,,,,0,208,208,208,,,,,,,,,,,,,,,,,,,,,,,,,,,,,,,,,,,,,,,,,,,432.9698419389897,None,2,0.2048054200131446,432.9698419389897,None,,,,,,,,,,,,,,,,None,None,None,,None,None,433.2186481730314,None,3,1,0.6866765649756417,433.2186481730314,None,433.90126653733313,None,None,None,None,,26,001,2023_Jan_23_1521,searchDisc5,2021.2.3,60.033356226390566,
images/exp2a_trial_189_colour3_distractors31_l.png,l,1,3,31,0,,,,,0,209,209,209,,,,,,,,,,,,,,,,,,,,,,,,,,,,,,,,,,,,,,,,,,,433.9185438079876,None,2,0.2406795150018297,433.9185438079876,None,,,,,,,,,,,,,,,,None,None,None,,None,None,434.2040464039892,None,1,1,0.9003068539896049,434.2040464039892,None,435.10128870730404,None,None,None,None,,26,001,2023_Jan_23_1521,searchDisc5,2021.2.3,60.033356226390566,
images/exp2c_trial_90_colour3_distractors4_l.png,l,1,3,4,0,,,,,0,210,210,210,,,,,,,,,,,,,,,,,,,,,,,,,,,,,,,,,,,,,,,,,,,435.11834639299195,None,2,0.2065672079916112,435.11834639299195,None,,,,,,,,,,,,,,,,None,None,None,,None,None,435.3702141800313,None,1,1,0.9045593389892019,435.3702141800313,None,436.2685209913354,None,None,None,None,,26,001,2023_Jan_23_1521,searchDisc5,2021.2.3,60.033356226390566,
images/exp1a_trial_127_colour0_distractors0_l.png,l,1,0,0,0,,,,,0,211,211,211,,,,,,,,,,,,,,,,,,,,,,,,,,,,,,,,,,,,,,,,,,,436.28536200698,None,2,0.2717482640291564,436.28536200698,None,,,,,,,,,,,,,,,,None,None,None,,None,None,436.6018661389826,None,1,1,0.6560434499988332,436.6018661389826,None,437.2513441713119,None,None,None,None,,26,001,2023_Jan_23_1521,searchDisc5,2021.2.3,60.033356226390566,
images/exp2a_trial_34_colour1_distractors9_r.png,r,3,1,9,0,,,,,0,212,212,212,,,,,,,,,,,,,,,,,,,,,,,,,,,,,,,,,,,,,,,,,,,437.2684134680312,None,2,0.25471065897727385,437.2684134680312,None,,,,,,,,,,,,,,,,None,None,None,,None,None,437.56897311401553,None,3,1,0.7540876800194383,437.56897311401553,None,438.31717329229576,None,None,None,None,,26,001,2023_Jan_23_1521,searchDisc5,2021.2.3,60.033356226390566,
images/exp2b_trial_166_colour2_distractors4_r.png,r,3,2,4,0,,,,,0,213,213,213,,,,,,,,,,,,,,,,,,,,,,,,,,,,,,,,,,,,,,,,,,,438.33524939301424,None,2,0.2575697809807025,438.33524939301424,None,,,,,,,,,,,,,,,,None,None,None,,None,None,438.63777432299685,None,3,1,0.5872046360163949,438.63777432299685,None,439.2180594023259,None,None,None,None,,26,001,2023_Jan_23_1521,searchDisc5,2021.2.3,60.033356226390566,
images/exp1a_trial_94_colour0_distractors0_r.png,r,3,0,0,0,,,,,0,214,214,214,,,,,,,,,,,,,,,,,,,,,,,,,,,,,,,,,,,,,,,,,,,439.2352147040074,None,2,0.25639653496909887,439.2352147040074,None,,,,,,,,,,,,,,,,None,None,None,,None,None,439.53471670503495,None,3,1,0.5399806729983538,439.53471670503495,None,440.07007023833575,None,None,None,None,,26,001,2023_Jan_23_1521,searchDisc5,2021.2.3,60.033356226390566,
images/exp2c_trial_63_colour0_distractors0_l.png,l,1,0,0,0,,,,,0,215,215,215,,,,,,,,,,,,,,,,,,,,,,,,,,,,,,,,,,,,,,,,,,,440.08746830699965,None,2,0.33586056699277833,440.08746830699965,None,,,,,,,,,,,,,,,,None,None,None,,None,None,440.47006838803645,None,1,1,0.5232807719730772,440.47006838803645,None,440.98472343928296,None,None,None,None,,26,001,2023_Jan_23_1521,searchDisc5,2021.2.3,60.033356226390566,
images/exp2b_trial_92_colour3_distractors19_l.png,l,1,3,19,0,,,,,0,216,216,216,,,,,,,,,,,,,,,,,,,,,,,,,,,,,,,,,,,,,,,,,,,441.000702032994,None,2,0.28959850303363055,441.000702032994,None,,,,,,,,,,,,,,,,None,None,None,,None,None,441.3358731030021,None,1,1,0.6195446220226586,441.3358731030021,None,441.9514442623069,None,None,None,None,,26,001,2023_Jan_23_1521,searchDisc5,2021.2.3,60.033356226390566,
images/exp1a_trial_103_colour2_distractors9_r.png,r,3,2,9,0,,,,,0,217,217,217,,,,,,,,,,,,,,,,,,,,,,,,,,,,,,,,,,,,,,,,,,,441.970473769994,None,2,0.25468949001515284,441.970473769994,None,,,,,,,,,,,,,,,,None,None,None,,None,None,442.2688468359993,None,3,1,0.605197801021859,442.2688468359993,None,442.8691792832862,None,None,None,None,,26,001,2023_Jan_23_1521,searchDisc5,2021.2.3,60.033356226390566,
images/exp2b_trial_167_colour2_distractors9_r.png,r,3,2,9,0,,,,,0,218,218,218,,,,,,,,,,,,,,,,,,,,,,,,,,,,,,,,,,,,,,,,,,,442.88460551103344,None,2,0.25654416799079627,442.88460551103344,None,,,,,,,,,,,,,,,,None,None,None,,None,None,443.18767036503414,None,3,1,0.635425741027575,443.18767036503414,None,443.8182055333338,None,None,None,None,,26,001,2023_Jan_23_1521,searchDisc5,2021.2.3,60.033356226390566,
images/exp1a_trial_105_colour2_distractors31_r.png,r,3,2,31,0,,,,,0,219,219,219,,,,,,,,,,,,,,,,,,,,,,,,,,,,,,,,,,,,,,,,,,,443.83550488902256,None,2,0.23964323895052075,443.83550488902256,None,,,,,,,,,,,,,,,,None,None,None,,None,None,444.12025791802444,None,3,1,0.6825112579972483,444.12025791802444,None,444.8024902813078,None,None,None,None,,26,001,2023_Jan_23_1521,searchDisc5,2021.2.3,60.033356226390566,
images/exp1a_trial_169_colour2_distractors31_r.png,r,3,2,31,0,,,,,0,220,220,220,,,,,,,,,,,,,,,,,,,,,,,,,,,,,,,,,,,,,,,,,,,444.8183361259871,None,2,0.2899623020202853,444.8183361259871,None,,,,,,,,,,,,,,,,None,None,None,,None,None,445.1511641310062,None,3,1,0.5315513479872607,445.1511641310062,None,445.68489110029185,None,None,None,None,,26,001,2023_Jan_23_1521,searchDisc5,2021.2.3,60.033356226390566,
images/exp2b_trial_316_colour3_distractors19_l.png,l,1,3,19,0,,,,,0,221,221,221,,,,,,,,,,,,,,,,,,,,,,,,,,,,,,,,,,,,,,,,,,,445.70264067099197,None,2,0.2699589079711586,445.70264067099197,None,,,,,,,,,,,,,,,,None,None,None,,None,None,446.0182818400208,None,1,1,0.5896076490171254,446.0182818400208,None,446.6026415013068,None,None,None,None,,26,001,2023_Jan_23_1521,searchDisc5,2021.2.3,60.033356226390566,
images/exp2a_trial_293_colour2_distractors1_r.png,r,3,2,1,0,,,,,0,222,222,222,,,,,,,,,,,,,,,,,,,,,,,,,,,,,,,,,,,,,,,,,,,446.61845930299023,None,2,0.2714182100025937,446.61845930299023,None,,,,,,,,,,,,,,,,None,None,None,,None,None,446.9359071520157,None,3,1,0.7051494490006007,446.9359071520157,None,447.63508468029903,None,None,None,None,,26,001,2023_Jan_23_1521,searchDisc5,2021.2.3,60.033356226390566,
images/exp2c_trial_292_colour1_distractors31_r.png,r,3,1,31,0,,,,,0,223,223,223,,,,,,,,,,,,,,,,,,,,,,,,,,,,,,,,,,,,,,,,,,,447.6534382890095,None,2,0.27122420398518443,447.6534382890095,None,,,,,,,,,,,,,,,,None,None,None,,None,None,447.9688983800006,None,3,1,0.6695173889747821,447.9688983800006,None,448.63496017428696,None,None,None,None,,26,001,2023_Jan_23_1521,searchDisc5,2021.2.3,60.033356226390566,
images/exp2c_trial_18_colour1_distractors19_l.png,l,1,1,19,0,,,,,0,224,224,224,,,,,,,,,,,,,,,,,,,,,,,,,,,,,,,,,,,,,,,,,,,448.65206990600564,None,2,0.3204468649928458,448.65206990600564,None,,,,,,,,,,,,,,,,None,None,None,,None,None,449.01872211002046,None,1,1,0.6382882260368206,449.01872211002046,None,449.65166402633184,None,None,None,None,,26,001,2023_Jan_23_1521,searchDisc5,2021.2.3,60.033356226390566,
