ImageFile,targ_side,correctAnswer,colour,distNo,targetType,trials_2.thisRepN,trials_2.thisTrialN,trials_2.thisN,trials_2.thisIndex,trials.thisRepN,trials.thisTrialN,trials.thisN,trials.thisIndex,text_6.started,text_6.stopped,buttonBox.keys,buttonBox.rt,buttonBox.started,buttonBox.stopped,text_7.started,text_7.stopped,buttonBox_3.keys,buttonBox_3.rt,buttonBox_3.started,buttonBox_3.stopped,text_8.started,text_8.stopped,buttonBox_4.keys,buttonBox_4.rt,buttonBox_4.started,buttonBox_4.stopped,text_9.started,text_9.stopped,buttonBox_5.keys,buttonBox_5.rt,buttonBox_5.started,buttonBox_5.stopped,text_2.started,text_2.stopped,buttonBox_6.keys,buttonBox_6.rt,buttonBox_6.started,buttonBox_6.stopped,text_5.started,text_5.stopped,buttonBox_7.keys,buttonBox_7.rt,image_2.started,image_2.stopped,image_3.started,image_3.stopped,buttonBox_8.keys,buttonBox_8.rt,buttonBox_8.started,buttonBox_8.stopped,polygon.started,polygon.stopped,buttonBox_9.keys,buttonBox_9.rt,buttonBox_9.started,buttonBox_9.stopped,image.started,image.stopped,buttonBox_10.keys,buttonBox_10.corr,buttonBox_10.rt,buttonBox_10.started,buttonBox_10.stopped,text_4.started,text_4.stopped,text.started,text.stopped,buttonBox_11.keys,buttonBox_11.rt,buttonBox_11.started,buttonBox_11.stopped,targetTypeInstruction.started,targetTypeInstruction.stopped,buttonBox_2.keys,buttonBox_2.rt,buttonBox_2.started,buttonBox_2.stopped,dispStimuli.started,dispStimuli.stopped,buttonBox_12.keys,buttonBox_12.corr,buttonBox_12.rt,buttonBox_12.started,buttonBox_12.stopped,breakMessage.started,breakMessage.stopped,buttonBox_13.keys,buttonBox_13.started,buttonBox_13.stopped,buttonBox_13.rt,participant,session,date,expName,psychopyVersion,frameRate,
,,,,,,,,,,,,,,41.991377159021795,None,2,30.62713093799539,41.991377159021795,None,,,,,,,,,,,,,,,,,,,,,,,,,,,,,,,,,,,,,,,,,,,,,,,,,,,,,,,,,,,,,,,,,,,,,,,,,,,,,29,001,2023_Jan_24_1119,searchDisc5,2021.2.3,59.80183216428412,
,,,,,,,,,,,,,,,,,,,,72.60705510200933,None,2,37.43179082102142,72.60705510200933,None,,,,,,,,,,,,,,,,,,,,,,,,,,,,,,,,,,,,,,,,,,,,,,,,,,,,,,,,,,,,,,,,,,,,,,,29,001,2023_Jan_24_1119,searchDisc5,2021.2.3,59.80183216428412,
,,,,,,,,,,,,,,,,,,,,,,,,,,110.04127467103535,None,2,9.250664804014377,110.04127467103535,None,,,,,,,,,,,,,,,,,,,,,,,,,,,,,,,,,,,,,,,,,,,,,,,,,,,,,,,,,,,,,,,,,29,001,2023_Jan_24_1119,searchDisc5,2021.2.3,59.80183216428412,
,,,,,,,,,,,,,,,,,,,,,,,,,,,,,,,,119.29116961802356,None,2,8.964007783972193,119.29116961802356,None,,,,,,,,,,,,,,,,,,,,,,,,,,,,,,,,,,,,,,,,,,,,,,,,,,,,,,,,,,,29,001,2023_Jan_24_1119,searchDisc5,2021.2.3,59.80183216428412,
,,,,,,,,,,,,,,,,,,,,,,,,,,,,,,,,,,,,,,128.26035939302528,None,2,25.484042374009732,129.24414558900753,None,,,,,,,,,,,,,,,,,,,,,,,,,,,,,,,,,,,,,,,,,,,,,,,,,,,,,29,001,2023_Jan_24_1119,searchDisc5,2021.2.3,59.80183216428412,
,,,,,,,,,,,,,,,,,,,,,,,,,,,,,,,,,,,,,,,,,,,,154.72572542598937,None,2,7.500187583966181,,,,,,,,,,,,,,,,,,,,,,,,,,,,,,,,,,,,,,,,,,,,,,,,,29,001,2023_Jan_24_1119,searchDisc5,2021.2.3,59.80183216428412,
,,,,,,,,,,,,,,,,,,,,,,,,,,,,,,,,,,,,,,,,,,,,,,,,165.2260737179895,None,165.2260737179895,None,2,4.1974599289824255,165.2260737179895,None,,,,,,,,,,,,,,,,,,,,,,,,,,,,,,,,,,,,,,,,,29,001,2023_Jan_24_1119,searchDisc5,2021.2.3,59.80183216428412,
Practice arrays/exp1a_trial_31_colour0_distractors0_l.png,l,1,,,,0,0,0,15,,,,,,,,,,,,,,,,,,,,,,,,,,,,,,,,,,,,,,,,,,,,,,,169.44243020901922,None,2,1.487864229013212,169.44243020901922,None,170.9930545410025,None,1,1,0.6905840529943816,170.9930545410025,None,171.67604735301575,None,,,,,,,,,,,,,,,,,,,,,,,,,,29,001,2023_Jan_24_1119,searchDisc5,2021.2.3,59.80183216428412,
Practice arrays/exp1a_trial_12_colour3_distractors9_r.png,r,3,,,,0,1,1,5,,,,,,,,,,,,,,,,,,,,,,,,,,,,,,,,,,,,,,,,,,,,,,,173.67834042198956,None,2,10.113891860004514,173.67834042198956,None,183.84337935398798,None,3,1,2.071019435999915,183.84337935398798,None,185.91000460000942,None,,,,,,,,,,,,,,,,,,,,,,,,,,29,001,2023_Jan_24_1119,searchDisc5,2021.2.3,59.80183216428412,
Practice arrays/exp1a_trial_8_colour2_distractors19_r.png,r,3,,,,0,2,2,3,,,,,,,,,,,,,,,,,,,,,,,,,,,,,,,,,,,,,,,,,,,,,,,187.91221943602432,None,2,0.8306143010267988,187.91221943602432,None,188.7949741340126,None,1,0,0.699387070024386,188.7949741340126,None,189.49340083403513,None,,,,,,,,,,,,,,,,,,,,,,,,,,29,001,2023_Jan_24_1119,searchDisc5,2021.2.3,59.80183216428412,
Practice arrays/exp1a_trial_1_colour1_distractors4_r.png,r,3,,,,0,3,3,1,,,,,,,,,,,,,,,,,,,,,,,,,,,,,,,,,,,,,,,,,,,,,,,191.49518540600548,None,2,0.7635652710450813,191.49518540600548,None,192.3104319809936,None,3,1,1.0216702479519881,192.3104319809936,None,193.3269887380302,None,,,,,,,,,,,,,,,,,,,,,,,,,,29,001,2023_Jan_24_1119,searchDisc5,2021.2.3,59.80183216428412,
Practice arrays/exp1a_trial_23_colour2_distractors19_l.png,l,1,,,,0,4,4,10,,,,,,,,,,,,,,,,,,,,,,,,,,,,,,,,,,,,,,,,,,,,,,,195.3284543810296,None,2,1.130862046033144,195.3284543810296,None,196.51056140498258,None,1,1,1.0181227650027722,196.51056140498258,None,197.52689934399677,None,,,,,,,,,,,,,,,,,,,,,,,,,,29,001,2023_Jan_24_1119,searchDisc5,2021.2.3,59.80183216428412,
Practice arrays/exp1a_trial_25_colour3_distractors1_l.png,l,1,,,,0,5,5,11,,,,,,,,,,,,,,,,,,,,,,,,,,,,,,,,,,,,,,,,,,,,,,,199.52832545601996,None,2,0.5481384659651667,199.52832545601996,None,200.12712733703665,None,1,1,0.9032746300217696,200.12712733703665,None,201.0272436910309,None,,,,,,,,,,,,,,,,,,,,,,,,,,29,001,2023_Jan_24_1119,searchDisc5,2021.2.3,59.80183216428412,
Practice arrays/exp1a_trial_21_colour2_distractors4_l.png,l,1,,,,0,6,6,9,,,,,,,,,,,,,,,,,,,,,,,,,,,,,,,,,,,,,,,,,,,,,,,203.0293160849833,None,2,0.5804837330360897,203.0293160849833,None,203.66073013702407,None,1,1,0.7214543709997088,203.66073013702407,None,204.37726262200158,None,,,,,,,,,,,,,,,,,,,,,,,,,,29,001,2023_Jan_24_1119,searchDisc5,2021.2.3,59.80183216428412,
Practice arrays/exp1a_trial_7_colour2_distractors9_r.png,r,3,,,,0,7,7,2,,,,,,,,,,,,,,,,,,,,,,,,,,,,,,,,,,,,,,,,,,,,,,,206.37947651703143,None,2,0.716001636988949,206.37947651703143,None,207.14624124398688,None,3,1,0.5842598309973255,207.14624124398688,None,207.72742794000078,None,,,,,,,,,,,,,,,,,,,,,,,,,,29,001,2023_Jan_24_1119,searchDisc5,2021.2.3,59.80183216428412,
Practice arrays/exp1a_trial_27_colour3_distractors9_l.png,l,1,,,,0,8,8,12,,,,,,,,,,,,,,,,,,,,,,,,,,,,,,,,,,,,,,,,,,,,,,,209.7293545100256,None,2,0.49953432398615405,209.7293545100256,None,210.27968783199321,None,1,1,0.5192176779964939,210.27968783199321,None,210.79346561903367,None,,,,,,,,,,,,,,,,,,,,,,,,,,29,001,2023_Jan_24_1119,searchDisc5,2021.2.3,59.80183216428412,
Practice arrays/exp1a_trial_30_colour0_distractors0_r.png,r,3,,,,0,9,9,14,,,,,,,,,,,,,,,,,,,,,,,,,,,,,,,,,,,,,,,,,,,,,,,212.7956014359952,None,2,0.3970741440425627,212.7956014359952,None,213.2442354550003,None,3,1,0.4885123720159754,213.2442354550003,None,213.72746600199025,None,,,,,,,,,,,,,,,,,,,,,,,,,,29,001,2023_Jan_24_1119,searchDisc5,2021.2.3,59.80183216428412,
Practice arrays/exp1a_trial_0_colour1_distractors1_r.png,r,3,,,,0,10,10,0,,,,,,,,,,,,,,,,,,,,,,,,,,,,,,,,,,,,,,,,,,,,,,,215.7295022319886,None,2,0.43020769499707967,215.7295022319886,None,216.21104591200128,None,3,1,0.5900190719985403,216.21104591200128,None,216.79430660803337,None,,,,,,,,,,,,,,,,,,,,,,,,,,29,001,2023_Jan_24_1119,searchDisc5,2021.2.3,59.80183216428412,
Practice arrays/exp1a_trial_18_colour1_distractors19_l.png,l,1,,,,0,11,11,8,,,,,,,,,,,,,,,,,,,,,,,,,,,,,,,,,,,,,,,,,,,,,,,218.79631514003268,None,2,0.582238269969821,218.79631514003268,None,219.42760930903023,None,1,1,1.0164680680027232,219.42760930903023,None,220.44439716101624,None,,,,,,,,,,,,,,,,,,,,,,,,,,29,001,2023_Jan_24_1119,searchDisc5,2021.2.3,59.80183216428412,
Practice arrays/exp1a_trial_17_colour1_distractors9_l.png,l,1,,,,0,12,12,7,,,,,,,,,,,,,,,,,,,,,,,,,,,,,,,,,,,,,,,,,,,,,,,222.44609461101936,None,2,0.4991641379892826,222.44609461101936,None,222.9966965210042,None,1,1,0.6205799030140042,222.9966965210042,None,223.61103233799804,None,,,,,,,,,,,,,,,,,,,,,,,,,,29,001,2023_Jan_24_1119,searchDisc5,2021.2.3,59.80183216428412,
Practice arrays/exp1a_trial_16_colour1_distractors4_l.png,l,1,,,,0,13,13,13,,,,,,,,,,,,,,,,,,,,,,,,,,,,,,,,,,,,,,,,,,,,,,,225.61318046599627,None,2,0.5486589670181274,225.61318046599627,None,226.2114498509909,None,3,0,0.5031154460157268,226.2114498509909,None,226.71084500401048,None,,,,,,,,,,,,,,,,,,,,,,,,,,29,001,2023_Jan_24_1119,searchDisc5,2021.2.3,59.80183216428412,
Practice arrays/exp1a_trial_10_colour3_distractors1_r.png,r,3,,,,0,14,14,4,,,,,,,,,,,,,,,,,,,,,,,,,,,,,,,,,,,,,,,,,,,,,,,228.7132399440161,None,2,0.48065810202388093,228.7132399440161,None,229.24673073901795,None,3,1,0.7559652909985743,229.24673073901795,None,229.9945018090075,None,,,,,,,,,,,,,,,,,,,,,,,,,,29,001,2023_Jan_24_1119,searchDisc5,2021.2.3,59.80183216428412,
Practice arrays/exp1a_trial_14_colour3_distractors31_r.png,r,3,,,,0,15,15,6,,,,,,,,,,,,,,,,,,,,,,,,,,,,,,,,,,,,,,,,,,,,,,,231.99637321400223,None,2,0.5473146960139275,231.99637321400223,None,232.59458716702648,None,3,1,0.6677183550200425,232.59458716702648,None,233.2613099369919,None,,,,,,,,,,,,,,,,,,,,,,,,,,29,001,2023_Jan_24_1119,searchDisc5,2021.2.3,59.80183216428412,
,,,,,,,,,,,,,,,,,,,,,,,,,,,,,,,,,,,,,,,,,,,,,,,,,,,,,,,,,,,,,,,,,,,,,,,235.34674811299192,None,2,5.648338580969721,236.33016040700022,None,,,,,,,,,,,,,,,,,,,,29,001,2023_Jan_24_1119,searchDisc5,2021.2.3,59.80183216428412,
images/exp2a_trial_125_colour3_distractors31_l.png,l,1,3,31,0,,,,,0,0,0,0,,,,,,,,,,,,,,,,,,,,,,,,,,,,,,,,,,,,,,,,,,,246.42848393699387,None,2,1.2774209039635025,246.42848393699387,None,,,,,,,,,,,,,,,,242.58017968700733,None,2,1.8668987130513415,244.5635175119969,None,247.77036466798745,None,1,1,0.63091601600172,247.77036466798745,None,248.41205593101915,None,None,None,None,,29,001,2023_Jan_24_1119,searchDisc5,2021.2.3,59.80183216428412,
images/exp2b_trial_167_colour2_distractors9_r.png,r,3,2,9,0,,,,,0,1,1,1,,,,,,,,,,,,,,,,,,,,,,,,,,,,,,,,,,,,,,,,,,,248.42819734901423,None,2,2.2395413990016095,248.42819734901423,None,,,,,,,,,,,,,,,,None,None,None,,None,None,250.71347748901462,None,3,1,0.65474812296452,250.71347748901462,None,251.3620472750161,None,None,None,None,,29,001,2023_Jan_24_1119,searchDisc5,2021.2.3,59.80183216428412,
images/exp1a_trial_240_colour1_distractors4_l.png,l,1,1,4,0,,,,,0,2,2,2,,,,,,,,,,,,,,,,,,,,,,,,,,,,,,,,,,,,,,,,,,,251.37840041599702,None,2,0.886155704036355,251.37840041599702,None,,,,,,,,,,,,,,,,None,None,None,,None,None,252.3140656989999,None,1,1,0.8032941140118055,252.3140656989999,None,253.11195706600557,None,None,None,None,,29,001,2023_Jan_24_1119,searchDisc5,2021.2.3,59.80183216428412,
images/exp2c_trial_87_colour2_distractors19_l.png,l,1,2,19,0,,,,,0,3,3,3,,,,,,,,,,,,,,,,,,,,,,,,,,,,,,,,,,,,,,,,,,,253.1286152630346,None,2,0.43928805796895176,253.1286152630346,None,,,,,,,,,,,,,,,,None,None,None,,None,None,253.61437815998215,None,1,1,0.7476974210003391,253.61437815998215,None,254.3620489140274,None,None,None,None,,29,001,2023_Jan_24_1119,searchDisc5,2021.2.3,59.80183216428412,
images/exp2b_trial_171_colour3_distractors4_r.png,r,3,3,4,0,,,,,0,4,4,4,,,,,,,,,,,,,,,,,,,,,,,,,,,,,,,,,,,,,,,,,,,254.37813586200355,None,2,0.37254522898001596,254.37813586200355,None,,,,,,,,,,,,,,,,None,None,None,,None,None,254.7967848610133,None,3,1,0.6378130410448648,254.7967848610133,None,255.4286993350368,None,None,None,None,,29,001,2023_Jan_24_1119,searchDisc5,2021.2.3,59.80183216428412,
images/exp2b_trial_268_colour3_distractors9_r.png,r,3,3,9,0,,,,,0,5,5,5,,,,,,,,,,,,,,,,,,,,,,,,,,,,,,,,,,,,,,,,,,,255.44437878101598,None,2,0.404273435997311,255.44437878101598,None,,,,,,,,,,,,,,,,None,None,None,,None,None,255.89775104803266,None,3,1,0.7552015139954165,255.89775104803266,None,256.6454515840276,None,None,None,None,,29,001,2023_Jan_24_1119,searchDisc5,2021.2.3,59.80183216428412,
images/exp2b_trial_35_colour1_distractors19_r.png,r,3,1,19,0,,,,,0,6,6,6,,,,,,,,,,,,,,,,,,,,,,,,,,,,,,,,,,,,,,,,,,,256.6614806430298,None,2,0.4053986169747077,256.6614806430298,None,,,,,,,,,,,,,,,,None,None,None,,None,None,257.114063711022,None,3,1,0.7185978720081039,257.114063711022,None,257.8291080350289,None,None,None,None,,29,001,2023_Jan_24_1119,searchDisc5,2021.2.3,59.80183216428412,
images/exp2c_trial_13_colour3_distractors19_r.png,r,3,3,19,0,,,,,0,7,7,7,,,,,,,,,,,,,,,,,,,,,,,,,,,,,,,,,,,,,,,,,,,257.8451951959869,None,2,0.38727428996935487,257.8451951959869,None,,,,,,,,,,,,,,,,None,None,None,,None,None,258.28054929501377,None,3,1,0.6503626859630458,258.28054929501377,None,258.92823410803686,None,None,None,None,,29,001,2023_Jan_24_1119,searchDisc5,2021.2.3,59.80183216428412,
images/exp2a_trial_310_colour2_distractors9_l.png,l,1,2,9,0,,,,,0,8,8,8,,,,,,,,,,,,,,,,,,,,,,,,,,,,,,,,,,,,,,,,,,,258.9452849919908,None,2,0.3561245300224982,258.9452849919908,None,,,,,,,,,,,,,,,,None,None,None,,None,None,259.3453596640029,None,1,1,0.6504258859786205,259.3453596640029,None,259.99560218800326,None,None,None,None,,29,001,2023_Jan_24_1119,searchDisc5,2021.2.3,59.80183216428412,
images/exp2b_trial_187_colour3_distractors9_l.png,l,1,3,9,0,,,,,0,9,9,9,,,,,,,,,,,,,,,,,,,,,,,,,,,,,,,,,,,,,,,,,,,260.0116635049926,None,2,0.38757343002362177,260.0116635049926,None,,,,,,,,,,,,,,,,None,None,None,,None,None,260.44744748302037,None,1,1,0.7184981479658745,260.44744748302037,None,261.16217411002145,None,None,None,None,,29,001,2023_Jan_24_1119,searchDisc5,2021.2.3,59.80183216428412,
images/exp2c_trial_9_colour2_distractors31_r.png,r,3,2,31,0,,,,,0,10,10,10,,,,,,,,,,,,,,,,,,,,,,,,,,,,,,,,,,,,,,,,,,,261.17856206401484,None,2,0.32116592896636575,261.17856206401484,None,,,,,,,,,,,,,,,,None,None,None,,None,None,261.54479903099127,None,3,1,0.5867951330146752,261.54479903099127,None,262.12882482302376,None,None,None,None,,29,001,2023_Jan_24_1119,searchDisc5,2021.2.3,59.80183216428412,
images/exp2c_trial_227_colour1_distractors19_r.png,r,3,1,19,0,,,,,0,11,11,11,,,,,,,,,,,,,,,,,,,,,,,,,,,,,,,,,,,,,,,,,,,262.14681317901704,None,2,0.3045608450192958,262.14681317901704,None,,,,,,,,,,,,,,,,None,None,None,,None,None,262.4954251429881,None,3,1,0.5706289790105075,262.4954251429881,None,263.06217262400315,None,None,None,None,,29,001,2023_Jan_24_1119,searchDisc5,2021.2.3,59.80183216428412,
images/exp2b_trial_70_colour2_distractors4_r.png,r,3,2,4,0,,,,,0,12,12,12,,,,,,,,,,,,,,,,,,,,,,,,,,,,,,,,,,,,,,,,,,,263.0785961460206,None,2,0.3044795239693485,263.0785961460206,None,,,,,,,,,,,,,,,,None,None,None,,None,None,263.4288294460275,None,3,1,0.5055805559968576,263.4288294460275,None,263.9290010950179,None,None,None,None,,29,001,2023_Jan_24_1119,searchDisc5,2021.2.3,59.80183216428412,
images/exp1a_trial_267_colour3_distractors4_r.png,r,3,3,4,0,,,,,0,13,13,13,,,,,,,,,,,,,,,,,,,,,,,,,,,,,,,,,,,,,,,,,,,263.9453560410184,None,2,0.33772864303318784,263.9453560410184,None,,,,,,,,,,,,,,,,None,None,None,,None,None,264.32891091000056,None,3,1,0.5382640679599717,264.32891091000056,None,264.8621791970334,None,None,None,None,,29,001,2023_Jan_24_1119,searchDisc5,2021.2.3,59.80183216428412,
images/exp2c_trial_134_colour2_distractors4_r.png,r,3,2,4,0,,,,,0,14,14,14,,,,,,,,,,,,,,,,,,,,,,,,,,,,,,,,,,,,,,,,,,,264.8780325539992,None,2,0.2405789520125836,264.8780325539992,None,,,,,,,,,,,,,,,,None,None,None,,None,None,265.1623202760238,None,3,1,0.4871489410288632,265.1623202760238,None,265.6457689390052,None,None,None,None,,29,001,2023_Jan_24_1119,searchDisc5,2021.2.3,59.80183216428412,
images/exp1a_trial_258_colour1_distractors9_r.png,r,3,1,9,0,,,,,0,15,15,15,,,,,,,,,,,,,,,,,,,,,,,,,,,,,,,,,,,,,,,,,,,265.6614876980311,None,2,0.3209494690527208,265.6614876980311,None,,,,,,,,,,,,,,,,None,None,None,,None,None,266.0289659660193,None,3,1,0.787010646017734,266.0289659660193,None,266.81231179601747,None,None,None,None,,29,001,2023_Jan_24_1119,searchDisc5,2021.2.3,59.80183216428412,
images/exp2a_trial_197_colour2_distractors1_r.png,r,3,2,1,0,,,,,0,16,16,16,,,,,,,,,,,,,,,,,,,,,,,,,,,,,,,,,,,,,,,,,,,266.8287156220176,None,2,0.25452763598877937,266.8287156220176,None,,,,,,,,,,,,,,,,None,None,None,,None,None,267.12879896198865,None,3,1,0.6388375160167925,267.12879896198865,None,267.76246863901616,None,None,None,None,,29,001,2023_Jan_24_1119,searchDisc5,2021.2.3,59.80183216428412,
images/exp2a_trial_214_colour2_distractors9_l.png,l,1,2,9,0,,,,,0,17,17,17,,,,,,,,,,,,,,,,,,,,,,,,,,,,,,,,,,,,,,,,,,,267.7787227020017,None,2,0.27065499598393217,267.7787227020017,None,,,,,,,,,,,,,,,,None,None,None,,None,None,268.09569194202777,None,1,1,0.685931183048524,268.09569194202777,None,268.7790665910114,None,None,None,None,,29,001,2023_Jan_24_1119,searchDisc5,2021.2.3,59.80183216428412,
images/exp1a_trial_84_colour2_distractors1_l.png,l,1,2,1,0,,,,,0,18,18,18,,,,,,,,,,,,,,,,,,,,,,,,,,,,,,,,,,,,,,,,,,,268.7970085660345,None,2,0.3228269570390694,268.7970085660345,None,,,,,,,,,,,,,,,,None,None,None,,None,None,269.16238066903315,None,1,1,0.636864923988469,269.16238066903315,None,269.7956395030022,None,None,None,None,,29,001,2023_Jan_24_1119,searchDisc5,2021.2.3,59.80183216428412,
images/exp1a_trial_4_colour1_distractors31_r.png,r,3,1,31,0,,,,,0,19,19,19,,,,,,,,,,,,,,,,,,,,,,,,,,,,,,,,,,,,,,,,,,,269.81182825000724,None,2,0.2565611559548415,269.81182825000724,None,,,,,,,,,,,,,,,,None,None,None,,None,None,270.1146818139823,None,3,1,0.8480455239769071,270.1146818139823,None,270.96267528303434,None,None,None,None,,29,001,2023_Jan_24_1119,searchDisc5,2021.2.3,59.80183216428412,
images/exp1a_trial_249_colour3_distractors1_l.png,l,1,3,1,0,,,,,0,20,20,20,,,,,,,,,,,,,,,,,,,,,,,,,,,,,,,,,,,,,,,,,,,270.98093530902406,None,2,0.27105800301069394,270.98093530902406,None,,,,,,,,,,,,,,,,None,None,None,,None,None,271.29567241098266,None,1,1,0.6055768780061044,271.29567241098266,None,271.8954780399916,None,None,None,None,,29,001,2023_Jan_24_1119,searchDisc5,2021.2.3,59.80183216428412,
images/exp1a_trial_175_colour1_distractors1_l.png,l,1,1,1,0,,,,,0,21,21,21,,,,,,,,,,,,,,,,,,,,,,,,,,,,,,,,,,,,,,,,,,,271.91232161800144,None,2,0.25572692503919825,271.91232161800144,None,,,,,,,,,,,,,,,,None,None,None,,None,None,272.2125997020048,None,1,1,0.6056463259737939,272.2125997020048,None,272.81250358100516,None,None,None,None,,29,001,2023_Jan_24_1119,searchDisc5,2021.2.3,59.80183216428412,
images/exp2a_trial_56_colour2_distractors31_l.png,l,1,2,31,0,,,,,0,22,22,22,,,,,,,,,,,,,,,,,,,,,,,,,,,,,,,,,,,,,,,,,,,272.83069556800183,None,2,0.23958594200666994,272.83069556800183,None,,,,,,,,,,,,,,,,None,None,None,,None,None,273.1119220110122,None,1,1,0.5765919070108794,273.1119220110122,None,273.6952784020221,None,None,None,None,,29,001,2023_Jan_24_1119,searchDisc5,2021.2.3,59.80183216428412,
images/exp2b_trial_281_colour3_distractors1_l.png,l,1,3,1,0,,,,,0,23,23,23,,,,,,,,,,,,,,,,,,,,,,,,,,,,,,,,,,,,,,,,,,,273.71427907800535,None,2,0.2216113950125873,273.71427907800535,None,,,,,,,,,,,,,,,,None,None,None,,None,None,273.97903278900776,None,1,1,0.8199890989926644,273.97903278900776,None,274.7959109189804,None,None,None,None,,29,001,2023_Jan_24_1119,searchDisc5,2021.2.3,59.80183216428412,
images/exp1a_trial_60_colour3_distractors19_l.png,l,1,3,19,0,,,,,0,24,24,24,,,,,,,,,,,,,,,,,,,,,,,,,,,,,,,,,,,,,,,,,,,274.8118635190185,None,2,0.1712839259998873,274.8118635190185,None,,,,,,,,,,,,,,,,None,None,None,,None,None,275.0311074979836,None,1,1,1.3660325800301507,275.0311074979836,None,276.3961009539897,None,None,None,None,,29,001,2023_Jan_24_1119,searchDisc5,2021.2.3,59.80183216428412,
images/exp2a_trial_152_colour2_distractors31_l.png,l,1,2,31,0,,,,,0,25,25,25,,,,,,,,,,,,,,,,,,,,,,,,,,,,,,,,,,,,,,,,,,,276.41450697899563,None,2,0.17301741801202297,276.41450697899563,None,,,,,,,,,,,,,,,,None,None,None,,None,None,276.6350454200292,None,1,1,0.777342093992047,276.6350454200292,None,277.41247753398494,None,None,None,None,,29,001,2023_Jan_24_1119,searchDisc5,2021.2.3,59.80183216428412,
images/exp1a_trial_190_colour0_distractors0_r.png,r,3,0,0,0,,,,,0,26,26,26,,,,,,,,,,,,,,,,,,,,,,,,,,,,,,,,,,,,,,,,,,,277.42842343001394,None,2,0.25665147497784346,277.42842343001394,None,,,,,,,,,,,,,,,,None,None,None,,None,None,277.73130159499124,None,3,1,0.6349242309806868,277.73130159499124,None,278.3622224560357,None,None,None,None,,29,001,2023_Jan_24_1119,searchDisc5,2021.2.3,59.80183216428412,
images/exp1a_trial_136_colour2_distractors19_r.png,r,3,2,19,0,,,,,0,27,27,27,,,,,,,,,,,,,,,,,,,,,,,,,,,,,,,,,,,,,,,,,,,278.37911349901697,None,2,0.33840363298077136,278.37911349901697,None,,,,,,,,,,,,,,,,None,None,None,,None,None,278.761987083999,None,3,1,0.7515515889972448,278.761987083999,None,279.5127250090125,None,None,None,None,,29,001,2023_Jan_24_1119,searchDisc5,2021.2.3,59.80183216428412,
images/exp2b_trial_83_colour1_distractors31_l.png,l,1,1,31,0,,,,,0,28,28,28,,,,,,,,,,,,,,,,,,,,,,,,,,,,,,,,,,,,,,,,,,,279.52881731803063,None,2,0.2710414039902389,279.52881731803063,None,,,,,,,,,,,,,,,,None,None,None,,None,None,279.84627257700777,None,1,1,0.7194148300332017,279.84627257700777,None,280.56268866600004,None,None,None,None,,29,001,2023_Jan_24_1119,searchDisc5,2021.2.3,59.80183216428412,
images/exp2a_trial_201_colour2_distractors31_r.png,r,3,2,31,0,,,,,0,29,29,29,,,,,,,,,,,,,,,,,,,,,,,,,,,,,,,,,,,,,,,,,,,280.5785266259918,None,2,0.28787514701252803,280.5785266259918,None,,,,,,,,,,,,,,,,None,None,None,,None,None,280.91213986999355,None,3,1,0.6297529899748042,280.91213986999355,None,281.54597007903504,None,None,None,None,,29,001,2023_Jan_24_1119,searchDisc5,2021.2.3,59.80183216428412,
images/exp2b_trial_201_colour2_distractors31_r.png,r,3,2,31,0,,,,,0,30,30,30,,,,,,,,,,,,,,,,,,,,,,,,,,,,,,,,,,,,,,,,,,,281.5625031759846,None,2,0.3045294500188902,281.5625031759846,None,,,,,,,,,,,,,,,,None,None,None,,None,None,281.91239533101907,None,3,1,0.7532012870069593,281.91239533101907,None,282.6626860299846,None,None,None,None,,29,001,2023_Jan_24_1119,searchDisc5,2021.2.3,59.80183216428412,
images/exp2c_trial_69_colour2_distractors1_r.png,r,3,2,1,0,,,,,0,31,31,31,,,,,,,,,,,,,,,,,,,,,,,,,,,,,,,,,,,,,,,,,,,282.67907818401,None,2,0.4413110419991426,282.67907818401,None,,,,,,,,,,,,,,,,None,None,None,,None,None,283.1646106520202,None,3,1,0.5856676270486787,283.1646106520202,None,283.7461678970256,None,None,None,None,,29,001,2023_Jan_24_1119,searchDisc5,2021.2.3,59.80183216428412,
images/exp2b_trial_263_colour2_distractors9_r.png,r,3,2,9,0,,,,,0,32,32,32,,,,,,,,,,,,,,,,,,,,,,,,,,,,,,,,,,,,,,,,,,,283.7620292860083,None,2,0.30452708998927847,283.7620292860083,None,,,,,,,,,,,,,,,,None,None,None,,None,None,284.1128595399787,None,3,1,0.6215635580010712,284.1128595399787,None,284.72949414701435,None,None,None,None,,29,001,2023_Jan_24_1119,searchDisc5,2021.2.3,59.80183216428412,
images/exp2b_trial_290_colour1_distractors9_r.png,r,3,1,9,0,,,,,0,33,33,33,,,,,,,,,,,,,,,,,,,,,,,,,,,,,,,,,,,,,,,,,,,284.74591303698253,None,2,0.3043942319927737,284.74591303698253,None,,,,,,,,,,,,,,,,None,None,None,,None,None,285.0951932169846,None,3,1,0.6864955999772064,285.0951932169846,None,285.7794556220295,None,None,None,None,,29,001,2023_Jan_24_1119,searchDisc5,2021.2.3,59.80183216428412,
images/exp2b_trial_300_colour3_distractors9_r.png,r,3,3,9,0,,,,,0,34,34,34,,,,,,,,,,,,,,,,,,,,,,,,,,,,,,,,,,,,,,,,,,,285.7959015520173,None,2,0.23892840900225565,285.7959015520173,None,,,,,,,,,,,,,,,,None,None,None,,None,None,286.079285143991,None,3,1,0.7208675980218686,286.079285143991,None,286.79621034099256,None,None,None,None,,29,001,2023_Jan_24_1119,searchDisc5,2021.2.3,59.80183216428412,
images/exp2b_trial_284_colour3_distractors19_l.png,l,1,3,19,0,,,,,0,35,35,35,,,,,,,,,,,,,,,,,,,,,,,,,,,,,,,,,,,,,,,,,,,286.8126464600209,None,2,0.2231387990177609,286.8126464600209,None,,,,,,,,,,,,,,,,None,None,None,,None,None,287.08149685000535,None,1,1,0.7346681919880211,287.08149685000535,None,287.81232875703137,None,None,None,None,,29,001,2023_Jan_24_1119,searchDisc5,2021.2.3,59.80183216428412,
images/exp1a_trial_218_colour3_distractors4_l.png,l,1,3,4,0,,,,,0,36,36,36,,,,,,,,,,,,,,,,,,,,,,,,,,,,,,,,,,,,,,,,,,,287.8292768690153,None,2,0.3055431640241295,287.8292768690153,None,,,,,,,,,,,,,,,,None,None,None,,None,None,288.1788992820075,None,1,1,0.7204281109734438,288.1788992820075,None,288.89574017702836,None,None,None,None,,29,001,2023_Jan_24_1119,searchDisc5,2021.2.3,59.80183216428412,
images/exp1a_trial_0_colour1_distractors1_r.png,r,3,1,1,0,,,,,0,37,37,37,,,,,,,,,,,,,,,,,,,,,,,,,,,,,,,,,,,,,,,,,,,288.9124793590163,None,2,0.24199170101201162,288.9124793590163,None,,,,,,,,,,,,,,,,None,None,None,,None,None,289.1962055180338,None,3,1,0.6024983679526486,289.1962055180338,None,289.7963561720215,None,None,None,None,,29,001,2023_Jan_24_1119,searchDisc5,2021.2.3,59.80183216428412,
images/exp2a_trial_110_colour3_distractors31_r.png,r,3,3,31,0,,,,,0,38,38,38,,,,,,,,,,,,,,,,,,,,,,,,,,,,,,,,,,,,,,,,,,,289.8123367439839,None,2,0.28879182500531897,289.8123367439839,None,,,,,,,,,,,,,,,,None,None,None,,None,None,290.1459298779955,None,3,1,0.6181996529921889,290.1459298779955,None,290.7629076939891,None,None,None,None,,29,001,2023_Jan_24_1119,searchDisc5,2021.2.3,59.80183216428412,
images/exp1a_trial_148_colour2_distractors1_l.png,l,1,2,1,0,,,,,0,39,39,39,,,,,,,,,,,,,,,,,,,,,,,,,,,,,,,,,,,,,,,,,,,290.77940429298906,None,2,0.2878844299702905,290.77940429298906,None,,,,,,,,,,,,,,,,None,None,None,,None,None,291.1124484530301,None,1,1,0.6229409429943189,291.1124484530301,None,291.72963161703666,None,None,None,None,,29,001,2023_Jan_24_1119,searchDisc5,2021.2.3,59.80183216428412,
images/exp2c_trial_301_colour3_distractors19_r.png,r,3,3,19,0,,,,,0,40,40,40,,,,,,,,,,,,,,,,,,,,,,,,,,,,,,,,,,,,,,,,,,,291.74552397202933,None,2,0.2878333019907586,291.74552397202933,None,,,,,,,,,,,,,,,,None,None,None,,None,None,292.07968627498485,None,3,1,0.5871929920394905,292.07968627498485,None,292.66311025801116,None,None,None,None,,29,001,2023_Jan_24_1119,searchDisc5,2021.2.3,59.80183216428412,
images/exp2c_trial_170_colour3_distractors1_r.png,r,3,3,1,0,,,,,0,41,41,41,,,,,,,,,,,,,,,,,,,,,,,,,,,,,,,,,,,,,,,,,,,292.6811140180216,None,2,0.28788434399757534,292.6811140180216,None,,,,,,,,,,,,,,,,None,None,None,,None,None,293.0129988110275,None,3,1,0.57292426697677,293.0129988110275,None,293.5798729760107,None,None,None,None,,29,001,2023_Jan_24_1119,searchDisc5,2021.2.3,59.80183216428412,
images/exp1a_trial_83_colour1_distractors31_l.png,l,1,1,31,0,,,,,0,42,42,42,,,,,,,,,,,,,,,,,,,,,,,,,,,,,,,,,,,,,,,,,,,293.5981295360252,None,2,0.23771427100291476,293.5981295360252,None,,,,,,,,,,,,,,,,None,None,None,,None,None,293.8797041460057,None,1,1,0.6002011490054429,293.8797041460057,None,294.4798206380336,None,None,None,None,,29,001,2023_Jan_24_1119,searchDisc5,2021.2.3,59.80183216428412,
images/exp1a_trial_200_colour2_distractors19_r.png,r,3,2,19,0,,,,,0,43,43,43,,,,,,,,,,,,,,,,,,,,,,,,,,,,,,,,,,,,,,,,,,,294.49606258398853,None,2,0.2561620849883184,294.49606258398853,None,,,,,,,,,,,,,,,,None,None,None,,None,None,294.7981218119967,None,3,1,0.6678376899799332,294.7981218119967,None,295.46318902303466,None,None,None,None,,29,001,2023_Jan_24_1119,searchDisc5,2021.2.3,59.80183216428412,
images/exp1a_trial_14_colour3_distractors31_r.png,r,3,3,31,0,,,,,0,44,44,44,,,,,,,,,,,,,,,,,,,,,,,,,,,,,,,,,,,,,,,,,,,295.47953582101036,None,2,0.2877301090047695,295.47953582101036,None,,,,,,,,,,,,,,,,None,None,None,,None,None,295.81301588000497,None,3,1,0.5336878770031035,295.81301588000497,None,296.3467224100139,None,None,None,None,,29,001,2023_Jan_24_1119,searchDisc5,2021.2.3,59.80183216428412,
images/exp2b_trial_103_colour2_distractors9_r.png,r,3,2,9,0,,,,,0,45,45,45,,,,,,,,,,,,,,,,,,,,,,,,,,,,,,,,,,,,,,,,,,,296.36288871703437,None,2,0.2708219289779663,296.36288871703437,None,,,,,,,,,,,,,,,,None,None,None,,None,None,296.6794629280339,None,3,1,0.4716119969962165,296.6794629280339,None,297.1464674720308,None,None,None,None,,29,001,2023_Jan_24_1119,searchDisc5,2021.2.3,59.80183216428412,
images/exp2c_trial_124_colour3_distractors19_l.png,l,1,3,19,0,,,,,0,46,46,46,,,,,,,,,,,,,,,,,,,,,,,,,,,,,,,,,,,,,,,,,,,297.16283364000265,None,2,0.22338368400232866,297.16283364000265,None,,,,,,,,,,,,,,,,None,None,None,,None,None,297.43171969399555,None,1,1,1.0005620770389214,297.43171969399555,None,298.4291023049853,None,None,None,None,,29,001,2023_Jan_24_1119,searchDisc5,2021.2.3,59.80183216428412,
images/exp2c_trial_97_colour1_distractors4_r.png,r,3,1,4,0,,,,,0,47,47,47,,,,,,,,,,,,,,,,,,,,,,,,,,,,,,,,,,,,,,,,,,,298.4459405480302,None,2,0.1572957090102136,298.4459405480302,None,,,,,,,,,,,,,,,,None,None,None,,None,None,298.6464429909829,None,3,1,0.7870076359831728,298.6464429909829,None,299.4299068600056,None,None,None,None,,29,001,2023_Jan_24_1119,searchDisc5,2021.2.3,59.80183216428412,
images/exp2b_trial_318_colour0_distractors0_r.png,r,3,0,0,0,,,,,0,48,48,48,,,,,,,,,,,,,,,,,,,,,,,,,,,,,,,,,,,,,,,,,,,299.44596093101427,None,2,0.23787003196775913,299.44596093101427,None,,,,,,,,,,,,,,,,None,None,None,,None,None,299.729629990994,None,3,1,0.7062248619622551,299.729629990994,None,300.42989608198405,None,None,None,None,,29,001,2023_Jan_24_1119,searchDisc5,2021.2.3,59.80183216428412,
images/exp1a_trial_231_colour2_distractors9_r.png,r,3,2,9,0,,,,,0,49,49,49,,,,,,,,,,,,,,,,,,,,,,,,,,,,,,,,,,,,,,,,,,,300.4462845950038,None,2,0.20444041601149365,300.4462845950038,None,,,,,,,,,,,,,,,,None,None,None,,None,None,300.6978398300125,None,3,1,0.9545024840044789,300.6978398300125,None,301.6465949270176,None,None,None,None,,29,001,2023_Jan_24_1119,searchDisc5,2021.2.3,59.80183216428412,
images/exp2c_trial_141_colour3_distractors19_r.png,r,3,3,19,0,,,,,0,50,50,50,,,,,,,,,,,,,,,,,,,,,,,,,,,,,,,,,,,,,,,,,,,301.66265607002424,None,2,0.20362554397433996,301.66265607002424,None,,,,,,,,,,,,,,,,None,None,None,,None,None,301.9126527850167,None,3,1,0.8198074970277958,301.9126527850167,None,302.7293750610086,None,None,None,None,,29,001,2023_Jan_24_1119,searchDisc5,2021.2.3,59.80183216428412,
images/exp1a_trial_133_colour2_distractors1_r.png,r,3,2,1,0,,,,,0,51,51,51,,,,,,,,,,,,,,,,,,,,,,,,,,,,,,,,,,,,,,,,,,,302.7483631190262,None,2,0.20732347597368062,302.7483631190262,None,,,,,,,,,,,,,,,,None,None,None,,None,None,302.99868561001495,None,3,1,1.0541942410054617,302.99868561001495,None,304.0467459270265,None,None,None,None,,29,001,2023_Jan_24_1119,searchDisc5,2021.2.3,59.80183216428412,
images/exp2b_trial_40_colour2_distractors19_r.png,r,3,2,19,0,,,,,0,52,52,52,,,,,,,,,,,,,,,,,,,,,,,,,,,,,,,,,,,,,,,,,,,304.06283885403536,None,2,0.22310526203364134,304.06283885403536,None,,,,,,,,,,,,,,,,None,None,None,,None,None,304.33204760501394,None,3,1,0.5839583560009487,304.33204760501394,None,304.9133600859903,None,None,None,None,,29,001,2023_Jan_24_1119,searchDisc5,2021.2.3,59.80183216428412,
images/exp2c_trial_271_colour1_distractors1_l.png,l,1,1,1,0,,,,,0,53,53,53,,,,,,,,,,,,,,,,,,,,,,,,,,,,,,,,,,,,,,,,,,,304.92992284701904,None,2,0.25442197103984654,304.92992284701904,None,,,,,,,,,,,,,,,,None,None,None,,None,None,305.22963335498935,None,1,1,0.8062677850248292,305.22963335498935,None,306.0301359139965,None,None,None,None,,29,001,2023_Jan_24_1119,searchDisc5,2021.2.3,59.80183216428412,
images/exp2c_trial_41_colour2_distractors31_r.png,r,3,2,31,0,,,,,0,54,54,54,,,,,,,,,,,,,,,,,,,,,,,,,,,,,,,,,,,,,,,,,,,306.04630986001575,None,2,0.23987152404151857,306.04630986001575,None,,,,,,,,,,,,,,,,None,None,None,,None,None,306.3301779110334,None,3,1,0.6671811899868771,306.3301779110334,None,306.9967821129947,None,None,None,None,,29,001,2023_Jan_24_1119,searchDisc5,2021.2.3,59.80183216428412,
images/exp1a_trial_144_colour1_distractors4_l.png,l,1,1,4,0,,,,,0,55,55,55,,,,,,,,,,,,,,,,,,,,,,,,,,,,,,,,,,,,,,,,,,,307.01320778002264,None,2,0.27124205796280876,307.01320778002264,None,,,,,,,,,,,,,,,,None,None,None,,None,None,307.33044548501493,None,1,1,0.6880824819672853,307.33044548501493,None,308.0134743790375,None,None,None,None,,29,001,2023_Jan_24_1119,searchDisc5,2021.2.3,59.80183216428412,
images/exp1a_trial_105_colour2_distractors31_r.png,r,3,2,31,0,,,,,0,56,56,56,,,,,,,,,,,,,,,,,,,,,,,,,,,,,,,,,,,,,,,,,,,308.02997294598026,None,2,0.22328032500809059,308.02997294598026,None,,,,,,,,,,,,,,,,None,None,None,,None,None,308.29866454500007,None,3,1,0.6981357380282134,308.29866454500007,None,308.9970340310363,None,None,None,None,,29,001,2023_Jan_24_1119,searchDisc5,2021.2.3,59.80183216428412,
images/exp2b_trial_63_colour0_distractors0_l.png,l,1,0,0,0,,,,,0,57,57,57,,,,,,,,,,,,,,,,,,,,,,,,,,,,,,,,,,,,,,,,,,,309.0132435170235,None,2,0.18776469700969756,309.0132435170235,None,,,,,,,,,,,,,,,,None,None,None,,None,None,309.248367630993,None,1,1,0.6565804419806227,309.248367630993,None,309.8969109000289,None,None,None,None,,29,001,2023_Jan_24_1119,searchDisc5,2021.2.3,59.80183216428412,
images/exp2a_trial_34_colour1_distractors9_r.png,r,3,1,9,0,,,,,0,58,58,58,,,,,,,,,,,,,,,,,,,,,,,,,,,,,,,,,,,,,,,,,,,309.9134155160282,None,2,0.2040911290096119,309.9134155160282,None,,,,,,,,,,,,,,,,None,None,None,,None,None,310.1648772759945,None,3,1,0.5878525500302203,310.1648772759945,None,310.7467635949841,None,None,None,None,,29,001,2023_Jan_24_1119,searchDisc5,2021.2.3,59.80183216428412,
images/exp2a_trial_124_colour3_distractors19_l.png,l,1,3,19,0,,,,,0,59,59,59,,,,,,,,,,,,,,,,,,,,,,,,,,,,,,,,,,,,,,,,,,,310.7632544200169,None,2,0.22339686896884814,310.7632544200169,None,,,,,,,,,,,,,,,,None,None,None,,None,None,311.0322618809878,None,1,1,0.6015941509976983,311.0322618809878,None,311.63021484600614,None,None,None,None,,29,001,2023_Jan_24_1119,searchDisc5,2021.2.3,59.80183216428412,
images/exp2a_trial_274_colour1_distractors19_l.png,l,1,1,19,0,,,,,0,60,60,60,,,,,,,,,,,,,,,,,,,,,,,,,,,,,,,,,,,,,,,,,,,311.6481995420181,None,2,0.20666123199043795,311.6481995420181,None,,,,,,,,,,,,,,,,None,None,None,,None,None,311.89690830698237,None,1,1,1.0182479069917463,311.89690830698237,None,312.9136831640033,None,None,None,None,,29,001,2023_Jan_24_1119,searchDisc5,2021.2.3,59.80183216428412,
images/exp2a_trial_78_colour3_distractors31_r.png,r,3,3,31,0,,,,,0,61,61,61,,,,,,,,,,,,,,,,,,,,,,,,,,,,,,,,,,,,,,,,,,,312.92946111701895,None,2,0.17109267500927672,312.92946111701895,None,,,,,,,,,,,,,,,,None,None,None,,None,None,313.1490363019984,None,3,1,0.6028030750458129,313.1490363019984,None,313.7469591479865,None,None,None,None,,29,001,2023_Jan_24_1119,searchDisc5,2021.2.3,59.80183216428412,
images/exp1a_trial_282_colour3_distractors4_l.png,l,1,3,4,0,,,,,0,62,62,62,,,,,,,,,,,,,,,,,,,,,,,,,,,,,,,,,,,,,,,,,,,313.7654834910063,None,2,0.25578662898624316,313.7654834910063,None,,,,,,,,,,,,,,,,None,None,None,,None,None,314.06361020798795,None,1,1,0.657004164007958,314.06361020798795,None,314.71377684101464,None,None,None,None,,29,001,2023_Jan_24_1119,searchDisc5,2021.2.3,59.80183216428412,
images/exp2a_trial_61_colour3_distractors31_l.png,l,1,3,31,0,,,,,0,63,63,63,,,,,,,,,,,,,,,,,,,,,,,,,,,,,,,,,,,,,,,,,,,314.7321228570072,None,2,0.23589898098725826,314.7321228570072,None,,,,,,,,,,,,,,,,None,None,None,,None,None,315.01367775100516,None,1,1,0.8202008969965391,315.01367775100516,None,315.8303209500271,None,None,None,None,,29,001,2023_Jan_24_1119,searchDisc5,2021.2.3,59.80183216428412,
images/exp2c_trial_145_colour1_distractors9_l.png,l,1,1,9,0,,,,,0,64,64,64,,,,,,,,,,,,,,,,,,,,,,,,,,,,,,,,,,,,,,,,,,,315.84680820803624,None,2,0.1709736260236241,315.84680820803624,None,,,,,,,,,,,,,,,,None,None,None,,None,None,316.0653596619959,None,1,1,0.5383157350006513,316.0653596619959,None,316.59662273300347,None,None,None,None,,29,001,2023_Jan_24_1119,searchDisc5,2021.2.3,59.80183216428412,
images/exp2a_trial_193_colour1_distractors4_r.png,r,3,1,4,0,,,,,0,65,65,65,,,,,,,,,,,,,,,,,,,,,,,,,,,,,,,,,,,,,,,,,,,316.61283247201936,None,2,0.13968363497406244,316.61283247201936,None,,,,,,,,,,,,,,,,None,None,None,,None,None,316.7967415690073,None,3,1,0.6212517319945619,316.7967415690073,None,317.4138286869973,None,None,None,None,,29,001,2023_Jan_24_1119,searchDisc5,2021.2.3,59.80183216428412,
images/exp2b_trial_276_colour2_distractors1_l.png,l,1,2,1,0,,,,,0,66,66,66,,,,,,,,,,,,,,,,,,,,,,,,,,,,,,,,,,,,,,,,,,,317.42947843298316,None,2,0.1541324839927256,317.42947843298316,None,,,,,,,,,,,,,,,,None,None,None,,None,None,317.62973035202594,None,1,1,0.6225204800139181,317.62973035202594,None,318.2471659800038,None,None,None,None,,29,001,2023_Jan_24_1119,searchDisc5,2021.2.3,59.80183216428412,
images/exp1a_trial_196_colour1_distractors31_r.png,r,3,1,31,0,,,,,0,67,67,67,,,,,,,,,,,,,,,,,,,,,,,,,,,,,,,,,,,,,,,,,,,318.26320421503624,None,2,0.22358225198695436,318.26320421503624,None,,,,,,,,,,,,,,,,None,None,None,,None,None,318.5327192139812,None,3,1,0.7809440080309287,318.5327192139812,None,319.313914834999,None,None,None,None,,29,001,2023_Jan_24_1119,searchDisc5,2021.2.3,59.80183216428412,
images/exp2c_trial_66_colour1_distractors9_r.png,r,3,1,9,0,,,,,0,68,68,68,,,,,,,,,,,,,,,,,,,,,,,,,,,,,,,,,,,,,,,,,,,319.32996380201075,None,2,0.17109290603548288,319.32996380201075,None,,,,,,,,,,,,,,,,None,None,None,,None,None,319.5471418109955,None,3,1,0.8384481690009125,319.5471418109955,None,320.38056103700075,None,None,None,None,,29,001,2023_Jan_24_1119,searchDisc5,2021.2.3,59.80183216428412,
images/exp2a_trial_33_colour1_distractors4_r.png,r,3,1,4,0,,,,,0,69,69,69,,,,,,,,,,,,,,,,,,,,,,,,,,,,,,,,,,,,,,,,,,,320.3968949840055,None,2,0.1544909619842656,320.3968949840055,None,,,,,,,,,,,,,,,,None,None,None,,None,None,320.5965873650275,None,3,1,0.8057242869981565,320.5965873650275,None,321.39723645600026,None,None,None,None,,29,001,2023_Jan_24_1119,searchDisc5,2021.2.3,59.80183216428412,
images/exp2b_trial_51_colour1_distractors31_l.png,l,1,1,31,0,,,,,0,70,70,70,,,,,,,,,,,,,,,,,,,,,,,,,,,,,,,,,,,,,,,,,,,321.4139367809985,None,2,0.15408163197571412,321.4139367809985,None,,,,,,,,,,,,,,,,None,None,None,,None,None,321.61583446798613,None,1,1,1.0693837309954688,321.61583446798613,None,322.6804530000198,None,None,None,None,,29,001,2023_Jan_24_1119,searchDisc5,2021.2.3,59.80183216428412,
images/exp2a_trial_280_colour2_distractors31_l.png,l,1,2,31,0,,,,,0,71,71,71,,,,,,,,,,,,,,,,,,,,,,,,,,,,,,,,,,,,,,,,,,,322.6971185270231,None,2,0.15462634299183264,322.6971185270231,None,,,,,,,,,,,,,,,,None,None,None,,None,None,322.9008950830321,None,1,1,0.8628665089490823,322.9008950830321,None,323.7638361950056,None,None,None,None,,29,001,2023_Jan_24_1119,searchDisc5,2021.2.3,59.80183216428412,
images/exp2a_trial_278_colour2_distractors9_l.png,l,1,2,9,0,,,,,0,72,72,72,,,,,,,,,,,,,,,,,,,,,,,,,,,,,,,,,,,,,,,,,,,323.78032855701167,None,2,0.12338875001296401,323.78032855701167,None,,,,,,,,,,,,,,,,None,None,None,,None,None,323.9485243430245,None,1,1,0.7331352509791031,323.9485243430245,None,324.68065677002306,None,None,None,None,,29,001,2023_Jan_24_1119,searchDisc5,2021.2.3,59.80183216428412,
images/exp2a_trial_16_colour1_distractors4_l.png,l,1,1,4,0,,,,,0,73,73,73,,,,,,,,,,,,,,,,,,,,,,,,,,,,,,,,,,,,,,,,,,,324.69673120003426,None,2,0.13785911997547373,324.69673120003426,None,,,,,,,,,,,,,,,,None,None,None,,None,None,324.8805791049963,None,1,1,0.6883961709681898,324.8805791049963,None,325.5635845920304,None,None,None,None,,29,001,2023_Jan_24_1119,searchDisc5,2021.2.3,59.80183216428412,
images/exp1a_trial_255_colour0_distractors0_l.png,l,1,0,0,0,,,,,0,74,74,74,,,,,,,,,,,,,,,,,,,,,,,,,,,,,,,,,,,,,,,,,,,325.58040244999574,None,2,0.15493913099635392,325.58040244999574,None,,,,,,,,,,,,,,,,None,None,None,,None,None,325.77997480903286,None,1,1,0.5393195920041762,325.77997480903286,None,326.3134396789945,None,None,None,None,,29,001,2023_Jan_24_1119,searchDisc5,2021.2.3,59.80183216428412,
images/exp2b_trial_271_colour1_distractors1_l.png,l,1,1,1,0,,,,,0,75,75,75,,,,,,,,,,,,,,,,,,,,,,,,,,,,,,,,,,,,,,,,,,,326.33023876399966,None,2,0.155087849998381,326.33023876399966,None,,,,,,,,,,,,,,,,None,None,None,,None,None,326.53218952502357,None,1,1,0.5565405930392444,326.53218952502357,None,327.0807472340064,None,None,None,None,,29,001,2023_Jan_24_1119,searchDisc5,2021.2.3,59.80183216428412,
images/exp2a_trial_147_colour1_distractors31_l.png,l,1,1,31,0,,,,,0,76,76,76,,,,,,,,,,,,,,,,,,,,,,,,,,,,,,,,,,,,,,,,,,,327.09641136199934,None,2,0.12275358499027789,327.09641136199934,None,,,,,,,,,,,,,,,,None,None,None,,None,None,327.26598155498505,None,1,1,0.567564898985438,327.26598155498505,None,327.8306565820356,None,None,None,None,,29,001,2023_Jan_24_1119,searchDisc5,2021.2.3,59.80183216428412,
images/exp2a_trial_266_colour3_distractors1_r.png,r,3,3,1,0,,,,,0,77,77,77,,,,,,,,,,,,,,,,,,,,,,,,,,,,,,,,,,,,,,,,,,,327.8474319340312,None,2,0.12105546798557043,327.8474319340312,None,,,,,,,,,,,,,,,,None,None,None,,None,None,327.99722643301357,None,3,1,0.6749582850025035,327.99722643301357,None,328.6808995530126,None,None,None,None,,29,001,2023_Jan_24_1119,searchDisc5,2021.2.3,59.80183216428412,
images/exp2b_trial_59_colour3_distractors9_l.png,l,1,3,9,0,,,,,0,78,78,78,,,,,,,,,,,,,,,,,,,,,,,,,,,,,,,,,,,,,,,,,,,328.6992600110243,None,2,0.18960267200600356,328.6992600110243,None,,,,,,,,,,,,,,,,None,None,None,,None,None,328.93271410500165,None,1,1,0.7863115489599295,328.93271410500165,None,329.71397545899964,None,None,None,None,,29,001,2023_Jan_24_1119,searchDisc5,2021.2.3,59.80183216428412,
images/exp2c_trial_269_colour3_distractors19_r.png,r,3,3,19,0,,,,,0,79,79,79,,,,,,,,,,,,,,,,,,,,,,,,,,,,,,,,,,,,,,,,,,,329.7301533120335,None,2,0.14013993903063238,329.7301533120335,None,,,,,,,,,,,,,,,,None,None,None,,None,None,329.91417713300325,None,3,1,0.6179286830010824,329.91417713300325,None,330.53081202601317,None,None,None,None,,29,001,2023_Jan_24_1119,searchDisc5,2021.2.3,59.80183216428412,
images/exp1a_trial_257_colour1_distractors4_r.png,r,3,1,4,0,,,,,0,80,80,80,,,,,,,,,,,,,,,,,,,,,,,,,,,,,,,,,,,,,,,,,,,330.54896808299236,None,2,0.18996617395896465,330.54896808299236,None,,,,,,,,,,,,,,,,None,None,None,,None,None,330.7828040239983,None,3,1,0.8035665940260515,330.7828040239983,None,331.5808159880224,None,None,None,None,,29,001,2023_Jan_24_1119,searchDisc5,2021.2.3,59.80183216428412,
images/exp2c_trial_189_colour3_distractors31_l.png,l,1,3,31,0,,,,,0,81,81,81,,,,,,,,,,,,,,,,,,,,,,,,,,,,,,,,,,,,,,,,,,,331.5968358889804,None,2,0.17065559996990487,331.5968358889804,None,,,,,,,,,,,,,,,,None,None,None,,None,None,331.8157629810157,None,1,1,0.6032436430105008,331.8157629810157,None,332.4141184300068,None,None,None,None,,29,001,2023_Jan_24_1119,searchDisc5,2021.2.3,59.80183216428412,
images/exp2a_trial_195_colour1_distractors19_r.png,r,3,1,19,0,,,,,0,82,82,82,,,,,,,,,,,,,,,,,,,,,,,,,,,,,,,,,,,,,,,,,,,332.4326958199963,None,2,0.20605283201439306,332.4326958199963,None,,,,,,,,,,,,,,,,None,None,None,,None,None,332.68086689000484,None,3,1,0.6015390710090287,332.68086689000484,None,333.2810070110252,None,None,None,None,,29,001,2023_Jan_24_1119,searchDisc5,2021.2.3,59.80183216428412,
images/exp2b_trial_222_colour0_distractors0_r.png,r,3,0,0,0,,,,,0,83,83,83,,,,,,,,,,,,,,,,,,,,,,,,,,,,,,,,,,,,,,,,,,,333.29705255903536,None,2,0.20651107298908755,333.29705255903536,None,,,,,,,,,,,,,,,,None,None,None,,None,None,333.54962497000815,None,3,1,0.670948037004564,333.54962497000815,None,334.21414877399803,None,None,None,None,,29,001,2023_Jan_24_1119,searchDisc5,2021.2.3,59.80183216428412,
images/exp2b_trial_215_colour2_distractors19_l.png,l,1,2,19,0,,,,,0,84,84,84,,,,,,,,,,,,,,,,,,,,,,,,,,,,,,,,,,,,,,,,,,,334.23019386600936,None,2,0.13822957704542205,334.23019386600936,None,,,,,,,,,,,,,,,,None,None,None,,None,None,334.41426563001005,None,1,1,0.6691563290078193,334.41426563001005,None,335.0800846300088,None,None,None,None,,29,001,2023_Jan_24_1119,searchDisc5,2021.2.3,59.80183216428412,
images/exp2b_trial_137_colour2_distractors31_r.png,r,3,2,31,0,,,,,0,85,85,85,,,,,,,,,,,,,,,,,,,,,,,,,,,,,,,,,,,,,,,,,,,335.0968642369844,None,2,0.24036952998721972,335.0968642369844,None,,,,,,,,,,,,,,,,None,None,None,,None,None,335.38082155998563,None,3,1,0.6016310299746692,335.38082155998563,None,335.9810147810029,None,None,None,None,,29,001,2023_Jan_24_1119,searchDisc5,2021.2.3,59.80183216428412,
images/exp2a_trial_156_colour3_distractors19_l.png,l,1,3,19,0,,,,,0,86,86,86,,,,,,,,,,,,,,,,,,,,,,,,,,,,,,,,,,,,,,,,,,,335.9970598340151,None,2,0.22518285899423063,335.9970598340151,None,,,,,,,,,,,,,,,,None,None,None,,None,None,336.2659285319969,None,1,1,0.6668331180117093,336.2659285319969,None,336.9308945550118,None,None,None,None,,29,001,2023_Jan_24_1119,searchDisc5,2021.2.3,59.80183216428412,
images/exp2b_trial_119_colour2_distractors19_l.png,l,1,2,19,0,,,,,0,87,87,87,,,,,,,,,,,,,,,,,,,,,,,,,,,,,,,,,,,,,,,,,,,336.9469985720352,None,2,0.20581153605598956,336.9469985720352,None,,,,,,,,,,,,,,,,None,None,None,,None,None,337.1990263389889,None,1,1,0.7360405950457789,337.1990263389889,None,337.9310686210054,None,None,None,None,,29,001,2023_Jan_24_1119,searchDisc5,2021.2.3,59.80183216428412,
images/exp2a_trial_86_colour2_distractors9_l.png,l,1,2,9,0,,,,,0,88,88,88,,,,,,,,,,,,,,,,,,,,,,,,,,,,,,,,,,,,,,,,,,,337.94741283601616,None,2,0.12038468598620966,337.94741283601616,None,,,,,,,,,,,,,,,,None,None,None,,None,None,338.114487251034,None,1,1,0.6685222859960049,338.114487251034,None,338.7808999710367,None,None,None,None,,29,001,2023_Jan_24_1119,searchDisc5,2021.2.3,59.80183216428412,
images/exp2b_trial_37_colour2_distractors1_r.png,r,3,2,1,0,,,,,0,89,89,89,,,,,,,,,,,,,,,,,,,,,,,,,,,,,,,,,,,,,,,,,,,338.7994525299873,None,2,0.13785147300222889,338.7994525299873,None,,,,,,,,,,,,,,,,None,None,None,,None,None,338.97181129001547,None,3,1,0.6941863379906863,338.97181129001547,None,339.66429163999857,None,None,None,None,,29,001,2023_Jan_24_1119,searchDisc5,2021.2.3,59.80183216428412,
images/exp2a_trial_292_colour1_distractors31_r.png,r,3,1,31,0,,,,,0,90,90,90,,,,,,,,,,,,,,,,,,,,,,,,,,,,,,,,,,,,,,,,,,,339.6802445619833,None,2,0.27119093103101477,339.6802445619833,None,,,,,,,,,,,,,,,,None,None,None,,None,None,339.997130873031,None,3,1,0.6681445510475896,339.997130873031,None,340.66396595602856,None,None,None,None,,29,001,2023_Jan_24_1119,searchDisc5,2021.2.3,59.80183216428412,
images/exp2b_trial_305_colour1_distractors9_l.png,l,1,1,9,0,,,,,0,91,91,91,,,,,,,,,,,,,,,,,,,,,,,,,,,,,,,,,,,,,,,,,,,340.68084288499085,None,2,0.17112317000282928,340.68084288499085,None,,,,,,,,,,,,,,,,None,None,None,,None,None,340.89954335498624,None,1,1,0.5592558140051551,340.89954335498624,None,341.4477761080023,None,None,None,None,,29,001,2023_Jan_24_1119,searchDisc5,2021.2.3,59.80183216428412,
images/exp2c_trial_264_colour2_distractors19_r.png,r,3,2,19,0,,,,,0,92,92,92,,,,,,,,,,,,,,,,,,,,,,,,,,,,,,,,,,,,,,,,,,,341.46399440802634,None,2,0.2544266190379858,341.46399440802634,None,,,,,,,,,,,,,,,,None,None,None,,None,None,341.7657279900159,None,3,1,0.6185903719742782,341.7657279900159,None,342.38139670203674,None,None,None,None,,29,001,2023_Jan_24_1119,searchDisc5,2021.2.3,59.80183216428412,
images/exp1a_trial_59_colour3_distractors9_l.png,l,1,3,9,0,,,,,0,93,93,93,,,,,,,,,,,,,,,,,,,,,,,,,,,,,,,,,,,,,,,,,,,342.39728123001987,None,2,0.17296584194991738,342.39728123001987,None,,,,,,,,,,,,,,,,None,None,None,,None,None,342.61680497199995,None,1,1,0.5185179990367033,342.61680497199995,None,343.1312577130273,None,None,None,None,,29,001,2023_Jan_24_1119,searchDisc5,2021.2.3,59.80183216428412,
images/exp2c_trial_229_colour2_distractors1_r.png,r,3,2,1,0,,,,,0,94,94,94,,,,,,,,,,,,,,,,,,,,,,,,,,,,,,,,,,,,,,,,,,,343.1478509079898,None,2,0.2373690929962322,343.1478509079898,None,,,,,,,,,,,,,,,,None,None,None,,None,None,343.4311689269962,None,3,1,0.4564210529788397,343.4311689269962,None,343.88125521900366,None,None,None,None,,29,001,2023_Jan_24_1119,searchDisc5,2021.2.3,59.80183216428412,
images/exp2a_trial_145_colour1_distractors9_l.png,l,1,1,9,0,,,,,0,95,95,95,,,,,,,,,,,,,,,,,,,,,,,,,,,,,,,,,,,,,,,,,,,343.8975358780008,None,2,0.1545264110318385,343.8975358780008,None,,,,,,,,,,,,,,,,None,None,None,,None,None,344.0973284179927,None,1,1,0.5061780050164089,344.0973284179927,None,344.59788008198376,None,None,None,None,,29,001,2023_Jan_24_1119,searchDisc5,2021.2.3,59.80183216428412,
images/exp2a_trial_227_colour1_distractors19_r.png,r,3,1,19,0,,,,,0,96,96,96,,,,,,,,,,,,,,,,,,,,,,,,,,,,,,,,,,,,,,,,,,,344.6163008660078,None,2,0.2202804599655792,344.6163008660078,None,,,,,,,,,,,,,,,,None,None,None,,None,None,344.8805927360081,None,3,1,0.6049465440446511,344.8805927360081,None,345.4806383790099,None,None,None,None,,29,001,2023_Jan_24_1119,searchDisc5,2021.2.3,59.80183216428412,
images/exp2a_trial_240_colour1_distractors4_l.png,l,1,1,4,0,,,,,0,97,97,97,,,,,,,,,,,,,,,,,,,,,,,,,,,,,,,,,,,,,,,,,,,345.49748045101296,None,2,0.18601813400164247,345.49748045101296,None,,,,,,,,,,,,,,,,None,None,None,,None,None,345.732943659008,None,1,1,0.4558111890219152,345.732943659008,None,346.1806801100145,None,None,None,None,,29,001,2023_Jan_24_1119,searchDisc5,2021.2.3,59.80183216428412,
images/exp2b_trial_68_colour1_distractors31_r.png,r,3,1,31,0,,,,,0,98,98,98,,,,,,,,,,,,,,,,,,,,,,,,,,,,,,,,,,,,,,,,,,,346.19961337401764,None,2,0.1905230910051614,346.19961337401764,None,,,,,,,,,,,,,,,,None,None,None,,None,None,346.4328073100187,None,3,1,1.067919022985734,346.4328073100187,None,347.4979524299968,None,None,None,None,,29,001,2023_Jan_24_1119,searchDisc5,2021.2.3,59.80183216428412,
images/exp2b_trial_57_colour3_distractors1_l.png,l,1,3,1,0,,,,,0,99,99,99,,,,,,,,,,,,,,,,,,,,,,,,,,,,,,,,,,,,,,,,,,,347.5142926800181,None,2,0.15445277898106724,347.5142926800181,None,,,,,,,,,,,,,,,,None,None,None,,None,None,347.7167282960145,None,1,1,0.5561267100274563,347.7167282960145,None,348.2647242029896,None,None,None,None,,29,001,2023_Jan_24_1119,searchDisc5,2021.2.3,59.80183216428412,
images/exp2c_trial_36_colour1_distractors31_r.png,r,3,1,31,0,,,,,0,100,100,100,,,,,,,,,,,,,,,,,,,,,,,,,,,,,,,,,,,,,,,,,,,348.2811554829823,None,2,0.22061312099685892,348.2811554829823,None,,,,,,,,,,,,,,,,None,None,None,,None,None,348.55003630003193,None,3,1,0.7696233280003071,348.55003630003193,None,349.3146137039992,None,None,None,None,,29,001,2023_Jan_24_1119,searchDisc5,2021.2.3,59.80183216428412,
images/exp2a_trial_101_colour2_distractors1_r.png,r,3,2,1,0,,,,,0,101,101,101,,,,,,,,,,,,,,,,,,,,,,,,,,,,,,,,,,,,,,,,,,,349.332996534009,None,2,0.17327075102366507,349.332996534009,None,,,,,,,,,,,,,,,,None,None,None,,None,None,349.5495435229968,None,3,1,0.6367668280145153,349.5495435229968,None,350.1813137179823,None,None,None,None,,29,001,2023_Jan_24_1119,searchDisc5,2021.2.3,59.80183216428412,
images/exp2a_trial_54_colour2_distractors9_l.png,l,1,2,9,0,,,,,0,102,102,102,,,,,,,,,,,,,,,,,,,,,,,,,,,,,,,,,,,,,,,,,,,350.1972941480344,None,2,0.10672172298654914,350.1972941480344,None,,,,,,,,,,,,,,,,None,None,None,,None,None,350.34826321701985,None,1,1,0.7319475950207561,350.34826321701985,None,351.0812779120286,None,None,None,None,,29,001,2023_Jan_24_1119,searchDisc5,2021.2.3,59.80183216428412,
images/exp2c_trial_79_colour1_distractors1_l.png,l,1,1,1,0,,,,,0,103,103,103,,,,,,,,,,,,,,,,,,,,,,,,,,,,,,,,,,,,,,,,,,,351.09785483399173,None,2,0.08984663797309622,351.09785483399173,None,,,,,,,,,,,,,,,,None,None,None,,None,None,351.2333998630056,None,1,1,0.6543613250250928,351.2333998630056,None,351.88130127599,None,None,None,None,,29,001,2023_Jan_24_1119,searchDisc5,2021.2.3,59.80183216428412,
images/exp2b_trial_132_colour1_distractors31_r.png,r,3,1,31,0,,,,,0,104,104,104,,,,,,,,,,,,,,,,,,,,,,,,,,,,,,,,,,,,,,,,,,,351.89723023900297,None,2,0.12132575403666124,351.89723023900297,None,,,,,,,,,,,,,,,,None,None,None,,None,None,352.0646431039786,None,3,1,0.6363149009994231,352.0646431039786,None,352.69808476599866,None,None,None,None,,29,001,2023_Jan_24_1119,searchDisc5,2021.2.3,59.80183216428412,
images/exp2b_trial_66_colour1_distractors9_r.png,r,3,1,9,0,,,,,0,105,105,105,,,,,,,,,,,,,,,,,,,,,,,,,,,,,,,,,,,,,,,,,,,352.7165696620359,None,2,0.07108639000216499,352.7165696620359,None,,,,,,,,,,,,,,,,None,None,None,,None,None,352.83166887401603,None,3,1,0.8548375709797256,352.83166887401603,None,353.6813580790302,None,None,None,None,,29,001,2023_Jan_24_1119,searchDisc5,2021.2.3,59.80183216428412,
images/exp2c_trial_278_colour2_distractors9_l.png,l,1,2,9,0,,,,,0,106,106,106,,,,,,,,,,,,,,,,,,,,,,,,,,,,,,,,,,,,,,,,,,,353.69992021803046,None,2,0.056000748998485506,353.69992021803046,None,,,,,,,,,,,,,,,,None,None,None,,None,None,353.79796246101614,None,1,1,0.6864798030001111,353.79796246101614,None,354.48138795602136,None,None,None,None,,29,001,2023_Jan_24_1119,searchDisc5,2021.2.3,59.80183216428412,
images/exp2a_trial_252_colour3_distractors19_l.png,l,1,3,19,0,,,,,0,107,107,107,,,,,,,,,,,,,,,,,,,,,,,,,,,,,,,,,,,,,,,,,,,354.49744275503326,None,2,0.07311440701596439,354.49744275503326,None,,,,,,,,,,,,,,,,None,None,None,,None,None,354.6165944079985,None,1,1,1.0838681909954175,354.6165944079985,None,355.69741944498384,None,None,None,None,,29,001,2023_Jan_24_1119,searchDisc5,2021.2.3,59.80183216428412,
images/exp2c_trial_305_colour1_distractors9_l.png,l,1,1,9,0,,,,,0,108,108,108,,,,,,,,,,,,,,,,,,,,,,,,,,,,,,,,,,,,,,,,,,,355.71455997100566,None,2,0.10680026601767167,355.71455997100566,None,,,,,,,,,,,,,,,,None,None,None,,None,None,355.86476479598787,None,1,1,0.6371856519836001,355.86476479598787,None,356.49813085102943,None,None,None,None,,29,001,2023_Jan_24_1119,searchDisc5,2021.2.3,59.80183216428412,
images/exp2c_trial_161_colour1_distractors4_r.png,r,3,1,4,0,,,,,0,109,109,109,,,,,,,,,,,,,,,,,,,,,,,,,,,,,,,,,,,,,,,,,,,356.51662588497857,None,2,0.10603831196203828,356.51662588497857,None,,,,,,,,,,,,,,,,None,None,None,,None,None,356.6650017860229,None,3,1,0.6736306269885972,356.6650017860229,None,357.33168554301375,None,None,None,None,,29,001,2023_Jan_24_1119,searchDisc5,2021.2.3,59.80183216428412,
images/exp2a_trial_260_colour1_distractors31_r.png,r,3,1,31,0,,,,,0,110,110,110,,,,,,,,,,,,,,,,,,,,,,,,,,,,,,,,,,,,,,,,,,,357.3476461269893,None,2,0.022210746014025062,357.3476461269893,None,,,,,,,,,,,,,,,,None,None,None,,None,None,357.4149705930031,None,3,1,0.8864041939959861,357.4149705930031,None,358.29842706898927,None,None,None,None,,29,001,2023_Jan_24_1119,searchDisc5,2021.2.3,59.80183216428412,
images/exp2c_trial_307_colour1_distractors31_l.png,l,1,1,31,0,,,,,0,111,111,111,,,,,,,,,,,,,,,,,,,,,,,,,,,,,,,,,,,,,,,,,,,358.31454228202347,None,2,0.03766171104507521,358.31454228202347,None,,,,,,,,,,,,,,,,None,None,None,,None,None,358.4003132749931,None,1,1,1.0703692340175621,358.4003132749931,None,359.46501115600114,None,None,None,None,,29,001,2023_Jan_24_1119,searchDisc5,2021.2.3,59.80183216428412,
images/exp2c_trial_21_colour2_distractors4_l.png,l,1,2,4,0,,,,,0,112,112,112,,,,,,,,,,,,,,,,,,,,,,,,,,,,,,,,,,,,,,,,,,,359.4812025880092,None,2,0.13683865097118542,359.4812025880092,None,,,,,,,,,,,,,,,,None,None,None,,None,None,359.6650271299877,None,1,1,0.6555604510358535,359.6650271299877,None,360.3149598760181,None,None,None,None,,29,001,2023_Jan_24_1119,searchDisc5,2021.2.3,59.80183216428412,
images/exp2c_trial_284_colour3_distractors19_l.png,l,1,3,19,0,,,,,0,113,113,113,,,,,,,,,,,,,,,,,,,,,,,,,,,,,,,,,,,,,,,,,,,360.3314905320294,None,2,0.10597560502355918,360.3314905320294,None,,,,,,,,,,,,,,,,None,None,None,,None,None,360.48122160800267,None,1,1,0.68635242205346,360.48122160800267,None,361.1649453149992,None,None,None,None,,29,001,2023_Jan_24_1119,searchDisc5,2021.2.3,59.80183216428412,
images/exp2a_trial_74_colour3_distractors1_r.png,r,3,3,1,0,,,,,0,114,114,114,,,,,,,,,,,,,,,,,,,,,,,,,,,,,,,,,,,,,,,,,,,361.1806253740215,None,2,0.12253276898991317,361.1806253740215,None,,,,,,,,,,,,,,,,None,None,None,,None,None,361.34815786703257,None,3,1,0.6207840110291727,361.34815786703257,None,361.9649965660181,None,None,None,None,,29,001,2023_Jan_24_1119,searchDisc5,2021.2.3,59.80183216428412,
images/exp2a_trial_113_colour1_distractors9_l.png,l,1,1,9,0,,,,,0,115,115,115,,,,,,,,,,,,,,,,,,,,,,,,,,,,,,,,,,,,,,,,,,,361.98334934999,None,2,0.08778586401604116,361.98334934999,None,,,,,,,,,,,,,,,,None,None,None,,None,None,362.1150812819833,None,1,1,0.6550276670022868,362.1150812819833,None,362.76498882898596,None,None,None,None,,29,001,2023_Jan_24_1119,searchDisc5,2021.2.3,59.80183216428412,
images/exp2c_trial_123_colour3_distractors9_l.png,l,1,3,9,0,,,,,0,116,116,116,,,,,,,,,,,,,,,,,,,,,,,,,,,,,,,,,,,,,,,,,,,362.7809537150315,None,2,0.12117768597090617,362.7809537150315,None,,,,,,,,,,,,,,,,None,None,None,,None,None,362.94839407800464,None,3,0,0.6383422199869528,362.94839407800464,None,363.58186807001476,None,None,None,None,,29,001,2023_Jan_24_1119,searchDisc5,2021.2.3,59.80183216428412,
images/exp2b_trial_72_colour2_distractors19_r.png,r,3,2,19,0,,,,,0,117,117,117,,,,,,,,,,,,,,,,,,,,,,,,,,,,,,,,,,,,,,,,,,,363.5975285570021,None,2,0.12096782500157133,363.5975285570021,None,,,,,,,,,,,,,,,,None,None,None,,None,None,363.76439871801995,None,3,1,1.9367708149948157,363.76439871801995,None,365.69831374003553,None,None,None,None,,29,001,2023_Jan_24_1119,searchDisc5,2021.2.3,59.80183216428412,
images/exp2c_trial_12_colour3_distractors9_r.png,r,3,3,9,0,,,,,0,118,118,118,,,,,,,,,,,,,,,,,,,,,,,,,,,,,,,,,,,,,,,,,,,365.71434898802545,None,2,1.6381563449976966,365.71434898802545,None,,,,,,,,,,,,,,,,None,None,None,,None,None,367.3985224550124,None,3,1,1.3884420319809578,367.3985224550124,None,368.7819979920285,None,None,None,None,,29,001,2023_Jan_24_1119,searchDisc5,2021.2.3,59.80183216428412,
images/exp2a_trial_199_colour2_distractors9_r.png,r,3,2,9,0,,,,,0,119,119,119,,,,,,,,,,,,,,,,,,,,,,,,,,,,,,,,,,,,,,,,,,,368.79811373201665,None,2,1.1208514810423367,368.79811373201665,None,,,,,,,,,,,,,,,,None,None,None,,None,None,369.9672760909889,None,3,1,0.584967628994491,369.9672760909889,None,370.5484946480254,None,None,None,None,,29,001,2023_Jan_24_1119,searchDisc5,2021.2.3,59.80183216428412,
images/exp1a_trial_188_colour3_distractors19_l.png,l,1,3,19,0,,,,,0,120,120,120,,,,,,,,,,,,,,,,,,,,,,,,,,,,,,,,,,,,,,,,,,,370.5650267020101,None,2,0.47268001502379775,370.5650267020101,None,,,,,,,,,,,,,,,,None,None,None,,None,None,371.0814188160002,None,1,1,0.71827122598188,371.0814188160002,None,371.79877013399965,None,None,None,None,,29,001,2023_Jan_24_1119,searchDisc5,2021.2.3,59.80183216428412,
images/exp2c_trial_110_colour3_distractors31_r.png,r,3,3,31,0,,,,,0,121,121,121,,,,,,,,,,,,,,,,,,,,,,,,,,,,,,,,,,,,,,,,,,,371.8151643020101,None,2,0.35396939201746136,371.8151643020101,None,,,,,,,,,,,,,,,,None,None,None,,None,None,372.21511479699984,None,3,1,0.8526177500025369,372.21511479699984,None,373.0651166099822,None,None,None,None,,29,001,2023_Jan_24_1119,searchDisc5,2021.2.3,59.80183216428412,
images/exp2b_trial_228_colour1_distractors31_r.png,r,3,1,31,0,,,,,0,122,122,122,,,,,,,,,,,,,,,,,,,,,,,,,,,,,,,,,,,,,,,,,,,373.08166279800935,None,2,0.30552697100210935,373.08166279800935,None,,,,,,,,,,,,,,,,None,None,None,,None,None,373.43126186402515,None,3,1,0.7857175350072794,373.43126186402515,None,374.2148269920261,None,None,None,None,,29,001,2023_Jan_24_1119,searchDisc5,2021.2.3,59.80183216428412,
images/exp2a_trial_211_colour1_distractors31_l.png,l,1,1,31,0,,,,,0,123,123,123,,,,,,,,,,,,,,,,,,,,,,,,,,,,,,,,,,,,,,,,,,,374.23369419702794,None,2,0.2381428790395148,374.23369419702794,None,,,,,,,,,,,,,,,,None,None,None,,None,None,374.5153795920196,None,1,1,0.7528089749976061,374.5153795920196,None,375.26475816401654,None,None,None,None,,29,001,2023_Jan_24_1119,searchDisc5,2021.2.3,59.80183216428412,
images/exp2c_trial_132_colour1_distractors31_r.png,r,3,1,31,0,,,,,0,124,124,124,,,,,,,,,,,,,,,,,,,,,,,,,,,,,,,,,,,,,,,,,,,375.2818586170324,None,2,0.24058754998259246,375.2818586170324,None,,,,,,,,,,,,,,,,None,None,None,,None,None,375.565362939029,None,3,1,0.5839649779954925,375.565362939029,None,376.1487318950356,None,None,None,None,,29,001,2023_Jan_24_1119,searchDisc5,2021.2.3,59.80183216428412,
images/exp1a_trial_94_colour0_distractors0_r.png,r,3,0,0,0,,,,,0,125,125,125,,,,,,,,,,,,,,,,,,,,,,,,,,,,,,,,,,,,,,,,,,,376.1648104470223,None,2,0.2710166710312478,376.1648104470223,None,,,,,,,,,,,,,,,,None,None,None,,None,None,376.48135651502525,None,3,1,0.6231832659686916,376.48135651502525,None,377.09878911800917,None,None,None,None,,29,001,2023_Jan_24_1119,searchDisc5,2021.2.3,59.80183216428412,
images/exp1a_trial_125_colour3_distractors31_l.png,l,1,3,31,0,,,,,0,126,126,126,,,,,,,,,,,,,,,,,,,,,,,,,,,,,,,,,,,,,,,,,,,377.1150901510264,None,2,0.22283462999621406,377.1150901510264,None,,,,,,,,,,,,,,,,None,None,None,,None,None,377.38410462101456,None,1,1,0.6482696220045909,377.38410462101456,None,378.0320618170197,None,None,None,None,,29,001,2023_Jan_24_1119,searchDisc5,2021.2.3,59.80183216428412,
images/exp2a_trial_40_colour2_distractors19_r.png,r,3,2,19,0,,,,,0,127,127,127,,,,,,,,,,,,,,,,,,,,,,,,,,,,,,,,,,,,,,,,,,,378.04793695698027,None,2,0.22328311001183465,378.04793695698027,None,,,,,,,,,,,,,,,,None,None,None,,None,None,378.31955436902354,None,3,1,1.0624746090034023,378.31955436902354,None,379.38233282499715,None,None,None,None,,29,001,2023_Jan_24_1119,searchDisc5,2021.2.3,59.80183216428412,
images/exp2c_trial_216_colour2_distractors31_l.png,l,1,2,31,0,,,,,0,128,128,128,,,,,,,,,,,,,,,,,,,,,,,,,,,,,,,,,,,,,,,,,,,379.3982641340117,None,2,0.2064461520058103,379.3982641340117,None,,,,,,,,,,,,,,,,None,None,None,,None,None,379.6505400459864,None,1,1,0.66927176900208,379.6505400459864,None,380.3154083269881,None,None,None,None,,29,001,2023_Jan_24_1119,searchDisc5,2021.2.3,59.80183216428412,
images/exp2a_trial_21_colour2_distractors4_l.png,l,1,2,4,0,,,,,0,129,129,129,,,,,,,,,,,,,,,,,,,,,,,,,,,,,,,,,,,,,,,,,,,380.3313573609921,None,2,0.20674572797724977,380.3313573609921,None,,,,,,,,,,,,,,,,None,None,None,,None,None,380.5833626019885,None,1,1,0.8040208669845015,380.5833626019885,None,381.3822900370113,None,None,None,None,,29,001,2023_Jan_24_1119,searchDisc5,2021.2.3,59.80183216428412,
images/exp2c_trial_89_colour3_distractors1_l.png,l,1,3,1,0,,,,,0,130,130,130,,,,,,,,,,,,,,,,,,,,,,,,,,,,,,,,,,,,,,,,,,,381.3985399110243,None,2,0.13554805499734357,381.3985399110243,None,,,,,,,,,,,,,,,,None,None,None,,None,None,381.581784842012,None,1,1,0.7398446580045857,381.581784842012,None,382.31552198501305,None,None,None,None,,29,001,2023_Jan_24_1119,searchDisc5,2021.2.3,59.80183216428412,
images/exp2c_trial_279_colour2_distractors19_l.png,l,1,2,19,0,,,,,0,131,131,131,,,,,,,,,,,,,,,,,,,,,,,,,,,,,,,,,,,,,,,,,,,382.33147705800366,None,2,0.13788315001875162,382.33147705800366,None,,,,,,,,,,,,,,,,None,None,None,,None,None,382.5175203860272,None,1,1,0.670269760012161,382.5175203860272,None,383.1819334030268,None,None,None,None,,29,001,2023_Jan_24_1119,searchDisc5,2021.2.3,59.80183216428412,
images/exp2b_trial_175_colour1_distractors1_l.png,l,1,1,1,0,,,,,0,132,132,132,,,,,,,,,,,,,,,,,,,,,,,,,,,,,,,,,,,,,,,,,,,383.19823666702723,None,2,0.1545611409819685,383.19823666702723,None,,,,,,,,,,,,,,,,None,None,None,,None,None,383.40025615599006,None,1,1,0.8735186139820144,383.40025615599006,None,384.26549628901995,None,None,None,None,,29,001,2023_Jan_24_1119,searchDisc5,2021.2.3,59.80183216428412,
images/exp2a_trial_241_colour1_distractors9_l.png,l,1,1,9,0,,,,,0,133,133,133,,,,,,,,,,,,,,,,,,,,,,,,,,,,,,,,,,,,,,,,,,,384.28373456798727,None,2,0.13788544299313799,384.28373456798727,None,,,,,,,,,,,,,,,,None,None,None,,None,None,384.46763842803193,None,1,1,0.6887416620156728,384.46763842803193,None,385.14899560001214,None,None,None,None,,29,001,2023_Jan_24_1119,searchDisc5,2021.2.3,59.80183216428412,
images/exp2c_trial_255_colour0_distractors0_l.png,l,1,0,0,0,,,,,0,134,134,134,,,,,,,,,,,,,,,,,,,,,,,,,,,,,,,,,,,,,,,,,,,385.16673395602265,None,2,0.12104885902954265,385.16673395602265,None,,,,,,,,,,,,,,,,None,None,None,,None,None,385.3229011850199,None,1,1,0.5419881949783303,385.3229011850199,None,385.8655803080299,None,None,None,None,,29,001,2023_Jan_24_1119,searchDisc5,2021.2.3,59.80183216428412,
images/exp1a_trial_134_colour2_distractors4_r.png,r,3,2,4,0,,,,,0,135,135,135,,,,,,,,,,,,,,,,,,,,,,,,,,,,,,,,,,,,,,,,,,,385.882069918036,None,2,0.12328208994586021,385.882069918036,None,,,,,,,,,,,,,,,,None,None,None,,None,None,386.0491130980081,None,3,1,0.888027191045694,386.0491130980081,None,386.9324500589981,None,None,None,None,,29,001,2023_Jan_24_1119,searchDisc5,2021.2.3,59.80183216428412,
images/exp2c_trial_224_colour1_distractors1_r.png,r,3,1,1,0,,,,,0,136,136,136,,,,,,,,,,,,,,,,,,,,,,,,,,,,,,,,,,,,,,,,,,,386.9486153650214,None,2,0.1877773889573291,386.9486153650214,None,,,,,,,,,,,,,,,,None,None,None,,None,None,387.1843669160153,None,1,0,0.8746015790384263,387.1843669160153,None,388.0491049980163,None,None,None,None,,29,001,2023_Jan_24_1119,searchDisc5,2021.2.3,59.80183216428412,
images/exp1a_trial_128_colour1_distractors1_r.png,r,3,1,1,0,,,,,0,137,137,137,,,,,,,,,,,,,,,,,,,,,,,,,,,,,,,,,,,,,,,,,,,388.0675841260236,None,2,0.15437902102712542,388.0675841260236,None,,,,,,,,,,,,,,,,None,None,None,,None,None,388.2677876899834,None,3,1,1.1721215990255587,388.2677876899834,None,389.43192394003273,None,None,None,None,,29,001,2023_Jan_24_1119,searchDisc5,2021.2.3,59.80183216428412,
images/exp2b_trial_21_colour2_distractors4_l.png,l,1,2,4,0,,,,,0,138,138,138,,,,,,,,,,,,,,,,,,,,,,,,,,,,,,,,,,,,,,,,,,,389.448295840004,None,2,0.1714294179691933,389.448295840004,None,,,,,,,,,,,,,,,,None,None,None,,None,None,389.6674114250345,None,1,1,0.8389767520129681,389.6674114250345,None,390.49905656098855,None,None,None,None,,29,001,2023_Jan_24_1119,searchDisc5,2021.2.3,59.80183216428412,
images/exp2c_trial_246_colour2_distractors9_l.png,l,1,2,9,0,,,,,0,139,139,139,,,,,,,,,,,,,,,,,,,,,,,,,,,,,,,,,,,,,,,,,,,390.5150876850239,None,2,0.17094114294741303,390.5150876850239,None,,,,,,,,,,,,,,,,None,None,None,,None,None,390.73428952199174,None,1,1,0.7216697090188973,390.73428952199174,None,391.449085188983,None,None,None,None,,29,001,2023_Jan_24_1119,searchDisc5,2021.2.3,59.80183216428412,
images/exp2c_trial_16_colour1_distractors4_l.png,l,1,1,4,0,,,,,0,140,140,140,,,,,,,,,,,,,,,,,,,,,,,,,,,,,,,,,,,,,,,,,,,391.4654336780077,None,2,0.1379671739996411,391.4654336780077,None,,,,,,,,,,,,,,,,None,None,None,,None,None,391.6494410529849,None,1,1,0.789029503997881,391.6494410529849,None,392.43234512403143,None,None,None,None,,29,001,2023_Jan_24_1119,searchDisc5,2021.2.3,59.80183216428412,
images/exp1a_trial_167_colour2_distractors9_r.png,r,3,2,9,0,,,,,0,141,141,141,,,,,,,,,,,,,,,,,,,,,,,,,,,,,,,,,,,,,,,,,,,392.4488318649819,None,2,0.15364014101214707,392.4488318649819,None,,,,,,,,,,,,,,,,None,None,None,,None,None,392.6492558789905,None,3,1,0.7206639400101267,392.6492558789905,None,393.3658748020069,None,None,None,None,,29,001,2023_Jan_24_1119,searchDisc5,2021.2.3,59.80183216428412,
images/exp2b_trial_97_colour1_distractors4_r.png,r,3,1,4,0,,,,,0,142,142,142,,,,,,,,,,,,,,,,,,,,,,,,,,,,,,,,,,,,,,,,,,,393.3819336470333,None,2,0.20643650798592716,393.3819336470333,None,,,,,,,,,,,,,,,,None,None,None,,None,None,393.63456866698107,None,3,1,0.820457505993545,393.63456866698107,None,394.4494135989924,None,None,None,None,,29,001,2023_Jan_24_1119,searchDisc5,2021.2.3,59.80183216428412,
images/exp2b_trial_316_colour3_distractors19_l.png,l,1,3,19,0,,,,,0,143,143,143,,,,,,,,,,,,,,,,,,,,,,,,,,,,,,,,,,,,,,,,,,,394.4655141319963,None,2,0.15632921701762825,394.4655141319963,None,,,,,,,,,,,,,,,,None,None,None,,None,None,394.66777552699205,None,1,1,0.9664118589716963,394.66777552699205,None,395.6319048890262,None,None,None,None,,29,001,2023_Jan_24_1119,searchDisc5,2021.2.3,59.80183216428412,
images/exp2c_trial_317_colour3_distractors31_l.png,l,1,3,31,0,,,,,0,144,144,144,,,,,,,,,,,,,,,,,,,,,,,,,,,,,,,,,,,,,,,,,,,395.6489229010185,None,2,0.091476985020563,395.6489229010185,None,,,,,,,,,,,,,,,,None,None,None,,None,None,395.78457271202933,None,1,1,0.8676420879783109,395.78457271202933,None,396.6490873760311,None,None,None,None,,29,001,2023_Jan_24_1119,searchDisc5,2021.2.3,59.80183216428412,
images/exp2a_trial_51_colour1_distractors31_l.png,l,1,1,31,0,,,,,0,145,145,145,,,,,,,,,,,,,,,,,,,,,,,,,,,,,,,,,,,,,,,,,,,396.6654854899971,None,2,0.10415017802733928,396.6654854899971,None,,,,,,,,,,,,,,,,None,None,None,,None,None,396.817537970026,None,1,1,0.8486713470192626,396.817537970026,None,397.6660024069832,None,None,None,None,,29,001,2023_Jan_24_1119,searchDisc5,2021.2.3,59.80183216428412,
images/exp2c_trial_175_colour1_distractors1_l.png,l,1,1,1,0,,,,,0,146,146,146,,,,,,,,,,,,,,,,,,,,,,,,,,,,,,,,,,,,,,,,,,,397.6842722900328,None,2,0.18899593799142167,397.6842722900328,None,,,,,,,,,,,,,,,,None,None,None,,None,None,397.9178227020311,None,1,1,0.6708436079788953,397.9178227020311,None,398.5825367770274,None,None,None,None,,29,001,2023_Jan_24_1119,searchDisc5,2021.2.3,59.80183216428412,
images/exp2c_trial_296_colour2_distractors19_r.png,r,3,2,19,0,,,,,0,147,147,147,,,,,,,,,,,,,,,,,,,,,,,,,,,,,,,,,,,,,,,,,,,398.5985995819792,None,2,0.13781904696952552,398.5985995819792,None,,,,,,,,,,,,,,,,None,None,None,,None,None,398.78462992602726,None,3,1,0.9883430649642833,398.78462992602726,None,399.7659470830229,None,None,None,None,,29,001,2023_Jan_24_1119,searchDisc5,2021.2.3,59.80183216428412,
images/exp2a_trial_107_colour3_distractors4_r.png,r,3,3,4,0,,,,,0,148,148,148,,,,,,,,,,,,,,,,,,,,,,,,,,,,,,,,,,,,,,,,,,,399.78173186600907,None,2,0.13634297403041273,399.78173186600907,None,,,,,,,,,,,,,,,,None,None,None,,None,None,399.96589756401954,None,3,1,0.7065059590386227,399.96589756401954,None,400.6653494489845,None,None,None,None,,29,001,2023_Jan_24_1119,searchDisc5,2021.2.3,59.80183216428412,
images/exp2b_trial_306_colour1_distractors19_l.png,l,1,1,19,0,,,,,0,149,149,149,,,,,,,,,,,,,,,,,,,,,,,,,,,,,,,,,,,,,,,,,,,400.68237085599685,None,2,0.13634671497857198,400.68237085599685,None,,,,,,,,,,,,,,,,None,None,None,,None,None,400.86802384402836,None,1,1,1.0378241050057113,400.86802384402836,None,401.8996775730164,None,None,None,None,,29,001,2023_Jan_24_1119,searchDisc5,2021.2.3,59.80183216428412,
images/exp2c_trial_108_colour3_distractors9_r.png,r,3,3,9,0,,,,,0,150,150,150,,,,,,,,,,,,,,,,,,,,,,,,,,,,,,,,,,,,,,,,,,,401.915636877995,None,2,0.9041976350126788,401.915636877995,None,,,,,,,,,,,,,,,,None,None,None,,None,None,402.86609593301546,None,3,1,0.8214951189584099,402.86609593301546,None,403.68299220899354,None,None,None,None,,29,001,2023_Jan_24_1119,searchDisc5,2021.2.3,59.80183216428412,
images/exp2b_trial_247_colour2_distractors19_l.png,l,1,2,19,0,,,,,0,151,151,151,,,,,,,,,,,,,,,,,,,,,,,,,,,,,,,,,,,,,,,,,,,403.6990456210333,None,2,0.17085825401591137,403.6990456210333,None,,,,,,,,,,,,,,,,None,None,None,,None,None,403.9176583759836,None,1,1,0.7870293979649432,403.9176583759836,None,404.69874222502114,None,None,None,None,,29,001,2023_Jan_24_1119,searchDisc5,2021.2.3,59.80183216428412,
images/exp2b_trial_88_colour2_distractors31_l.png,l,1,2,31,0,,,,,0,152,152,152,,,,,,,,,,,,,,,,,,,,,,,,,,,,,,,,,,,,,,,,,,,404.7159415149945,None,2,0.17173792602261528,404.7159415149945,None,,,,,,,,,,,,,,,,None,None,None,,None,None,404.934462152014,None,1,1,0.8027094309800304,404.934462152014,None,405.73276672199137,None,None,None,None,,29,001,2023_Jan_24_1119,searchDisc5,2021.2.3,59.80183216428412,
images/exp2c_trial_118_colour2_distractors9_l.png,l,1,2,9,0,,,,,0,153,153,153,,,,,,,,,,,,,,,,,,,,,,,,,,,,,,,,,,,,,,,,,,,405.74860480002826,None,2,0.122460983984638,405.74860480002826,None,,,,,,,,,,,,,,,,None,None,None,,None,None,405.9177072059829,None,1,1,0.6532869900111109,405.9177072059829,None,406.56610838598573,None,None,None,None,,29,001,2023_Jan_24_1119,searchDisc5,2021.2.3,59.80183216428412,
images/exp2a_trial_148_colour2_distractors1_l.png,l,1,2,1,0,,,,,0,154,154,154,,,,,,,,,,,,,,,,,,,,,,,,,,,,,,,,,,,,,,,,,,,406.58246750500984,None,2,0.12151248700683936,406.58246750500984,None,,,,,,,,,,,,,,,,None,None,None,,None,None,406.7488181950175,None,1,1,0.7722413880401291,406.7488181950175,None,407.51607488999144,None,None,None,None,,29,001,2023_Jan_24_1119,searchDisc5,2021.2.3,59.80183216428412,
images/exp2b_trial_185_colour3_distractors1_l.png,l,1,3,1,0,,,,,0,155,155,155,,,,,,,,,,,,,,,,,,,,,,,,,,,,,,,,,,,,,,,,,,,407.5325329609914,None,2,0.12119245901703835,407.5325329609914,None,,,,,,,,,,,,,,,,None,None,None,,None,None,407.68329868,None,1,1,0.7938612430007197,407.68329868,None,408.48287714599866,None,None,None,None,,29,001,2023_Jan_24_1119,searchDisc5,2021.2.3,59.80183216428412,
images/exp1a_trial_193_colour1_distractors4_r.png,r,3,1,4,0,,,,,0,156,156,156,,,,,,,,,,,,,,,,,,,,,,,,,,,,,,,,,,,,,,,,,,,408.4990607040236,None,2,0.11933674302417785,408.4990607040236,None,,,,,,,,,,,,,,,,None,None,None,,None,None,408.6663822589908,None,3,1,0.7548596779815853,408.6663822589908,None,409.41623605899514,None,None,None,None,,29,001,2023_Jan_24_1119,searchDisc5,2021.2.3,59.80183216428412,
images/exp2c_trial_304_colour1_distractors4_l.png,l,1,1,4,0,,,,,0,157,157,157,,,,,,,,,,,,,,,,,,,,,,,,,,,,,,,,,,,,,,,,,,,409.4326825530152,None,2,0.1378040820127353,409.4326825530152,None,,,,,,,,,,,,,,,,None,None,None,,None,None,409.61824884900125,None,1,1,0.6554850590182468,409.61824884900125,None,410.2664056900074,None,None,None,None,,29,001,2023_Jan_24_1119,searchDisc5,2021.2.3,59.80183216428412,
images/exp1a_trial_234_colour3_distractors1_r.png,r,3,3,1,0,,,,,0,158,158,158,,,,,,,,,,,,,,,,,,,,,,,,,,,,,,,,,,,,,,,,,,,410.28259320301004,None,2,0.15430412802379578,410.28259320301004,None,,,,,,,,,,,,,,,,None,None,None,,None,None,410.4829389069928,None,3,1,0.6732290929649025,410.4829389069928,None,411.1497389300028,None,None,None,None,,29,001,2023_Jan_24_1119,searchDisc5,2021.2.3,59.80183216428412,
images/exp2c_trial_86_colour2_distractors9_l.png,l,1,2,9,0,,,,,0,159,159,159,,,,,,,,,,,,,,,,,,,,,,,,,,,,,,,,,,,,,,,,,,,411.1656356099993,None,2,0.1712192880222574,411.1656356099993,None,,,,,,,,,,,,,,,,None,None,None,,None,None,411.3831997939851,None,1,1,0.7567695929901674,411.3831997939851,None,412.1330578739988,None,None,None,None,,29,001,2023_Jan_24_1119,searchDisc5,2021.2.3,59.80183216428412,
images/exp2a_trial_246_colour2_distractors9_l.png,l,1,2,9,0,,,,,0,160,160,160,,,,,,,,,,,,,,,,,,,,,,,,,,,,,,,,,,,,,,,,,,,412.14932329702424,None,2,0.1859032850479707,412.14932329702424,None,,,,,,,,,,,,,,,,None,None,None,,None,None,412.3842439990258,None,1,1,0.9516725729918107,412.3842439990258,None,413.3330748779816,None,None,None,None,,29,001,2023_Jan_24_1119,searchDisc5,2021.2.3,59.80183216428412,
images/exp1a_trial_291_colour1_distractors19_r.png,r,3,1,19,0,,,,,0,161,161,161,,,,,,,,,,,,,,,,,,,,,,,,,,,,,,,,,,,,,,,,,,,413.35145643301075,None,2,0.1379234659834765,413.35145643301075,None,,,,,,,,,,,,,,,,None,None,None,,None,None,413.53432422102196,None,3,1,0.6515670090448111,413.53432422102196,None,414.1830533610308,None,None,None,None,,29,001,2023_Jan_24_1119,searchDisc5,2021.2.3,59.80183216428412,
images/exp2c_trial_238_colour3_distractors31_r.png,r,3,3,31,0,,,,,0,162,162,162,,,,,,,,,,,,,,,,,,,,,,,,,,,,,,,,,,,,,,,,,,,414.19937715597916,None,2,0.12019554001744837,414.19937715597916,None,,,,,,,,,,,,,,,,None,None,None,,None,None,414.36644782300573,None,3,1,1.003673731989693,414.36644782300573,None,415.3663149239845,None,None,None,None,,29,001,2023_Jan_24_1119,searchDisc5,2021.2.3,59.80183216428412,
images/exp2c_trial_277_colour2_distractors4_l.png,l,1,2,4,0,,,,,0,163,163,163,,,,,,,,,,,,,,,,,,,,,,,,,,,,,,,,,,,,,,,,,,,415.38450891303364,None,2,0.1066016869735904,415.38450891303364,None,,,,,,,,,,,,,,,,None,None,None,,None,None,415.53306152502773,None,1,1,1.1205823750351556,415.53306152502773,None,416.6499345050077,None,None,None,None,,29,001,2023_Jan_24_1119,searchDisc5,2021.2.3,59.80183216428412,
images/exp2b_trial_148_colour2_distractors1_l.png,l,1,2,1,0,,,,,0,164,164,164,,,,,,,,,,,,,,,,,,,,,,,,,,,,,,,,,,,,,,,,,,,416.6659736559959,None,2,0.10651670902734622,416.6659736559959,None,,,,,,,,,,,,,,,,None,None,None,,None,None,416.816434377979,None,1,1,0.7375750599894673,416.816434377979,None,417.54988117802424,None,None,None,None,,29,001,2023_Jan_24_1119,searchDisc5,2021.2.3,59.80183216428412,
images/exp2c_trial_209_colour1_distractors9_l.png,l,1,1,9,0,,,,,0,165,165,165,,,,,,,,,,,,,,,,,,,,,,,,,,,,,,,,,,,,,,,,,,,417.56585185899166,None,2,0.07328741496894509,417.56585185899166,None,,,,,,,,,,,,,,,,None,None,None,,None,None,417.6850193089922,None,1,1,0.685986635973677,417.6850193089922,None,418.3659571629949,None,None,None,None,,29,001,2023_Jan_24_1119,searchDisc5,2021.2.3,59.80183216428412,
images/exp2a_trial_37_colour2_distractors1_r.png,r,3,2,1,0,,,,,0,166,166,166,,,,,,,,,,,,,,,,,,,,,,,,,,,,,,,,,,,,,,,,,,,418.38511327898595,None,2,0.07160157704493031,418.38511327898595,None,,,,,,,,,,,,,,,,None,None,None,,None,None,418.4995319719892,None,3,1,0.8712516779778525,418.4995319719892,None,419.3658147580107,None,None,None,None,,29,001,2023_Jan_24_1119,searchDisc5,2021.2.3,59.80183216428412,
images/exp1a_trial_290_colour1_distractors9_r.png,r,3,1,9,0,,,,,0,167,167,167,,,,,,,,,,,,,,,,,,,,,,,,,,,,,,,,,,,,,,,,,,,419.38284914102405,None,2,0.10661212500417605,419.38284914102405,None,,,,,,,,,,,,,,,,None,None,None,,None,None,419.53482675302075,None,3,1,0.9023133540176786,419.53482675302075,None,420.43324429403293,None,None,None,None,,29,001,2023_Jan_24_1119,searchDisc5,2021.2.3,59.80183216428412,
images/exp2b_trial_261_colour2_distractors1_r.png,r,3,2,1,0,,,,,0,168,168,168,,,,,,,,,,,,,,,,,,,,,,,,,,,,,,,,,,,,,,,,,,,420.44909184402786,None,2,0.09001401899149641,420.44909184402786,None,,,,,,,,,,,,,,,,None,None,None,,None,None,420.58254224201664,None,3,1,0.7045981609844603,420.58254224201664,None,421.2831805889844,None,None,None,None,,29,001,2023_Jan_24_1119,searchDisc5,2021.2.3,59.80183216428412,
images/exp2c_trial_192_colour1_distractors1_r.png,r,3,1,1,0,,,,,0,169,169,169,,,,,,,,,,,,,,,,,,,,,,,,,,,,,,,,,,,,,,,,,,,421.3009178499924,None,2,0.0571208149776794,421.3009178499924,None,,,,,,,,,,,,,,,,None,None,None,,None,None,421.3998974119895,None,3,1,0.7861075670225546,421.3998974119895,None,422.18315643399256,None,None,None,None,,29,001,2023_Jan_24_1119,searchDisc5,2021.2.3,59.80183216428412,
images/exp2a_trial_163_colour1_distractors19_r.png,r,3,1,19,0,,,,,0,170,170,170,,,,,,,,,,,,,,,,,,,,,,,,,,,,,,,,,,,,,,,,,,,422.19970575900516,None,2,0.05747753498144448,422.19970575900516,None,,,,,,,,,,,,,,,,None,None,None,,None,None,422.302117077983,None,3,1,1.034060743986629,422.302117077983,None,423.33327692701715,None,None,None,None,,29,001,2023_Jan_24_1119,searchDisc5,2021.2.3,59.80183216428412,
images/exp1a_trial_253_colour3_distractors31_l.png,l,1,3,31,0,,,,,0,171,171,171,,,,,,,,,,,,,,,,,,,,,,,,,,,,,,,,,,,,,,,,,,,423.349318683031,None,2,0.12327368604019284,423.349318683031,None,,,,,,,,,,,,,,,,None,None,None,,None,None,423.51615891000256,None,1,1,0.7640832319739275,423.51615891000256,None,424.2832165670232,None,None,None,None,,29,001,2023_Jan_24_1119,searchDisc5,2021.2.3,59.80183216428412,
images/exp2b_trial_54_colour2_distractors9_l.png,l,1,2,9,0,,,,,0,172,172,172,,,,,,,,,,,,,,,,,,,,,,,,,,,,,,,,,,,,,,,,,,,424.29922840202926,None,2,0.12138929299544543,424.29922840202926,None,,,,,,,,,,,,,,,,None,None,None,,None,None,424.46624373900704,None,1,1,0.8396369580295868,424.46624373900704,None,425.29997952202103,None,None,None,None,,29,001,2023_Jan_24_1119,searchDisc5,2021.2.3,59.80183216428412,
images/exp2c_trial_221_colour3_distractors31_l.png,l,1,3,31,0,,,,,0,173,173,173,,,,,,,,,,,,,,,,,,,,,,,,,,,,,,,,,,,,,,,,,,,425.31590846402105,None,2,0.08987285901093856,425.31590846402105,None,,,,,,,,,,,,,,,,None,None,None,,None,None,425.4520152080222,None,1,1,0.834251836000476,425.4520152080222,None,426.2832792999805,None,None,None,None,,29,001,2023_Jan_24_1119,searchDisc5,2021.2.3,59.80183216428412,
images/exp2c_trial_56_colour2_distractors31_l.png,l,1,2,31,0,,,,,0,174,174,174,,,,,,,,,,,,,,,,,,,,,,,,,,,,,,,,,,,,,,,,,,,426.2992938029929,None,2,0.08770458801882342,426.2992938029929,None,,,,,,,,,,,,,,,,None,None,None,,None,None,426.43338263599435,None,1,1,0.7366425630170852,426.43338263599435,None,427.166723929008,None,None,None,None,,29,001,2023_Jan_24_1119,searchDisc5,2021.2.3,59.80183216428412,
images/exp2b_trial_234_colour3_distractors1_r.png,r,3,3,1,0,,,,,0,175,175,175,,,,,,,,,,,,,,,,,,,,,,,,,,,,,,,,,,,,,,,,,,,427.18517751200125,None,2,0.08795661700423807,427.18517751200125,None,,,,,,,,,,,,,,,,None,None,None,,None,None,427.3164256599848,None,3,1,0.9221029639593326,427.3164256599848,None,428.23305845803117,None,None,None,None,,29,001,2023_Jan_24_1119,searchDisc5,2021.2.3,59.80183216428412,
images/exp2a_trial_284_colour3_distractors19_l.png,l,1,3,19,0,,,,,0,176,176,176,,,,,,,,,,,,,,,,,,,,,,,,,,,,,,,,,,,,,,,,,,,428.2519807019853,None,2,0.13727581995772198,428.2519807019853,None,,,,,,,,,,,,,,,,None,None,None,,None,None,428.43549401999917,None,1,1,0.6871186060016043,428.43549401999917,None,429.1169228020124,None,None,None,None,,29,001,2023_Jan_24_1119,searchDisc5,2021.2.3,59.80183216428412,
images/exp2b_trial_199_colour2_distractors9_r.png,r,3,2,9,0,,,,,0,177,177,177,,,,,,,,,,,,,,,,,,,,,,,,,,,,,,,,,,,,,,,,,,,429.1352679510019,None,2,0.10441858496051282,429.1352679510019,None,,,,,,,,,,,,,,,,None,None,None,,None,None,429.2834074830171,None,3,1,0.8880126819713041,429.2834074830171,None,430.16681623302867,None,None,None,None,,29,001,2023_Jan_24_1119,searchDisc5,2021.2.3,59.80183216428412,
images/exp2b_trial_249_colour3_distractors1_l.png,l,1,3,1,0,,,,,0,178,178,178,,,,,,,,,,,,,,,,,,,,,,,,,,,,,,,,,,,,,,,,,,,430.18327241699444,None,2,0.07356369902845472,430.18327241699444,None,,,,,,,,,,,,,,,,None,None,None,,None,None,430.30014420399675,None,1,1,0.72073103900766,430.30014420399675,None,431.0168390530278,None,None,None,None,,29,001,2023_Jan_24_1119,searchDisc5,2021.2.3,59.80183216428412,
images/exp2c_trial_303_colour1_distractors1_l.png,l,1,1,1,0,,,,,0,179,179,179,,,,,,,,,,,,,,,,,,,,,,,,,,,,,,,,,,,,,,,,,,,431.03326780203497,None,2,0.08990822802297771,431.03326780203497,None,,,,,,,,,,,,,,,,None,None,None,,None,None,431.1666518240236,None,1,1,0.6404413020354696,431.1666518240236,None,431.8003023130121,None,None,None,None,,29,001,2023_Jan_24_1119,searchDisc5,2021.2.3,59.80183216428412,
images/exp1a_trial_70_colour2_distractors4_r.png,r,3,2,4,0,,,,,0,180,180,180,,,,,,,,,,,,,,,,,,,,,,,,,,,,,,,,,,,,,,,,,,,431.81648703099927,None,2,0.03647351200925186,431.81648703099927,None,,,,,,,,,,,,,,,,None,None,None,,None,None,431.9017683779821,None,3,1,0.7879544629831798,431.9017683779821,None,432.68360913202633,None,None,None,None,,29,001,2023_Jan_24_1119,searchDisc5,2021.2.3,59.80183216428412,
images/exp1a_trial_232_colour2_distractors19_r.png,r,3,2,19,0,,,,,0,181,181,181,,,,,,,,,,,,,,,,,,,,,,,,,,,,,,,,,,,,,,,,,,,432.69994813302765,None,2,0.10651881102239713,432.69994813302765,None,,,,,,,,,,,,,,,,None,None,None,,None,None,432.852185841999,None,3,1,0.6503633440006524,432.852185841999,None,433.50025901298505,None,None,None,None,,29,001,2023_Jan_24_1119,searchDisc5,2021.2.3,59.80183216428412,
images/exp1a_trial_45_colour3_distractors19_r.png,r,3,3,19,0,,,,,0,182,182,182,,,,,,,,,,,,,,,,,,,,,,,,,,,,,,,,,,,,,,,,,,,433.51665245799813,None,2,0.0729871439980343,433.51665245799813,None,,,,,,,,,,,,,,,,None,None,None,,None,None,433.6350529299816,None,3,1,0.5996089710388333,433.6350529299816,None,434.2337368410197,None,None,None,None,,29,001,2023_Jan_24_1119,searchDisc5,2021.2.3,59.80183216428412,
images/exp2a_trial_297_colour2_distractors31_r.png,r,3,2,31,0,,,,,0,183,183,183,,,,,,,,,,,,,,,,,,,,,,,,,,,,,,,,,,,,,,,,,,,434.2521530400263,None,2,0.0561764239682816,434.2521530400263,None,,,,,,,,,,,,,,,,None,None,None,,None,None,434.3503219350241,None,3,1,0.7111754560028203,434.3503219350241,None,435.0671041330323,None,None,None,None,,29,001,2023_Jan_24_1119,searchDisc5,2021.2.3,59.80183216428412,
images/exp2c_trial_225_colour1_distractors4_r.png,r,3,1,4,0,,,,,0,184,184,184,,,,,,,,,,,,,,,,,,,,,,,,,,,,,,,,,,,,,,,,,,,435.08339252800215,None,2,0.07105412799865007,435.08339252800215,None,,,,,,,,,,,,,,,,None,None,None,,None,None,435.20263629202964,None,3,1,0.5892367829801515,435.20263629202964,None,435.7838017229922,None,None,None,None,,29,001,2023_Jan_24_1119,searchDisc5,2021.2.3,59.80183216428412,
images/exp1a_trial_210_colour1_distractors19_l.png,l,1,1,19,0,,,,,0,185,185,185,,,,,,,,,,,,,,,,,,,,,,,,,,,,,,,,,,,,,,,,,,,435.79992217599647,None,2,0.07411394896917045,435.79992217599647,None,,,,,,,,,,,,,,,,None,None,None,,None,None,435.9164638229995,None,1,1,0.7328544449992478,435.9164638229995,None,436.6503577330266,None,None,None,None,,29,001,2023_Jan_24_1119,searchDisc5,2021.2.3,59.80183216428412,
images/exp2b_trial_26_colour3_distractors4_l.png,l,1,3,4,0,,,,,0,186,186,186,,,,,,,,,,,,,,,,,,,,,,,,,,,,,,,,,,,,,,,,,,,436.66617399302777,None,2,0.038112102018203586,436.66617399302777,None,,,,,,,,,,,,,,,,None,None,None,,None,None,436.7520153099904,None,3,0,0.6891639289679006,436.7520153099904,None,437.43375035999344,None,None,None,None,,29,001,2023_Jan_24_1119,searchDisc5,2021.2.3,59.80183216428412,
images/exp2a_trial_213_colour2_distractors4_l.png,l,1,2,4,0,,,,,0,187,187,187,,,,,,,,,,,,,,,,,,,,,,,,,,,,,,,,,,,,,,,,,,,437.4519497650326,None,2,0.08778562699444592,437.4519497650326,None,,,,,,,,,,,,,,,,None,None,None,,None,None,437.58308252802817,None,1,1,0.8213771870359778,437.58308252802817,None,438.4004066229798,None,None,None,None,,29,001,2023_Jan_24_1119,searchDisc5,2021.2.3,59.80183216428412,
images/exp2b_trial_224_colour1_distractors1_r.png,r,3,1,1,0,,,,,0,188,188,188,,,,,,,,,,,,,,,,,,,,,,,,,,,,,,,,,,,,,,,,,,,438.41659512603655,None,2,0.08798915502848104,438.41659512603655,None,,,,,,,,,,,,,,,,None,None,None,,None,None,438.5504223770113,None,3,1,0.7560334410518408,438.5504223770113,None,439.3005207210197,None,None,None,None,,29,001,2023_Jan_24_1119,searchDisc5,2021.2.3,59.80183216428412,
images/exp2a_trial_168_colour2_distractors19_r.png,r,3,2,19,0,,,,,0,189,189,189,,,,,,,,,,,,,,,,,,,,,,,,,,,,,,,,,,,,,,,,,,,439.3164998930297,None,2,0.08769260300323367,439.3164998930297,None,,,,,,,,,,,,,,,,None,None,None,,None,None,439.45038079703227,None,3,1,0.997405267029535,439.45038079703227,None,440.45043779002737,None,None,None,None,,29,001,2023_Jan_24_1119,searchDisc5,2021.2.3,59.80183216428412,
images/exp2c_trial_181_colour2_distractors4_l.png,l,1,2,4,0,,,,,0,190,190,190,,,,,,,,,,,,,,,,,,,,,,,,,,,,,,,,,,,,,,,,,,,440.46688034699764,None,2,0.13797331001842394,440.46688034699764,None,,,,,,,,,,,,,,,,None,None,None,,None,None,440.6524085860001,None,1,1,0.7891433939803392,440.6524085860001,None,441.4339196509798,None,None,None,None,,29,001,2023_Jan_24_1119,searchDisc5,2021.2.3,59.80183216428412,
images/exp2c_trial_228_colour1_distractors31_r.png,r,3,1,31,0,,,,,0,191,191,191,,,,,,,,,,,,,,,,,,,,,,,,,,,,,,,,,,,,,,,,,,,441.45222483202815,None,2,0.07248399301897734,441.45222483202815,None,,,,,,,,,,,,,,,,None,None,None,,None,None,441.5672401119955,None,3,1,0.6014037120039575,441.5672401119955,None,442.1671449330286,None,None,None,None,,29,001,2023_Jan_24_1119,searchDisc5,2021.2.3,59.80183216428412,
images/exp2c_trial_116_colour2_distractors1_l.png,l,1,2,1,0,,,,,0,192,192,192,,,,,,,,,,,,,,,,,,,,,,,,,,,,,,,,,,,,,,,,,,,442.1855559180258,None,2,0.17332953604636714,442.1855559180258,None,,,,,,,,,,,,,,,,None,None,None,,None,None,442.4022500120336,None,1,1,0.6223146789707243,442.4022500120336,None,443.0171571259969,None,None,None,None,,29,001,2023_Jan_24_1119,searchDisc5,2021.2.3,59.80183216428412,
images/exp2b_trial_3_colour1_distractors19_r.png,r,3,1,19,0,,,,,0,193,193,193,,,,,,,,,,,,,,,,,,,,,,,,,,,,,,,,,,,,,,,,,,,443.0330096600228,None,2,0.5876463400200009,443.0330096600228,None,,,,,,,,,,,,,,,,None,None,None,,None,None,443.6687608510256,None,3,1,0.7693767779855989,443.6687608510256,None,444.43393455103507,None,None,None,None,,29,001,2023_Jan_24_1119,searchDisc5,2021.2.3,59.80183216428412,
images/exp2c_trial_218_colour3_distractors4_l.png,l,1,3,4,0,,,,,0,194,194,194,,,,,,,,,,,,,,,,,,,,,,,,,,,,,,,,,,,,,,,,,,,444.45191854803124,None,2,0.1210671509616077,444.45191854803124,None,,,,,,,,,,,,,,,,None,None,None,,None,None,444.61924378201365,None,1,1,1.3559207409853116,444.61924378201365,None,445.96724884003635,None,None,None,None,,29,001,2023_Jan_24_1119,searchDisc5,2021.2.3,59.80183216428412,
images/exp2a_trial_309_colour2_distractors4_l.png,l,1,2,4,0,,,,,0,195,195,195,,,,,,,,,,,,,,,,,,,,,,,,,,,,,,,,,,,,,,,,,,,445.98338408302516,None,2,0.07337785296840593,445.98338408302516,None,,,,,,,,,,,,,,,,None,None,None,,None,None,446.1002023409819,None,1,1,0.8681856420007534,446.1002023409819,None,446.9672569960356,None,None,None,None,,29,001,2023_Jan_24_1119,searchDisc5,2021.2.3,59.80183216428412,
images/exp2c_trial_19_colour1_distractors31_l.png,l,1,1,31,0,,,,,0,196,196,196,,,,,,,,,,,,,,,,,,,,,,,,,,,,,,,,,,,,,,,,,,,446.985287819989,None,2,0.08811915601836517,446.985287819989,None,,,,,,,,,,,,,,,,None,None,None,,None,None,447.1172367440304,None,1,1,0.7358279550098814,447.1172367440304,None,447.8499864660087,None,None,None,None,,29,001,2023_Jan_24_1119,searchDisc5,2021.2.3,59.80183216428412,
images/exp2b_trial_282_colour3_distractors4_l.png,l,1,3,4,0,,,,,0,197,197,197,,,,,,,,,,,,,,,,,,,,,,,,,,,,,,,,,,,,,,,,,,,447.8664525260101,None,2,0.08814745000563562,447.8664525260101,None,,,,,,,,,,,,,,,,None,None,None,,None,None,448.0005472630146,None,1,1,0.7059217999922112,448.0005472630146,None,448.7006129659829,None,None,None,None,,29,001,2023_Jan_24_1119,searchDisc5,2021.2.3,59.80183216428412,
images/exp2a_trial_188_colour3_distractors19_l.png,l,1,3,19,0,,,,,0,198,198,198,,,,,,,,,,,,,,,,,,,,,,,,,,,,,,,,,,,,,,,,,,,448.71706277603516,None,2,0.08995065098861232,448.71706277603516,None,,,,,,,,,,,,,,,,None,None,None,,None,None,448.85267347400077,None,1,1,0.6512885310221463,448.85267347400077,None,449.5008409590344,None,None,None,None,,29,001,2023_Jan_24_1119,searchDisc5,2021.2.3,59.80183216428412,
images/exp2a_trial_200_colour2_distractors19_r.png,r,3,2,19,0,,,,,0,199,199,199,,,,,,,,,,,,,,,,,,,,,,,,,,,,,,,,,,,,,,,,,,,449.5171633660211,None,2,0.08994225197238848,449.5171633660211,None,,,,,,,,,,,,,,,,None,None,None,,None,None,449.65058254502947,None,3,1,0.7119429049780592,449.65058254502947,None,450.3673171799863,None,None,None,None,,29,001,2023_Jan_24_1119,searchDisc5,2021.2.3,59.80183216428412,
images/exp2a_trial_123_colour3_distractors9_l.png,l,1,3,9,0,,,,,0,200,200,200,,,,,,,,,,,,,,,,,,,,,,,,,,,,,,,,,,,,,,,,,,,450.3831959179952,None,2,0.037811890011653304,450.3831959179952,None,,,,,,,,,,,,,,,,None,None,None,,None,None,450.4693292499869,None,1,1,0.7558771619806066,450.4693292499869,None,451.2173281189869,None,None,None,None,,29,001,2023_Jan_24_1119,searchDisc5,2021.2.3,59.80183216428412,
images/exp1a_trial_272_colour1_distractors4_l.png,l,1,1,4,0,,,,,0,201,201,201,,,,,,,,,,,,,,,,,,,,,,,,,,,,,,,,,,,,,,,,,,,451.23317555501126,None,2,0.03793388599297032,451.23317555501126,None,,,,,,,,,,,,,,,,None,None,None,,None,None,451.31892179098213,None,1,1,0.8051929689827375,451.31892179098213,None,452.11733151798836,None,None,None,None,,29,001,2023_Jan_24_1119,searchDisc5,2021.2.3,59.80183216428412,
images/exp2b_trial_133_colour2_distractors1_r.png,r,3,2,1,0,,,,,0,202,202,202,,,,,,,,,,,,,,,,,,,,,,,,,,,,,,,,,,,,,,,,,,,452.1337109620217,None,2,0.0209915490122512,452.1337109620217,None,,,,,,,,,,,,,,,,None,None,None,,None,None,452.2026249829796,None,3,1,0.9558400099631399,452.2026249829796,None,453.1506486610277,None,None,None,None,,29,001,2023_Jan_24_1119,searchDisc5,2021.2.3,59.80183216428412,
images/exp1a_trial_264_colour2_distractors19_r.png,r,3,2,19,0,,,,,0,203,203,203,,,,,,,,,,,,,,,,,,,,,,,,,,,,,,,,,,,,,,,,,,,453.1665388540132,None,2,0.2379704510094598,453.1665388540132,None,,,,,,,,,,,,,,,,None,None,None,,None,None,453.45025583700044,None,3,1,1.2031802760320716,453.45025583700044,None,454.6503265340114,None,None,None,None,,29,001,2023_Jan_24_1119,searchDisc5,2021.2.3,59.80183216428412,
images/exp2a_trial_138_colour3_distractors1_r.png,r,3,3,1,0,,,,,0,204,204,204,,,,,,,,,,,,,,,,,,,,,,,,,,,,,,,,,,,,,,,,,,,454.666761503031,None,2,0.5713797879870981,454.666761503031,None,,,,,,,,,,,,,,,,None,None,None,,None,None,455.2862311020144,None,3,1,0.7707923229900189,455.2862311020144,None,456.0509174750303,None,None,None,None,,29,001,2023_Jan_24_1119,searchDisc5,2021.2.3,59.80183216428412,
images/exp2c_trial_206_colour3_distractors31_r.png,r,3,3,31,0,,,,,0,205,205,205,,,,,,,,,,,,,,,,,,,,,,,,,,,,,,,,,,,,,,,,,,,456.0692232080037,None,2,0.12285137997241691,456.0692232080037,None,,,,,,,,,,,,,,,,None,None,None,,None,None,456.23574064602144,None,3,1,0.6830120299709961,456.23574064602144,None,456.91698946199614,None,None,None,None,,29,001,2023_Jan_24_1119,searchDisc5,2021.2.3,59.80183216428412,
images/exp2b_trial_33_colour1_distractors4_r.png,r,3,1,4,0,,,,,0,206,206,206,,,,,,,,,,,,,,,,,,,,,,,,,,,,,,,,,,,,,,,,,,,456.9361861119978,None,2,0.07149000302888453,456.9361861119978,None,,,,,,,,,,,,,,,,None,None,None,,None,None,457.05031526001403,None,3,1,0.6391023640171625,457.05031526001403,None,457.6841630149982,None,None,None,None,,29,001,2023_Jan_24_1119,searchDisc5,2021.2.3,59.80183216428412,
images/exp2c_trial_159_colour0_distractors0_l.png,l,1,0,0,0,,,,,0,207,207,207,,,,,,,,,,,,,,,,,,,,,,,,,,,,,,,,,,,,,,,,,,,457.6999577250099,None,2,0.07315460901008919,457.6999577250099,None,,,,,,,,,,,,,,,,None,None,None,,None,None,457.8189191620331,None,1,1,0.7210309670190327,457.8189191620331,None,458.5341600370128,None,None,None,None,,29,001,2023_Jan_24_1119,searchDisc5,2021.2.3,59.80183216428412,
images/exp2c_trial_213_colour2_distractors4_l.png,l,1,2,4,0,,,,,0,208,208,208,,,,,,,,,,,,,,,,,,,,,,,,,,,,,,,,,,,,,,,,,,,458.5505961229792,None,2,0.10877153504407033,458.5505961229792,None,,,,,,,,,,,,,,,,None,None,None,,None,None,458.70093559101224,None,1,1,0.8513937990064733,458.70093559101224,None,459.5508171570371,None,None,None,None,,29,001,2023_Jan_24_1119,searchDisc5,2021.2.3,59.80183216428412,
images/exp2a_trial_92_colour3_distractors19_l.png,l,1,3,19,0,,,,,0,209,209,209,,,,,,,,,,,,,,,,,,,,,,,,,,,,,,,,,,,,,,,,,,,459.56671049498254,None,2,0.08802369295153767,459.56671049498254,None,,,,,,,,,,,,,,,,None,None,None,,None,None,459.7010064140195,None,1,1,0.6202698890119791,459.7010064140195,None,460.317297257029,None,None,None,None,,29,001,2023_Jan_24_1119,searchDisc5,2021.2.3,59.80183216428412,
images/exp2a_trial_36_colour1_distractors31_r.png,r,3,1,31,0,,,,,0,210,210,210,,,,,,,,,,,,,,,,,,,,,,,,,,,,,,,,,,,,,,,,,,,460.33549518103246,None,2,0.08780102501623333,460.33549518103246,None,,,,,,,,,,,,,,,,None,None,None,,None,None,460.46685525699286,None,3,1,0.7691940040094778,460.46685525699286,None,461.23422323901906,None,None,None,None,,29,001,2023_Jan_24_1119,searchDisc5,2021.2.3,59.80183216428412,
images/exp2c_trial_268_colour3_distractors9_r.png,r,3,3,9,0,,,,,0,211,211,211,,,,,,,,,,,,,,,,,,,,,,,,,,,,,,,,,,,,,,,,,,,461.25052289501764,None,2,0.03846053802408278,461.25052289501764,None,,,,,,,,,,,,,,,,None,None,None,,None,None,461.3362766050268,None,3,1,1.005371641018428,461.3362766050268,None,462.334376110998,None,None,None,None,,29,001,2023_Jan_24_1119,searchDisc5,2021.2.3,59.80183216428412,
images/exp2b_trial_317_colour3_distractors31_l.png,l,1,3,31,0,,,,,0,212,212,212,,,,,,,,,,,,,,,,,,,,,,,,,,,,,,,,,,,,,,,,,,,462.3509258470149,None,2,0.12095377303194255,462.3509258470149,None,,,,,,,,,,,,,,,,None,None,None,,None,None,462.51739472697955,None,1,1,1.6201484019984491,462.51739472697955,None,464.1345272950246,None,None,None,None,,29,001,2023_Jan_24_1119,searchDisc5,2021.2.3,59.80183216428412,
images/exp2c_trial_24_colour2_distractors31_l.png,l,1,2,31,0,,,,,0,213,213,213,,,,,,,,,,,,,,,,,,,,,,,,,,,,,,,,,,,,,,,,,,,464.1504537850269,None,2,0.07316877297125757,464.1504537850269,None,,,,,,,,,,,,,,,,None,None,None,,None,None,464.2694850770058,None,1,1,0.6670939159812406,464.2694850770058,None,464.934333805996,None,None,None,None,,29,001,2023_Jan_24_1119,searchDisc5,2021.2.3,59.80183216428412,
images/exp1a_trial_85_colour2_distractors4_l.png,l,1,2,4,0,,,,,0,214,214,214,,,,,,,,,,,,,,,,,,,,,,,,,,,,,,,,,,,,,,,,,,,464.95072924002307,None,2,0.07340976101113483,464.95072924002307,None,,,,,,,,,,,,,,,,None,None,None,,None,None,465.0677169539849,None,1,1,0.8028395129949786,465.0677169539849,None,465.86759677798256,None,None,None,None,,29,001,2023_Jan_24_1119,searchDisc5,2021.2.3,59.80183216428412,
images/exp1a_trial_233_colour2_distractors31_r.png,r,3,2,31,0,,,,,0,215,215,215,,,,,,,,,,,,,,,,,,,,,,,,,,,,,,,,,,,,,,,,,,,465.8857139010215,None,2,0.056811480957549065,465.8857139010215,None,,,,,,,,,,,,,,,,None,None,None,,None,None,465.9845195810194,None,3,1,1.0149043659912422,465.9845195810194,None,467.00127256703564,None,None,None,None,,29,001,2023_Jan_24_1119,searchDisc5,2021.2.3,59.80183216428412,
images/exp2a_trial_304_colour1_distractors4_l.png,l,1,1,4,0,,,,,0,216,216,216,,,,,,,,,,,,,,,,,,,,,,,,,,,,,,,,,,,,,,,,,,,467.01729796099244,None,2,0.10431583703029901,467.01729796099244,None,,,,,,,,,,,,,,,,None,None,None,,None,None,467.16797855799086,None,1,1,0.8060476279933937,467.16797855799086,None,467.9678377680364,None,None,None,None,,29,001,2023_Jan_24_1119,searchDisc5,2021.2.3,59.80183216428412,
images/exp2a_trial_127_colour0_distractors0_l.png,l,1,0,0,0,,,,,0,217,217,217,,,,,,,,,,,,,,,,,,,,,,,,,,,,,,,,,,,,,,,,,,,467.9840074030217,None,2,0.07308507699053735,467.9840074030217,None,,,,,,,,,,,,,,,,None,None,None,,None,None,468.10324208199745,None,1,1,0.7049635209841654,468.10324208199745,None,468.80122586998624,None,None,None,None,,29,001,2023_Jan_24_1119,searchDisc5,2021.2.3,59.80183216428412,
images/exp2c_trial_2_colour1_distractors9_r.png,r,3,1,9,0,,,,,0,218,218,218,,,,,,,,,,,,,,,,,,,,,,,,,,,,,,,,,,,,,,,,,,,468.817597418034,None,2,0.0709262170130387,468.817597418034,None,,,,,,,,,,,,,,,,None,None,None,,None,None,468.93670175701845,None,3,1,0.704824591986835,468.93670175701845,None,469.6345496900147,None,None,None,None,,29,001,2023_Jan_24_1119,searchDisc5,2021.2.3,59.80183216428412,
images/exp2c_trial_85_colour2_distractors4_l.png,l,1,2,4,0,,,,,0,219,219,219,,,,,,,,,,,,,,,,,,,,,,,,,,,,,,,,,,,,,,,,,,,469.6508983569802,None,2,0.056557480012997985,469.6508983569802,None,,,,,,,,,,,,,,,,None,None,None,,None,None,469.75331820797874,None,3,0,0.7038028229726478,469.75331820797874,None,470.451346328028,None,None,None,None,,29,001,2023_Jan_24_1119,searchDisc5,2021.2.3,59.80183216428412,
images/exp2b_trial_208_colour1_distractors4_l.png,l,1,1,4,0,,,,,0,220,220,220,,,,,,,,,,,,,,,,,,,,,,,,,,,,,,,,,,,,,,,,,,,470.46746084903134,None,2,0.13774969399673864,470.46746084903134,None,,,,,,,,,,,,,,,,None,None,None,,None,None,470.6512940850225,None,1,1,1.039552524976898,470.6512940850225,None,471.6845340739936,None,None,None,None,,29,001,2023_Jan_24_1119,searchDisc5,2021.2.3,59.80183216428412,
images/exp2b_trial_182_colour2_distractors9_l.png,l,1,2,9,0,,,,,0,221,221,221,,,,,,,,,,,,,,,,,,,,,,,,,,,,,,,,,,,,,,,,,,,471.7004932590062,None,2,0.020745004003401846,471.7004932590062,None,,,,,,,,,,,,,,,,None,None,None,,None,None,471.76741811900865,None,1,1,0.7403679889976047,471.76741811900865,None,472.50085746998667,None,None,None,None,,29,001,2023_Jan_24_1119,searchDisc5,2021.2.3,59.80183216428412,
images/exp2a_trial_141_colour3_distractors19_r.png,r,3,3,19,0,,,,,0,222,222,222,,,,,,,,,,,,,,,,,,,,,,,,,,,,,,,,,,,,,,,,,,,472.51968176901573,None,2,0.08650572499027476,472.51968176901573,None,,,,,,,,,,,,,,,,None,None,None,,None,None,472.6513917300035,None,3,1,0.8878002419951372,472.6513917300035,None,473.53479334503646,None,None,None,None,,29,001,2023_Jan_24_1119,searchDisc5,2021.2.3,59.80183216428412,
images/exp2c_trial_113_colour1_distractors9_l.png,l,1,1,9,0,,,,,0,223,223,223,,,,,,,,,,,,,,,,,,,,,,,,,,,,,,,,,,,,,,,,,,,473.55323398002656,None,2,0.10525950998999178,473.55323398002656,None,,,,,,,,,,,,,,,,None,None,None,,None,None,473.7011825980153,None,1,1,0.7863079990493134,473.7011825980153,None,474.48454424099765,None,None,None,None,,29,001,2023_Jan_24_1119,searchDisc5,2021.2.3,59.80183216428412,
images/exp2b_trial_9_colour2_distractors31_r.png,r,3,2,31,0,,,,,0,224,224,224,,,,,,,,,,,,,,,,,,,,,,,,,,,,,,,,,,,,,,,,,,,474.50315668497933,None,2,0.07118015096057206,474.50315668497933,None,,,,,,,,,,,,,,,,None,None,None,,None,None,474.6174971460132,None,3,1,0.9367367179947905,474.6174971460132,None,475.5514000480296,None,None,None,None,,29,001,2023_Jan_24_1119,searchDisc5,2021.2.3,59.80183216428412,
