ImageFile,targ_side,correctAnswer,colour,distNo,targetType,trials_2.thisRepN,trials_2.thisTrialN,trials_2.thisN,trials_2.thisIndex,trials.thisRepN,trials.thisTrialN,trials.thisN,trials.thisIndex,text_6.started,text_6.stopped,buttonBox.keys,buttonBox.rt,buttonBox.started,buttonBox.stopped,text_7.started,text_7.stopped,buttonBox_3.keys,buttonBox_3.rt,buttonBox_3.started,buttonBox_3.stopped,text_8.started,text_8.stopped,buttonBox_4.keys,buttonBox_4.rt,buttonBox_4.started,buttonBox_4.stopped,text_9.started,text_9.stopped,buttonBox_5.keys,buttonBox_5.rt,buttonBox_5.started,buttonBox_5.stopped,text_2.started,text_2.stopped,buttonBox_6.keys,buttonBox_6.rt,buttonBox_6.started,buttonBox_6.stopped,text_5.started,text_5.stopped,buttonBox_7.keys,buttonBox_7.rt,image_2.started,image_2.stopped,image_3.started,image_3.stopped,buttonBox_8.keys,buttonBox_8.rt,buttonBox_8.started,buttonBox_8.stopped,polygon.started,polygon.stopped,buttonBox_9.keys,buttonBox_9.rt,buttonBox_9.started,buttonBox_9.stopped,image.started,image.stopped,buttonBox_10.keys,buttonBox_10.corr,buttonBox_10.rt,buttonBox_10.started,buttonBox_10.stopped,text_4.started,text_4.stopped,text.started,text.stopped,buttonBox_11.keys,buttonBox_11.rt,buttonBox_11.started,buttonBox_11.stopped,targetTypeInstruction.started,targetTypeInstruction.stopped,buttonBox_2.keys,buttonBox_2.rt,buttonBox_2.started,buttonBox_2.stopped,dispStimuli.started,dispStimuli.stopped,buttonBox_12.keys,buttonBox_12.corr,buttonBox_12.rt,buttonBox_12.started,buttonBox_12.stopped,breakMessage.started,breakMessage.stopped,buttonBox_13.keys,buttonBox_13.started,buttonBox_13.stopped,buttonBox_13.rt,participant,session,date,expName,psychopyVersion,frameRate,
,,,,,,,,,,,,,,63.29893008898944,None,2,41.91069815098308,63.29893008898944,None,,,,,,,,,,,,,,,,,,,,,,,,,,,,,,,,,,,,,,,,,,,,,,,,,,,,,,,,,,,,,,,,,,,,,,,,,,,,,32,001,2023_Jan_24_1529,searchDisc5,2021.2.3,59.8113787088857,
,,,,,,,,,,,,,,,,,,,,105.19952102203388,None,2,50.26441775797866,105.19952102203388,None,,,,,,,,,,,,,,,,,,,,,,,,,,,,,,,,,,,,,,,,,,,,,,,,,,,,,,,,,,,,,,,,,,,,,,,32,001,2023_Jan_24_1529,searchDisc5,2021.2.3,59.8113787088857,
,,,,,,,,,,,,,,,,,,,,,,,,,,155.46526949701365,None,2,35.16459899500478,155.46526949701365,None,,,,,,,,,,,,,,,,,,,,,,,,,,,,,,,,,,,,,,,,,,,,,,,,,,,,,,,,,,,,,,,,,32,001,2023_Jan_24_1529,searchDisc5,2021.2.3,59.8113787088857,
,,,,,,,,,,,,,,,,,,,,,,,,,,,,,,,,190.63505459501175,None,2,11.764683622983284,190.63505459501175,None,,,,,,,,,,,,,,,,,,,,,,,,,,,,,,,,,,,,,,,,,,,,,,,,,,,,,,,,,,,32,001,2023_Jan_24_1529,searchDisc5,2021.2.3,59.8113787088857,
,,,,,,,,,,,,,,,,,,,,,,,,,,,,,,,,,,,,,,202.39996124303434,None,2,11.267189212958328,203.3852959559881,None,,,,,,,,,,,,,,,,,,,,,,,,,,,,,,,,,,,,,,,,,,,,,,,,,,,,,32,001,2023_Jan_24_1529,searchDisc5,2021.2.3,59.8113787088857,
,,,,,,,,,,,,,,,,,,,,,,,,,,,,,,,,,,,,,,,,,,,,214.65026954002678,None,2,5.781466095009819,,,,,,,,,,,,,,,,,,,,,,,,,,,,,,,,,,,,,,,,,,,,,,,,,32,001,2023_Jan_24_1529,searchDisc5,2021.2.3,59.8113787088857,
,,,,,,,,,,,,,,,,,,,,,,,,,,,,,,,,,,,,,,,,,,,,,,,,223.4338065230404,None,223.4338065230404,None,2,20.533505378989503,223.4338065230404,None,,,,,,,,,,,,,,,,,,,,,,,,,,,,,,,,,,,,,,,,,32,001,2023_Jan_24_1529,searchDisc5,2021.2.3,59.8113787088857,
Practice arrays/exp1a_trial_18_colour1_distractors19_l.png,l,1,,,,0,0,0,8,,,,,,,,,,,,,,,,,,,,,,,,,,,,,,,,,,,,,,,,,,,,,,,244.00104478304274,None,2,11.234017740993295,244.00104478304274,None,255.2863442520029,None,3,0,2.121559043007437,255.2863442520029,None,257.41806702601025,None,,,,,,,,,,,,,,,,,,,,,,,,,,32,001,2023_Jan_24_1529,searchDisc5,2021.2.3,59.8113787088857,
Practice arrays/exp1a_trial_8_colour2_distractors19_r.png,r,3,,,,0,1,1,3,,,,,,,,,,,,,,,,,,,,,,,,,,,,,,,,,,,,,,,,,,,,,,,259.419970537012,None,2,1.6636786269955337,259.419970537012,None,261.1351847189944,None,3,1,1.802366072020959,261.1351847189944,None,262.9349991210038,None,,,,,,,,,,,,,,,,,,,,,,,,,,32,001,2023_Jan_24_1529,searchDisc5,2021.2.3,59.8113787088857,
Practice arrays/exp1a_trial_0_colour1_distractors1_r.png,r,3,,,,0,2,2,0,,,,,,,,,,,,,,,,,,,,,,,,,,,,,,,,,,,,,,,,,,,,,,,264.9368222950143,None,2,3.063959735969547,264.9368222950143,None,268.0520711580175,None,3,1,0.8697784830001183,268.0520711580175,None,268.9187572390074,None,,,,,,,,,,,,,,,,,,,,,,,,,,32,001,2023_Jan_24_1529,searchDisc5,2021.2.3,59.8113787088857,
Practice arrays/exp1a_trial_10_colour3_distractors1_r.png,r,3,,,,0,3,3,4,,,,,,,,,,,,,,,,,,,,,,,,,,,,,,,,,,,,,,,,,,,,,,,270.9206398809911,None,2,1.8804126780014485,270.9206398809911,None,272.8514471510425,None,3,1,0.806022000964731,272.8514471510425,None,273.65188617102103,None,,,,,,,,,,,,,,,,,,,,,,,,,,32,001,2023_Jan_24_1529,searchDisc5,2021.2.3,59.8113787088857,
Practice arrays/exp1a_trial_30_colour0_distractors0_r.png,r,3,,,,0,4,4,14,,,,,,,,,,,,,,,,,,,,,,,,,,,,,,,,,,,,,,,,,,,,,,,275.65416701103095,None,2,2.597129090980161,275.65416701103095,None,278.30218415003037,None,3,1,0.6565611209953204,278.30218415003037,None,278.9520298150019,None,,,,,,,,,,,,,,,,,,,,,,,,,,32,001,2023_Jan_24_1529,searchDisc5,2021.2.3,59.8113787088857,
Practice arrays/exp1a_trial_16_colour1_distractors4_l.png,l,1,,,,0,5,5,13,,,,,,,,,,,,,,,,,,,,,,,,,,,,,,,,,,,,,,,,,,,,,,,280.9541087039979,None,2,5.647258531011175,280.9541087039979,None,286.65226781601086,None,1,1,0.8731196339940652,286.65226781601086,None,287.51904014800675,None,,,,,,,,,,,,,,,,,,,,,,,,,,32,001,2023_Jan_24_1529,searchDisc5,2021.2.3,59.8113787088857,
Practice arrays/exp1a_trial_31_colour0_distractors0_l.png,l,1,,,,0,6,6,15,,,,,,,,,,,,,,,,,,,,,,,,,,,,,,,,,,,,,,,,,,,,,,,289.52075347903883,None,2,1.7804719939595088,289.52075347903883,None,291.3539944420336,None,1,1,0.7921138479723595,291.3539944420336,None,292.1358295539976,None,,,,,,,,,,,,,,,,,,,,,,,,,,32,001,2023_Jan_24_1529,searchDisc5,2021.2.3,59.8113787088857,
Practice arrays/exp1a_trial_25_colour3_distractors1_l.png,l,1,,,,0,7,7,11,,,,,,,,,,,,,,,,,,,,,,,,,,,,,,,,,,,,,,,,,,,,,,,294.13756246102275,None,2,0.9490082719712518,294.13756246102275,None,295.13602027803427,None,1,1,1.3175497179618105,295.13602027803427,None,296.45194633404026,None,,,,,,,,,,,,,,,,,,,,,,,,,,32,001,2023_Jan_24_1529,searchDisc5,2021.2.3,59.8113787088857,
Practice arrays/exp1a_trial_12_colour3_distractors9_r.png,r,3,,,,0,8,8,5,,,,,,,,,,,,,,,,,,,,,,,,,,,,,,,,,,,,,,,,,,,,,,,298.4548245620099,None,2,3.2640857429942116,298.4548245620099,None,301.7711922299932,None,3,1,0.6543857280048542,301.7711922299932,None,302.41948350402527,None,,,,,,,,,,,,,,,,,,,,,,,,,,32,001,2023_Jan_24_1529,searchDisc5,2021.2.3,59.8113787088857,
Practice arrays/exp1a_trial_17_colour1_distractors9_l.png,l,1,,,,0,9,9,7,,,,,,,,,,,,,,,,,,,,,,,,,,,,,,,,,,,,,,,,,,,,,,,304.4210658050142,None,2,2.333028236986138,304.4210658050142,None,306.8045526280184,None,1,1,0.5172413449618034,306.8045526280184,None,307.319684682996,None,,,,,,,,,,,,,,,,,,,,,,,,,,32,001,2023_Jan_24_1529,searchDisc5,2021.2.3,59.8113787088857,
Practice arrays/exp1a_trial_21_colour2_distractors4_l.png,l,1,,,,0,10,10,9,,,,,,,,,,,,,,,,,,,,,,,,,,,,,,,,,,,,,,,,,,,,,,,309.32163616403705,None,2,3.4993503610021435,309.32163616403705,None,312.87196827703156,None,1,1,0.7190779849770479,312.87196827703156,None,313.5863933120272,None,,,,,,,,,,,,,,,,,,,,,,,,,,32,001,2023_Jan_24_1529,searchDisc5,2021.2.3,59.8113787088857,
Practice arrays/exp1a_trial_7_colour2_distractors9_r.png,r,3,,,,0,11,11,2,,,,,,,,,,,,,,,,,,,,,,,,,,,,,,,,,,,,,,,,,,,,,,,315.58847145503387,None,2,2.614006865012925,315.58847145503387,None,318.252549567027,None,3,1,0.6212050309986807,318.252549567027,None,318.8696040069917,None,,,,,,,,,,,,,,,,,,,,,,,,,,32,001,2023_Jan_24_1529,searchDisc5,2021.2.3,59.8113787088857,
Practice arrays/exp1a_trial_14_colour3_distractors31_r.png,r,3,,,,0,12,12,6,,,,,,,,,,,,,,,,,,,,,,,,,,,,,,,,,,,,,,,,,,,,,,,320.8717032549903,None,2,6.3313785049831495,320.8717032549903,None,327.25355517002754,None,3,1,0.584972363023553,327.25355517002754,None,327.83675764204236,None,,,,,,,,,,,,,,,,,,,,,,,,,,32,001,2023_Jan_24_1529,searchDisc5,2021.2.3,59.8113787088857,
Practice arrays/exp1a_trial_23_colour2_distractors19_l.png,l,1,,,,0,13,13,10,,,,,,,,,,,,,,,,,,,,,,,,,,,,,,,,,,,,,,,,,,,,,,,329.8382840999984,None,2,1.8805644499952905,329.8382840999984,None,331.7703951210133,None,1,1,0.6988502689637244,331.7703951210133,None,332.47013363603037,None,,,,,,,,,,,,,,,,,,,,,,,,,,32,001,2023_Jan_24_1529,searchDisc5,2021.2.3,59.8113787088857,
Practice arrays/exp1a_trial_1_colour1_distractors4_r.png,r,3,,,,0,14,14,1,,,,,,,,,,,,,,,,,,,,,,,,,,,,,,,,,,,,,,,,,,,,,,,334.4722734350362,None,2,1.0140289499540813,334.4722734350362,None,335.5365611889865,None,3,1,0.6053410170134157,335.5365611889865,None,336.13686925004004,None,,,,,,,,,,,,,,,,,,,,,,,,,,32,001,2023_Jan_24_1529,searchDisc5,2021.2.3,59.8113787088857,
Practice arrays/exp1a_trial_27_colour3_distractors9_l.png,l,1,,,,0,15,15,12,,,,,,,,,,,,,,,,,,,,,,,,,,,,,,,,,,,,,,,,,,,,,,,338.1390125110047,None,2,0.6637602970004082,338.1390125110047,None,338.8554516999866,None,1,1,0.6049908899585716,338.8554516999866,None,339.45370475103846,None,,,,,,,,,,,,,,,,,,,,,,,,,,32,001,2023_Jan_24_1529,searchDisc5,2021.2.3,59.8113787088857,
,,,,,,,,,,,,,,,,,,,,,,,,,,,,,,,,,,,,,,,,,,,,,,,,,,,,,,,,,,,,,,,,,,,,,,,341.538823926996,None,2,6.417001409980003,342.5205883469898,None,,,,,,,,,,,,,,,,,,,,32,001,2023_Jan_24_1529,searchDisc5,2021.2.3,59.8113787088857,
images/exp2b_trial_289_colour1_distractors4_r.png,r,3,1,4,0,,,,,0,0,0,0,,,,,,,,,,,,,,,,,,,,,,,,,,,,,,,,,,,,,,,,,,,356.35390044702217,None,2,3.4282513819634914,356.35390044702217,None,,,,,,,,,,,,,,,,349.52270164503716,None,2,4.833473160048015,351.52272670704406,None,359.84508714603726,None,3,1,0.748548241041135,359.84508714603726,None,360.6045125431963,None,None,None,None,,32,001,2023_Jan_24_1529,searchDisc5,2021.2.3,59.8113787088857,
images/exp2c_trial_131_colour1_distractors19_r.png,r,3,1,19,0,,,,,0,1,1,1,,,,,,,,,,,,,,,,,,,,,,,,,,,,,,,,,,,,,,,,,,,360.6226742560393,None,2,3.17079493397614,360.6226742560393,None,,,,,,,,,,,,,,,,None,None,None,,None,None,363.8378189780051,None,3,1,0.5369474260369316,363.8378189780051,None,364.3712187986006,None,None,None,None,,32,001,2023_Jan_24_1529,searchDisc5,2021.2.3,59.8113787088857,
images/exp2c_trial_156_colour3_distractors19_l.png,l,1,3,19,0,,,,,0,2,2,2,,,,,,,,,,,,,,,,,,,,,,,,,,,,,,,,,,,,,,,,,,,364.38800173602067,None,2,0.9903494959580712,364.38800173602067,None,,,,,,,,,,,,,,,,None,None,None,,None,None,365.4229779340094,None,1,1,0.7002842759829946,365.4229779340094,None,366.1213010716368,None,None,None,None,,32,001,2023_Jan_24_1529,searchDisc5,2021.2.3,59.8113787088857,
images/exp2c_trial_25_colour3_distractors1_l.png,l,1,3,1,0,,,,,0,3,3,3,,,,,,,,,,,,,,,,,,,,,,,,,,,,,,,,,,,,,,,,,,,366.13805223599775,None,2,0.8055643740226515,366.13805223599775,None,,,,,,,,,,,,,,,,None,None,None,,None,None,366.9900680500432,None,1,1,0.7881804440403357,366.9900680500432,None,367.77126431363865,None,None,None,None,,32,001,2023_Jan_24_1529,searchDisc5,2021.2.3,59.8113787088857,
images/exp2c_trial_155_colour3_distractors9_l.png,l,1,3,9,0,,,,,0,4,4,4,,,,,,,,,,,,,,,,,,,,,,,,,,,,,,,,,,,,,,,,,,,367.78755008400185,None,2,1.3388088750070892,367.78755008400185,None,,,,,,,,,,,,,,,,None,None,None,,None,None,369.17345678800484,None,1,1,0.7000895750243217,369.17345678800484,None,369.8713297575945,None,None,None,None,,32,001,2023_Jan_24_1529,searchDisc5,2021.2.3,59.8113787088857,
images/exp2a_trial_92_colour3_distractors19_l.png,l,1,3,19,0,,,,,0,5,5,5,,,,,,,,,,,,,,,,,,,,,,,,,,,,,,,,,,,,,,,,,,,369.8870676429942,None,2,0.9212531910161488,369.8870676429942,None,,,,,,,,,,,,,,,,None,None,None,,None,None,370.85687366704224,None,1,1,0.635636669001542,370.85687366704224,None,371.4880900706397,None,None,None,None,,32,001,2023_Jan_24_1529,searchDisc5,2021.2.3,59.8113787088857,
images/exp2a_trial_210_colour1_distractors19_l.png,l,1,1,19,0,,,,,0,6,6,6,,,,,,,,,,,,,,,,,,,,,,,,,,,,,,,,,,,,,,,,,,,371.50401437300025,None,2,0.8065344640053809,371.50401437300025,None,,,,,,,,,,,,,,,,None,None,None,,None,None,372.35687207599403,None,1,1,0.6013304010266438,372.35687207599403,None,372.95415028362765,None,None,None,None,,32,001,2023_Jan_24_1529,searchDisc5,2021.2.3,59.8113787088857,
images/exp2b_trial_200_colour2_distractors19_r.png,r,3,2,19,0,,,,,0,7,7,7,,,,,,,,,,,,,,,,,,,,,,,,,,,,,,,,,,,,,,,,,,,372.97317546600243,None,2,0.8058048889506608,372.97317546600243,None,,,,,,,,,,,,,,,,None,None,None,,None,None,373.82137630699435,None,3,1,0.636088480008766,373.82137630699435,None,374.45429524759527,None,None,None,None,,32,001,2023_Jan_24_1529,searchDisc5,2021.2.3,59.8113787088857,
images/exp2c_trial_134_colour2_distractors4_r.png,r,3,2,4,0,,,,,0,8,8,8,,,,,,,,,,,,,,,,,,,,,,,,,,,,,,,,,,,,,,,,,,,374.471231848991,None,2,0.838780918973498,374.471231848991,None,,,,,,,,,,,,,,,,None,None,None,,None,None,375.35430597903905,None,3,1,0.6046693179523572,375.35430597903905,None,375.954857833602,None,None,None,None,,32,001,2023_Jan_24_1529,searchDisc5,2021.2.3,59.8113787088857,
images/exp1a_trial_206_colour3_distractors31_r.png,r,3,3,31,0,,,,,0,9,9,9,,,,,,,,,,,,,,,,,,,,,,,,,,,,,,,,,,,,,,,,,,,375.97066149301827,None,2,0.7379132990026847,375.97066149301827,None,,,,,,,,,,,,,,,,None,None,None,,None,None,376.75688515399816,None,3,1,0.6173680130159482,376.75688515399816,None,377.37140554961513,None,None,None,None,,32,001,2023_Jan_24_1529,searchDisc5,2021.2.3,59.8113787088857,
images/exp2c_trial_91_colour3_distractors9_l.png,l,1,3,9,0,,,,,0,10,10,10,,,,,,,,,,,,,,,,,,,,,,,,,,,,,,,,,,,,,,,,,,,377.3879864590126,None,2,0.7211532450164668,377.3879864590126,None,,,,,,,,,,,,,,,,None,None,None,,None,None,378.1539969550213,None,1,1,0.721735195023939,378.1539969550213,None,378.8716292986413,None,None,None,None,,32,001,2023_Jan_24_1529,searchDisc5,2021.2.3,59.8113787088857,
images/exp2c_trial_298_colour3_distractors1_r.png,r,3,3,1,0,,,,,0,11,11,11,,,,,,,,,,,,,,,,,,,,,,,,,,,,,,,,,,,,,,,,,,,378.887890543032,None,2,0.7897058709640987,378.887890543032,None,,,,,,,,,,,,,,,,None,None,None,,None,None,379.7236649999977,None,3,1,0.6373871320392936,379.7236649999977,None,380.3550774286035,None,None,None,None,,32,001,2023_Jan_24_1529,searchDisc5,2021.2.3,59.8113787088857,
images/exp2c_trial_297_colour2_distractors31_r.png,r,3,2,31,0,,,,,0,12,12,12,,,,,,,,,,,,,,,,,,,,,,,,,,,,,,,,,,,,,,,,,,,380.37080360302934,None,2,0.7377196190063842,380.37080360302934,None,,,,,,,,,,,,,,,,None,None,None,,None,None,381.1570594070363,None,3,1,0.6195279020466842,381.1570594070363,None,381.7714536115876,None,None,None,None,,32,001,2023_Jan_24_1529,searchDisc5,2021.2.3,59.8113787088857,
images/exp1a_trial_83_colour1_distractors31_l.png,l,1,1,31,0,,,,,0,13,13,13,,,,,,,,,,,,,,,,,,,,,,,,,,,,,,,,,,,,,,,,,,,381.78801819402725,None,2,0.8049348699860275,381.78801819402725,None,,,,,,,,,,,,,,,,None,None,None,,None,None,382.639896409004,None,1,1,0.8336808719905093,382.639896409004,None,383.4713843895937,None,None,None,None,,32,001,2023_Jan_24_1529,searchDisc5,2021.2.3,59.8113787088857,
images/exp2a_trial_25_colour3_distractors1_l.png,l,1,3,1,0,,,,,0,14,14,14,,,,,,,,,,,,,,,,,,,,,,,,,,,,,,,,,,,,,,,,,,,383.4881782660377,None,2,1.0710705880192108,383.4881782660377,None,,,,,,,,,,,,,,,,None,None,None,,None,None,384.60698431602214,None,1,1,0.7413448430015706,384.60698431602214,None,385.338322643633,None,None,None,None,,32,001,2023_Jan_24_1529,searchDisc5,2021.2.3,59.8113787088857,
images/exp2b_trial_58_colour3_distractors4_l.png,l,1,3,4,0,,,,,0,15,15,15,,,,,,,,,,,,,,,,,,,,,,,,,,,,,,,,,,,,,,,,,,,385.3548205940169,None,2,1.369920598983299,385.3548205940169,None,,,,,,,,,,,,,,,,None,None,None,,None,None,386.77163706102874,None,1,1,0.8237406099797226,386.77163706102874,None,387.58844219663877,None,None,None,None,,32,001,2023_Jan_24_1529,searchDisc5,2021.2.3,59.8113787088857,
images/exp1a_trial_127_colour0_distractors0_l.png,l,1,0,0,0,,,,,0,16,16,16,,,,,,,,,,,,,,,,,,,,,,,,,,,,,,,,,,,,,,,,,,,387.60445281799184,None,2,1.4371416580397636,387.60445281799184,None,,,,,,,,,,,,,,,,None,None,None,,None,None,389.08780128200306,None,1,1,0.5570362909929827,389.08780128200306,None,389.6384957136237,None,None,None,None,,32,001,2023_Jan_24_1529,searchDisc5,2021.2.3,59.8113787088857,
images/exp2b_trial_29_colour3_distractors31_l.png,l,1,3,31,0,,,,,0,17,17,17,,,,,,,,,,,,,,,,,,,,,,,,,,,,,,,,,,,,,,,,,,,389.65654730401,None,2,0.7898664320237003,389.65654730401,None,,,,,,,,,,,,,,,,None,None,None,,None,None,390.4884745000163,None,1,1,0.6516172550036572,390.4884745000163,None,391.1387214316404,None,None,None,None,,32,001,2023_Jan_24_1529,searchDisc5,2021.2.3,59.8113787088857,
images/exp1a_trial_233_colour2_distractors31_r.png,r,3,2,31,0,,,,,0,18,18,18,,,,,,,,,,,,,,,,,,,,,,,,,,,,,,,,,,,,,,,,,,,391.154596753011,None,2,0.8074273979873396,391.154596753011,None,,,,,,,,,,,,,,,,None,None,None,,None,None,392.00713765702676,None,3,1,0.5814500819542445,392.00713765702676,None,392.58877883360253,None,None,None,None,,32,001,2023_Jan_24_1529,searchDisc5,2021.2.3,59.8113787088857,
images/exp2b_trial_231_colour2_distractors9_r.png,r,3,2,9,0,,,,,0,19,19,19,,,,,,,,,,,,,,,,,,,,,,,,,,,,,,,,,,,,,,,,,,,392.6045274120406,None,2,0.8878591419779696,392.6045274120406,None,,,,,,,,,,,,,,,,None,None,None,,None,None,393.540542894043,None,3,1,0.8385666609974578,393.540542894043,None,394.3719206765876,None,None,None,None,,32,001,2023_Jan_24_1529,searchDisc5,2021.2.3,59.8113787088857,
images/exp2a_trial_273_colour1_distractors9_l.png,l,1,1,9,0,,,,,0,20,20,20,,,,,,,,,,,,,,,,,,,,,,,,,,,,,,,,,,,,,,,,,,,394.38796921801986,None,2,0.8878282950026914,394.38796921801986,None,,,,,,,,,,,,,,,,None,None,None,,None,None,395.3242324379971,None,1,1,0.7904466629843228,395.3242324379971,None,396.10537431264527,None,None,None,None,,32,001,2023_Jan_24_1529,searchDisc5,2021.2.3,59.8113787088857,
images/exp2a_trial_1_colour1_distractors4_r.png,r,3,1,4,0,,,,,0,21,21,21,,,,,,,,,,,,,,,,,,,,,,,,,,,,,,,,,,,,,,,,,,,396.1213324959972,None,2,0.9024499179795384,396.1213324959972,None,,,,,,,,,,,,,,,,None,None,None,,None,None,397.07363819901366,None,3,1,0.7379520640242845,397.07363819901366,None,397.8053513536346,None,None,None,None,,32,001,2023_Jan_24_1529,searchDisc5,2021.2.3,59.8113787088857,
images/exp2a_trial_310_colour2_distractors9_l.png,l,1,2,9,0,,,,,0,22,22,22,,,,,,,,,,,,,,,,,,,,,,,,,,,,,,,,,,,,,,,,,,,397.8213800539961,None,2,0.8211484670173377,397.8213800539961,None,,,,,,,,,,,,,,,,None,None,None,,None,None,398.69021046400303,None,1,1,0.6687147280317731,398.69021046400303,None,399.35570830564245,None,None,None,None,,32,001,2023_Jan_24_1529,searchDisc5,2021.2.3,59.8113787088857,
images/exp2b_trial_318_colour0_distractors0_r.png,r,3,0,0,0,,,,,0,23,23,23,,,,,,,,,,,,,,,,,,,,,,,,,,,,,,,,,,,,,,,,,,,399.37180604803143,None,2,0.7883834979729727,399.37180604803143,None,,,,,,,,,,,,,,,,None,None,None,,None,None,400.20720597100444,None,3,1,0.6545602400437929,400.20720597100444,None,400.85554875960804,None,None,None,None,,32,001,2023_Jan_24_1529,searchDisc5,2021.2.3,59.8113787088857,
images/exp2b_trial_259_colour1_distractors19_r.png,r,3,1,19,0,,,,,0,24,24,24,,,,,,,,,,,,,,,,,,,,,,,,,,,,,,,,,,,,,,,,,,,400.87184590502875,None,2,0.7711374249774963,400.87184590502875,None,,,,,,,,,,,,,,,,None,None,None,,None,None,401.6909292360069,None,3,1,0.6880932730273344,401.6909292360069,None,402.3721659516217,None,None,None,None,,32,001,2023_Jan_24_1529,searchDisc5,2021.2.3,59.8113787088857,
images/exp2b_trial_148_colour2_distractors1_l.png,l,1,2,1,0,,,,,0,25,25,25,,,,,,,,,,,,,,,,,,,,,,,,,,,,,,,,,,,,,,,,,,,402.39068965404294,None,2,1.1564604290178977,402.39068965404294,None,,,,,,,,,,,,,,,,None,None,None,,None,None,403.5884592970251,None,1,1,0.6878768280148506,403.5884592970251,None,404.2722192866262,None,None,None,None,,32,001,2023_Jan_24_1529,searchDisc5,2021.2.3,59.8113787088857,
images/exp2c_trial_296_colour2_distractors19_r.png,r,3,2,19,0,,,,,0,26,26,26,,,,,,,,,,,,,,,,,,,,,,,,,,,,,,,,,,,,,,,,,,,404.2885411530151,None,2,1.1731313400086947,404.2885411530151,None,,,,,,,,,,,,,,,,None,None,None,,None,None,405.5058023930178,None,3,1,0.6351563730277121,405.5058023930178,None,406.13884839762466,None,None,None,None,,32,001,2023_Jan_24_1529,searchDisc5,2021.2.3,59.8113787088857,
images/exp2a_trial_142_colour3_distractors31_r.png,r,3,3,31,0,,,,,0,27,27,27,,,,,,,,,,,,,,,,,,,,,,,,,,,,,,,,,,,,,,,,,,,406.1552378810011,None,2,0.8874690340016969,406.1552378810011,None,,,,,,,,,,,,,,,,None,None,None,,None,None,407.08896131499205,None,3,1,0.6201483060140163,407.08896131499205,None,407.7057829306344,None,None,None,None,,32,001,2023_Jan_24_1529,searchDisc5,2021.2.3,59.8113787088857,
images/exp2c_trial_33_colour1_distractors4_r.png,r,3,1,4,0,,,,,0,28,28,28,,,,,,,,,,,,,,,,,,,,,,,,,,,,,,,,,,,,,,,,,,,407.72169384598965,None,2,1.354460530972574,407.72169384598965,None,,,,,,,,,,,,,,,,None,None,None,,None,None,409.1224025110132,None,3,1,0.5562042910023592,409.1224025110132,None,409.67259912359293,None,None,None,None,,32,001,2023_Jan_24_1529,searchDisc5,2021.2.3,59.8113787088857,
images/exp2a_trial_150_colour2_distractors9_l.png,l,1,2,9,0,,,,,0,29,29,29,,,,,,,,,,,,,,,,,,,,,,,,,,,,,,,,,,,,,,,,,,,409.68890165298944,None,2,0.870792937988881,409.68890165298944,None,,,,,,,,,,,,,,,,None,None,None,,None,None,410.6071968700271,None,1,1,0.5838914859923534,410.6071968700271,None,411.1891067226301,None,None,None,None,,32,001,2023_Jan_24_1529,searchDisc5,2021.2.3,59.8113787088857,
images/exp2c_trial_88_colour2_distractors31_l.png,l,1,2,31,0,,,,,0,30,30,30,,,,,,,,,,,,,,,,,,,,,,,,,,,,,,,,,,,,,,,,,,,411.20511235599406,None,2,1.3213533950038254,411.20511235599406,None,,,,,,,,,,,,,,,,None,None,None,,None,None,412.5721315270057,None,1,1,0.6349841000046581,412.5721315270057,None,413.2060707215918,None,None,None,None,,32,001,2023_Jan_24_1529,searchDisc5,2021.2.3,59.8113787088857,
images/exp2a_trial_279_colour2_distractors19_l.png,l,1,2,19,0,,,,,0,31,31,31,,,,,,,,,,,,,,,,,,,,,,,,,,,,,,,,,,,,,,,,,,,413.2219990530284,None,2,6.904214549052995,413.2219990530284,None,,,,,,,,,,,,,,,,None,None,None,,None,None,420.1723470960278,None,1,1,0.6814504259964451,420.1723470960278,None,420.85597553660625,None,None,None,None,,32,001,2023_Jan_24_1529,searchDisc5,2021.2.3,59.8113787088857,
images/exp1a_trial_198_colour2_distractors4_r.png,r,3,2,4,0,,,,,0,32,32,32,,,,,,,,,,,,,,,,,,,,,,,,,,,,,,,,,,,,,,,,,,,420.8720923970104,None,2,0.6878681770176627,420.8720923970104,None,,,,,,,,,,,,,,,,None,None,None,,None,None,421.60567810200155,None,3,1,0.58888364903396,421.60567810200155,None,422.1895244185929,None,None,None,None,,32,001,2023_Jan_24_1529,searchDisc5,2021.2.3,59.8113787088857,
images/exp2c_trial_198_colour2_distractors4_r.png,r,3,2,4,0,,,,,0,33,33,33,,,,,,,,,,,,,,,,,,,,,,,,,,,,,,,,,,,,,,,,,,,422.20580922201043,None,2,0.6878922270261683,422.20580922201043,None,,,,,,,,,,,,,,,,None,None,None,,None,None,422.9393217540346,None,3,1,0.5723865940235555,422.9393217540346,None,423.50604019364107,None,None,None,None,,32,001,2023_Jan_24_1529,searchDisc5,2021.2.3,59.8113787088857,
images/exp2c_trial_121_colour3_distractors1_l.png,l,1,3,1,0,,,,,0,34,34,34,,,,,,,,,,,,,,,,,,,,,,,,,,,,,,,,,,,,,,,,,,,423.52238071500324,None,2,0.8564703690353781,423.52238071500324,None,,,,,,,,,,,,,,,,None,None,None,,None,None,424.42236756603234,None,1,1,0.6879222739953548,424.42236756603234,None,425.10611368963725,None,None,None,None,,32,001,2023_Jan_24_1529,searchDisc5,2021.2.3,59.8113787088857,
images/exp2c_trial_253_colour3_distractors31_l.png,l,1,3,31,0,,,,,0,35,35,35,,,,,,,,,,,,,,,,,,,,,,,,,,,,,,,,,,,,,,,,,,,425.12256619299296,None,2,0.57127372501418,425.12256619299296,None,,,,,,,,,,,,,,,,None,None,None,,None,None,425.7391964350245,None,1,1,0.7339697789866477,425.7391964350245,None,426.47231436064465,None,None,None,None,,32,001,2023_Jan_24_1529,searchDisc5,2021.2.3,59.8113787088857,
images/exp2b_trial_124_colour3_distractors19_l.png,l,1,3,19,0,,,,,0,36,36,36,,,,,,,,,,,,,,,,,,,,,,,,,,,,,,,,,,,,,,,,,,,426.4891727149952,None,2,0.6383860349887982,426.4891727149952,None,,,,,,,,,,,,,,,,None,None,None,,None,None,427.17230168299284,None,1,1,0.6379601249936968,427.17230168299284,None,427.8061680876184,None,None,None,None,,32,001,2023_Jan_24_1529,searchDisc5,2021.2.3,59.8113787088857,
images/exp2b_trial_113_colour1_distractors9_l.png,l,1,1,9,0,,,,,0,37,37,37,,,,,,,,,,,,,,,,,,,,,,,,,,,,,,,,,,,,,,,,,,,427.8243280170136,None,2,0.6043044050456956,427.8243280170136,None,,,,,,,,,,,,,,,,None,None,None,,None,None,428.472819919989,None,1,1,0.8386843710322864,428.472819919989,None,429.30639612462835,None,None,None,None,,32,001,2023_Jan_24_1529,searchDisc5,2021.2.3,59.8113787088857,
images/exp1a_trial_74_colour3_distractors1_r.png,r,3,3,1,0,,,,,0,38,38,38,,,,,,,,,,,,,,,,,,,,,,,,,,,,,,,,,,,,,,,,,,,429.32420690800063,None,2,0.5567716190125793,429.32420690800063,None,,,,,,,,,,,,,,,,None,None,None,,None,None,429.925049929996,None,3,1,0.62195622199215,429.925049929996,None,430.53961671863215,None,None,None,None,,32,001,2023_Jan_24_1529,searchDisc5,2021.2.3,59.8113787088857,
images/exp2a_trial_255_colour0_distractors0_l.png,l,1,0,0,0,,,,,0,39,39,39,,,,,,,,,,,,,,,,,,,,,,,,,,,,,,,,,,,,,,,,,,,430.55579063203186,None,2,0.6056216300348751,430.55579063203186,None,,,,,,,,,,,,,,,,None,None,None,,None,None,431.20814438100206,None,1,1,0.6208672859938815,431.20814438100206,None,431.82261025862533,None,None,None,None,,32,001,2023_Jan_24_1529,searchDisc5,2021.2.3,59.8113787088857,
images/exp1a_trial_190_colour0_distractors0_r.png,r,3,0,0,0,,,,,0,40,40,40,,,,,,,,,,,,,,,,,,,,,,,,,,,,,,,,,,,,,,,,,,,431.83885704900604,None,2,0.5880965039832518,431.83885704900604,None,,,,,,,,,,,,,,,,None,None,None,,None,None,432.4750552070327,None,3,1,0.8707935929996893,432.4750552070327,None,433.3397389446385,None,None,None,None,,32,001,2023_Jan_24_1529,searchDisc5,2021.2.3,59.8113787088857,
images/exp2c_trial_125_colour3_distractors31_l.png,l,1,3,31,0,,,,,0,41,41,41,,,,,,,,,,,,,,,,,,,,,,,,,,,,,,,,,,,,,,,,,,,433.3560979969916,None,2,0.6396278999745846,433.3560979969916,None,,,,,,,,,,,,,,,,None,None,None,,None,None,434.0396559840301,None,1,1,0.6842482640058734,434.0396559840301,None,434.722275692597,None,None,None,None,,32,001,2023_Jan_24_1529,searchDisc5,2021.2.3,59.8113787088857,
images/exp1a_trial_249_colour3_distractors1_l.png,l,1,3,1,0,,,,,0,42,42,42,,,,,,,,,,,,,,,,,,,,,,,,,,,,,,,,,,,,,,,,,,,434.7395101120346,None,2,0.5740449900040403,434.7395101120346,None,,,,,,,,,,,,,,,,None,None,None,,None,None,435.35890698601725,None,1,1,0.638244820991531,435.35890698601725,None,435.9900147575885,None,None,None,None,,32,001,2023_Jan_24_1529,searchDisc5,2021.2.3,59.8113787088857,
images/exp2a_trial_99_colour1_distractors19_r.png,r,3,1,19,0,,,,,0,43,43,43,,,,,,,,,,,,,,,,,,,,,,,,,,,,,,,,,,,,,,,,,,,436.0059570519952,None,2,0.5372915370389819,436.0059570519952,None,,,,,,,,,,,,,,,,None,None,None,,None,None,436.5921126540052,None,3,1,0.6034225870389491,436.5921126540052,None,437.18927061660213,None,None,None,None,,32,001,2023_Jan_24_1529,searchDisc5,2021.2.3,59.8113787088857,
images/exp2a_trial_250_colour3_distractors4_l.png,l,1,3,4,0,,,,,0,44,44,44,,,,,,,,,,,,,,,,,,,,,,,,,,,,,,,,,,,,,,,,,,,437.20812412298983,None,2,0.605070341960527,437.20812412298983,None,,,,,,,,,,,,,,,,None,None,None,,None,None,437.85641882399796,None,1,1,0.5220971800154075,437.85641882399796,None,438.37307778859974,None,None,None,None,,32,001,2023_Jan_24_1529,searchDisc5,2021.2.3,59.8113787088857,
images/exp2c_trial_158_colour0_distractors0_r.png,r,3,0,0,0,,,,,0,45,45,45,,,,,,,,,,,,,,,,,,,,,,,,,,,,,,,,,,,,,,,,,,,438.3891530529945,None,2,0.7733425719779916,438.3891530529945,None,,,,,,,,,,,,,,,,None,None,None,,None,None,439.20802342903335,None,3,1,0.638117283990141,439.20802342903335,None,439.8399138826411,None,None,None,None,,32,001,2023_Jan_24_1529,searchDisc5,2021.2.3,59.8113787088857,
images/exp2b_trial_255_colour0_distractors0_l.png,l,1,0,0,0,,,,,0,46,46,46,,,,,,,,,,,,,,,,,,,,,,,,,,,,,,,,,,,,,,,,,,,439.85589440498734,None,2,7.704790009011049,439.85589440498734,None,,,,,,,,,,,,,,,,None,None,None,,None,None,447.60662502003834,None,1,1,0.68975333601702,447.60662502003834,None,448.2899503755965,None,None,None,None,,32,001,2023_Jan_24_1529,searchDisc5,2021.2.3,59.8113787088857,
images/exp2a_trial_247_colour2_distractors19_l.png,l,1,2,19,0,,,,,0,47,47,47,,,,,,,,,,,,,,,,,,,,,,,,,,,,,,,,,,,,,,,,,,,448.3061645050184,None,2,0.4877994010457769,448.3061645050184,None,,,,,,,,,,,,,,,,None,None,None,,None,None,448.84210979699856,None,1,1,0.7648691200301982,448.84210979699856,None,449.606905729603,None,None,None,None,,32,001,2023_Jan_24_1529,searchDisc5,2021.2.3,59.8113787088857,
images/exp1a_trial_165_colour2_distractors1_r.png,r,3,2,1,0,,,,,0,48,48,48,,,,,,,,,,,,,,,,,,,,,,,,,,,,,,,,,,,,,,,,,,,449.62320270302007,None,2,0.5207334869774058,449.62320270302007,None,,,,,,,,,,,,,,,,None,None,None,,None,None,450.19205518398667,None,3,1,0.7229166110046208,450.19205518398667,None,450.9067702726228,None,None,None,None,,32,001,2023_Jan_24_1529,searchDisc5,2021.2.3,59.8113787088857,
images/exp2b_trial_295_colour2_distractors9_r.png,r,3,2,9,0,,,,,0,49,49,49,,,,,,,,,,,,,,,,,,,,,,,,,,,,,,,,,,,,,,,,,,,450.923363428039,None,2,0.49014247994637117,450.923363428039,None,,,,,,,,,,,,,,,,None,None,None,,None,None,451.4568786940072,None,3,1,0.6365855250041932,451.4568786940072,None,452.0904003735981,None,None,None,None,,32,001,2023_Jan_24_1529,searchDisc5,2021.2.3,59.8113787088857,
images/exp2c_trial_108_colour3_distractors9_r.png,r,3,3,9,0,,,,,0,50,50,50,,,,,,,,,,,,,,,,,,,,,,,,,,,,,,,,,,,,,,,,,,,452.10868808004307,None,2,0.487534791987855,452.10868808004307,None,,,,,,,,,,,,,,,,None,None,None,,None,None,452.64207463001367,None,3,1,0.6553945160121657,452.64207463001367,None,453.29023573964366,None,None,None,None,,32,001,2023_Jan_24_1529,searchDisc5,2021.2.3,59.8113787088857,
images/exp1a_trial_282_colour3_distractors4_l.png,l,1,3,4,0,,,,,0,51,51,51,,,,,,,,,,,,,,,,,,,,,,,,,,,,,,,,,,,,,,,,,,,453.3065219669952,None,2,0.5729734739870764,453.3065219669952,None,,,,,,,,,,,,,,,,None,None,None,,None,None,453.9256559800124,None,1,1,0.7035321670118719,453.9256559800124,None,454.6235674486146,None,None,None,None,,32,001,2023_Jan_24_1529,searchDisc5,2021.2.3,59.8113787088857,
images/exp2b_trial_319_colour0_distractors0_l.png,l,1,0,0,0,,,,,0,52,52,52,,,,,,,,,,,,,,,,,,,,,,,,,,,,,,,,,,,,,,,,,,,454.6394002379966,None,2,0.6233260430162773,454.6394002379966,None,,,,,,,,,,,,,,,,None,None,None,,None,None,455.3093947300222,None,1,1,0.9881386260385625,455.3093947300222,None,456.29034394361076,None,None,None,None,,32,001,2023_Jan_24_1529,searchDisc5,2021.2.3,59.8113787088857,
images/exp1a_trial_168_colour2_distractors19_r.png,r,3,2,19,0,,,,,0,53,53,53,,,,,,,,,,,,,,,,,,,,,,,,,,,,,,,,,,,,,,,,,,,456.30676347302506,None,2,1.7546247799764387,456.30676347302506,None,,,,,,,,,,,,,,,,None,None,None,,None,None,458.1068474770291,None,3,1,0.5358115450362675,458.1068474770291,None,458.64036040360804,None,None,None,None,,32,001,2023_Jan_24_1529,searchDisc5,2021.2.3,59.8113787088857,
images/exp2a_trial_36_colour1_distractors31_r.png,r,3,1,31,0,,,,,0,54,54,54,,,,,,,,,,,,,,,,,,,,,,,,,,,,,,,,,,,,,,,,,,,458.6565438369871,None,2,0.5377550140256062,458.6565438369871,None,,,,,,,,,,,,,,,,None,None,None,,None,None,459.2422807360417,None,3,1,0.586515603994485,459.2422807360417,None,459.82374069063223,None,None,None,None,,32,001,2023_Jan_24_1529,searchDisc5,2021.2.3,59.8113787088857,
images/exp2a_trial_159_colour0_distractors0_l.png,l,1,0,0,0,,,,,0,55,55,55,,,,,,,,,,,,,,,,,,,,,,,,,,,,,,,,,,,,,,,,,,,459.83955939504085,None,2,0.6370629849843681,459.83955939504085,None,,,,,,,,,,,,,,,,None,None,None,,None,None,460.5236753000063,None,1,1,0.5398841699934565,460.5236753000063,None,461.05656854159895,None,None,None,None,,32,001,2023_Jan_24_1529,searchDisc5,2021.2.3,59.8113787088857,
images/exp2c_trial_20_colour2_distractors1_l.png,l,1,2,1,0,,,,,0,56,56,56,,,,,,,,,,,,,,,,,,,,,,,,,,,,,,,,,,,,,,,,,,,461.0736713760416,None,2,0.48821745201712474,461.0736713760416,None,,,,,,,,,,,,,,,,None,None,None,,None,None,461.6068921080441,None,1,1,0.573906758974772,461.6068921080441,None,462.17377317060016,None,None,None,None,,32,001,2023_Jan_24_1529,searchDisc5,2021.2.3,59.8113787088857,
images/exp1a_trial_213_colour2_distractors4_l.png,l,1,2,4,0,,,,,0,57,57,57,,,,,,,,,,,,,,,,,,,,,,,,,,,,,,,,,,,,,,,,,,,462.18999029003317,None,2,0.7207869239500724,462.18999029003317,None,,,,,,,,,,,,,,,,None,None,None,,None,None,462.9592632370186,None,1,1,0.5553161080460995,462.9592632370186,None,463.5071024186094,None,None,None,None,,32,001,2023_Jan_24_1529,searchDisc5,2021.2.3,59.8113787088857,
images/exp2c_trial_130_colour1_distractors9_r.png,r,3,1,9,0,,,,,0,58,58,58,,,,,,,,,,,,,,,,,,,,,,,,,,,,,,,,,,,,,,,,,,,463.52311971003655,None,2,0.47447174903936684,463.52311971003655,None,,,,,,,,,,,,,,,,None,None,None,,None,None,464.0429447499919,None,3,1,0.5185163129935972,464.0429447499919,None,464.55719402063403,None,None,None,None,,32,001,2023_Jan_24_1529,searchDisc5,2021.2.3,59.8113787088857,
images/exp2c_trial_178_colour1_distractors19_l.png,l,1,1,19,0,,,,,0,59,59,59,,,,,,,,,,,,,,,,,,,,,,,,,,,,,,,,,,,,,,,,,,,464.57316413201625,None,2,0.5213518230011687,464.57316413201625,None,,,,,,,,,,,,,,,,None,None,None,,None,None,465.14013320801314,None,1,1,0.6375329739530571,465.14013320801314,None,465.7739508645958,None,None,None,None,,32,001,2023_Jan_24_1529,searchDisc5,2021.2.3,59.8113787088857,
images/exp2b_trial_24_colour2_distractors31_l.png,l,1,2,31,0,,,,,0,60,60,60,,,,,,,,,,,,,,,,,,,,,,,,,,,,,,,,,,,,,,,,,,,465.7899963349919,None,2,0.4891280209994875,465.7899963349919,None,,,,,,,,,,,,,,,,None,None,None,,None,None,466.32318606204353,None,1,1,0.7021153540117666,466.32318606204353,None,467.0242405126104,None,None,None,None,,32,001,2023_Jan_24_1529,searchDisc5,2021.2.3,59.8113787088857,
images/exp1a_trial_148_colour2_distractors1_l.png,l,1,2,1,0,,,,,0,61,61,61,,,,,,,,,,,,,,,,,,,,,,,,,,,,,,,,,,,,,,,,,,,467.04228609101847,None,2,0.48779547202866524,467.04228609101847,None,,,,,,,,,,,,,,,,None,None,None,,None,None,467.5760473870323,None,1,1,0.6063769100001082,467.5760473870323,None,468.1738798896316,None,None,None,None,,32,001,2023_Jan_24_1529,searchDisc5,2021.2.3,59.8113787088857,
images/exp2c_trial_152_colour2_distractors31_l.png,l,1,2,31,0,,,,,0,62,62,62,,,,,,,,,,,,,,,,,,,,,,,,,,,,,,,,,,,,,,,,,,,468.19034737499896,None,2,0.5213531889603473,468.19034737499896,None,,,,,,,,,,,,,,,,None,None,None,,None,None,468.75937642902136,None,1,1,0.6197784430114552,468.75937642902136,None,469.3736620475887,None,None,None,None,,32,001,2023_Jan_24_1529,searchDisc5,2021.2.3,59.8113787088857,
images/exp1a_trial_277_colour2_distractors4_l.png,l,1,2,4,0,,,,,0,63,63,63,,,,,,,,,,,,,,,,,,,,,,,,,,,,,,,,,,,,,,,,,,,469.390474646003,None,2,5.7756972489878535,469.390474646003,None,,,,,,,,,,,,,,,,None,None,None,,None,None,475.2094482050161,None,1,1,0.6849356589955278,475.2094482050161,None,475.8909807296353,None,None,None,None,,32,001,2023_Jan_24_1529,searchDisc5,2021.2.3,59.8113787088857,
images/exp1a_trial_43_colour3_distractors4_r.png,r,3,3,4,0,,,,,0,64,64,64,,,,,,,,,,,,,,,,,,,,,,,,,,,,,,,,,,,,,,,,,,,475.9092918880051,None,2,0.4712019090075046,475.9092918880051,None,,,,,,,,,,,,,,,,None,None,None,,None,None,476.4243506549974,None,3,1,0.5060021230019629,476.4243506549974,None,476.92430241962427,None,None,None,None,,32,001,2023_Jan_24_1529,searchDisc5,2021.2.3,59.8113787088857,
images/exp2a_trial_44_colour3_distractors9_r.png,r,3,3,9,0,,,,,0,65,65,65,,,,,,,,,,,,,,,,,,,,,,,,,,,,,,,,,,,,,,,,,,,476.9405420779949,None,2,0.5208830070332624,476.9405420779949,None,,,,,,,,,,,,,,,,None,None,None,,None,None,477.50750802399125,None,3,1,1.0218187799910083,477.50750802399125,None,478.5243815796333,None,None,None,None,,32,001,2023_Jan_24_1529,searchDisc5,2021.2.3,59.8113787088857,
images/exp1a_trial_229_colour2_distractors1_r.png,r,3,2,1,0,,,,,0,66,66,66,,,,,,,,,,,,,,,,,,,,,,,,,,,,,,,,,,,,,,,,,,,478.5403402330121,None,2,0.4898798369686119,478.5403402330121,None,,,,,,,,,,,,,,,,None,None,None,,None,None,479.0741873829975,None,3,1,0.504441158962436,479.0741873829975,None,479.57437764059284,None,None,None,None,,32,001,2023_Jan_24_1529,searchDisc5,2021.2.3,59.8113787088857,
images/exp2c_trial_55_colour2_distractors19_l.png,l,1,2,19,0,,,,,0,67,67,67,,,,,,,,,,,,,,,,,,,,,,,,,,,,,,,,,,,,,,,,,,,479.59271095204167,None,2,0.4378010479849763,479.59271095204167,None,,,,,,,,,,,,,,,,None,None,None,,None,None,480.07368288602447,None,1,1,0.6045553390285932,480.07368288602447,None,480.6744488675962,None,None,None,None,,32,001,2023_Jan_24_1529,searchDisc5,2021.2.3,59.8113787088857,
images/exp1a_trial_119_colour2_distractors19_l.png,l,1,2,19,0,,,,,0,68,68,68,,,,,,,,,,,,,,,,,,,,,,,,,,,,,,,,,,,,,,,,,,,480.6902591580292,None,2,0.8381100599654019,480.6902591580292,None,,,,,,,,,,,,,,,,None,None,None,,None,None,481.5745700400439,None,1,1,0.6516306009725668,481.5745700400439,None,482.22456528861073,None,None,None,None,,32,001,2023_Jan_24_1529,searchDisc5,2021.2.3,59.8113787088857,
images/exp2c_trial_285_colour3_distractors31_l.png,l,1,3,31,0,,,,,0,69,69,69,,,,,,,,,,,,,,,,,,,,,,,,,,,,,,,,,,,,,,,,,,,482.24080625298666,None,2,0.773120020981878,482.24080625298666,None,,,,,,,,,,,,,,,,None,None,None,,None,None,483.05979768303223,None,1,1,0.6344305580132641,483.05979768303223,None,483.6908295486122,None,None,None,None,,32,001,2023_Jan_24_1529,searchDisc5,2021.2.3,59.8113787088857,
images/exp2c_trial_52_colour2_distractors1_l.png,l,1,2,1,0,,,,,0,70,70,70,,,,,,,,,,,,,,,,,,,,,,,,,,,,,,,,,,,,,,,,,,,483.7075231630006,None,2,8.371643544989638,483.7075231630006,None,,,,,,,,,,,,,,,,None,None,None,,None,None,492.12437400902854,None,1,1,0.6219697780325077,492.12437400902854,None,492.74141844260737,None,None,None,None,,32,001,2023_Jan_24_1529,searchDisc5,2021.2.3,59.8113787088857,
images/exp2b_trial_287_colour0_distractors0_l.png,l,1,0,0,0,,,,,0,71,71,71,,,,,,,,,,,,,,,,,,,,,,,,,,,,,,,,,,,,,,,,,,,492.75744260201463,None,2,0.4064482059911825,492.75744260201463,None,,,,,,,,,,,,,,,,None,None,None,,None,None,493.2099782740115,None,1,1,0.5009471460361965,493.2099782740115,None,493.7080450486159,None,None,None,None,,32,001,2023_Jan_24_1529,searchDisc5,2021.2.3,59.8113787088857,
images/exp2a_trial_95_colour0_distractors0_l.png,l,1,0,0,0,,,,,0,72,72,72,,,,,,,,,,,,,,,,,,,,,,,,,,,,,,,,,,,,,,,,,,,493.7244071250316,None,2,0.3878730880096555,493.7244071250316,None,,,,,,,,,,,,,,,,None,None,None,,None,None,494.1598679739982,None,1,1,0.4892241589841433,494.1598679739982,None,494.64141278764,None,None,None,None,,32,001,2023_Jan_24_1529,searchDisc5,2021.2.3,59.8113787088857,
images/exp1a_trial_257_colour1_distractors4_r.png,r,3,1,4,0,,,,,0,73,73,73,,,,,,,,,,,,,,,,,,,,,,,,,,,,,,,,,,,,,,,,,,,494.6578116940218,None,2,0.4231412459630519,494.6578116940218,None,,,,,,,,,,,,,,,,None,None,None,,None,None,495.12632587202825,None,3,1,0.6867601849953644,495.12632587202825,None,495.8081245076377,None,None,None,None,,32,001,2023_Jan_24_1529,searchDisc5,2021.2.3,59.8113787088857,
images/exp2b_trial_116_colour2_distractors1_l.png,l,1,2,1,0,,,,,0,74,74,74,,,,,,,,,,,,,,,,,,,,,,,,,,,,,,,,,,,,,,,,,,,495.8261270709918,None,2,0.43771783798001707,495.8261270709918,None,,,,,,,,,,,,,,,,None,None,None,,None,None,496.3079871920054,None,1,1,0.6895605190075003,496.3079871920054,None,496.9916565926163,None,None,None,None,,32,001,2023_Jan_24_1529,searchDisc5,2021.2.3,59.8113787088857,
images/exp1a_trial_101_colour2_distractors1_r.png,r,3,2,1,0,,,,,0,75,75,75,,,,,,,,,,,,,,,,,,,,,,,,,,,,,,,,,,,,,,,,,,,497.0075591930072,None,2,0.45842022699071094,497.0075591930072,None,,,,,,,,,,,,,,,,None,None,None,,None,None,497.5098950249958,None,3,1,0.6865323439706117,497.5098950249958,None,498.1913908276241,None,None,None,None,,32,001,2023_Jan_24_1529,searchDisc5,2021.2.3,59.8113787088857,
images/exp2a_trial_154_colour3_distractors4_l.png,l,1,3,4,0,,,,,0,76,76,76,,,,,,,,,,,,,,,,,,,,,,,,,,,,,,,,,,,,,,,,,,,498.2102136850008,None,2,0.45261767297051847,498.2102136850008,None,,,,,,,,,,,,,,,,None,None,None,,None,None,498.70812217803905,None,1,1,0.6241134279989637,498.70812217803905,None,499.3249524766346,None,None,None,None,,32,001,2023_Jan_24_1529,searchDisc5,2021.2.3,59.8113787088857,
images/exp1a_trial_274_colour1_distractors19_l.png,l,1,1,19,0,,,,,0,77,77,77,,,,,,,,,,,,,,,,,,,,,,,,,,,,,,,,,,,,,,,,,,,499.34076612401986,None,2,0.5882853320217691,499.34076612401986,None,,,,,,,,,,,,,,,,None,None,None,,None,None,499.9763118500123,None,1,1,0.8666011799941771,499.9763118500123,None,500.84175404158884,None,None,None,None,,32,001,2023_Jan_24_1529,searchDisc5,2021.2.3,59.8113787088857,
images/exp2a_trial_82_colour1_distractors19_l.png,l,1,1,19,0,,,,,0,78,78,78,,,,,,,,,,,,,,,,,,,,,,,,,,,,,,,,,,,,,,,,,,,500.857880805037,None,2,0.5041614520014264,500.857880805037,None,,,,,,,,,,,,,,,,None,None,None,,None,None,501.40827070799423,None,1,1,0.6372357300133444,501.40827070799423,None,502.04161473559213,None,None,None,None,,32,001,2023_Jan_24_1529,searchDisc5,2021.2.3,59.8113787088857,
images/exp1a_trial_315_colour3_distractors9_l.png,l,1,3,9,0,,,,,0,79,79,79,,,,,,,,,,,,,,,,,,,,,,,,,,,,,,,,,,,,,,,,,,,502.05752330704127,None,2,0.5222697680001147,502.05752330704127,None,,,,,,,,,,,,,,,,None,None,None,,None,None,502.6267149570049,None,1,1,0.5702049829997122,502.6267149570049,None,503.1915731006069,None,None,None,None,,32,001,2023_Jan_24_1529,searchDisc5,2021.2.3,59.8113787088857,
images/exp2a_trial_4_colour1_distractors31_r.png,r,3,1,31,0,,,,,0,80,80,80,,,,,,,,,,,,,,,,,,,,,,,,,,,,,,,,,,,,,,,,,,,503.20737224502955,None,2,0.5540698430268094,503.20737224502955,None,,,,,,,,,,,,,,,,None,None,None,,None,None,503.81096438202076,None,3,1,0.6021879349718802,503.81096438202076,None,504.4078417456243,None,None,None,None,,32,001,2023_Jan_24_1529,searchDisc5,2021.2.3,59.8113787088857,
images/exp2c_trial_271_colour1_distractors1_l.png,l,1,1,1,0,,,,,0,81,81,81,,,,,,,,,,,,,,,,,,,,,,,,,,,,,,,,,,,,,,,,,,,504.4267351150047,None,2,0.7071426920010708,504.4267351150047,None,,,,,,,,,,,,,,,,None,None,None,,None,None,505.1771943990025,None,1,1,0.6542758269933984,505.1771943990025,None,505.82513254663206,None,None,None,None,,32,001,2023_Jan_24_1529,searchDisc5,2021.2.3,59.8113787088857,
images/exp2b_trial_306_colour1_distractors19_l.png,l,1,1,19,0,,,,,0,82,82,82,,,,,,,,,,,,,,,,,,,,,,,,,,,,,,,,,,,,,,,,,,,505.8413481020252,None,2,0.5043536979937926,505.8413481020252,None,,,,,,,,,,,,,,,,None,None,None,,None,None,506.3915763309924,None,1,1,0.7701464419951662,506.3915763309924,None,507.15852854963157,None,None,None,None,,32,001,2023_Jan_24_1529,searchDisc5,2021.2.3,59.8113787088857,
images/exp2c_trial_95_colour0_distractors0_l.png,l,1,0,0,0,,,,,0,83,83,83,,,,,,,,,,,,,,,,,,,,,,,,,,,,,,,,,,,,,,,,,,,507.17447547300253,None,2,0.5211472099763341,507.17447547300253,None,,,,,,,,,,,,,,,,None,None,None,,None,None,507.7437686090125,None,1,1,0.6395424099755473,507.7437686090125,None,508.37501499659845,None,None,None,None,,32,001,2023_Jan_24_1529,searchDisc5,2021.2.3,59.8113787088857,
images/exp2c_trial_237_colour3_distractors19_r.png,r,3,3,19,0,,,,,0,84,84,84,,,,,,,,,,,,,,,,,,,,,,,,,,,,,,,,,,,,,,,,,,,508.3909878290142,None,2,0.5204308929969557,508.3909878290142,None,,,,,,,,,,,,,,,,None,None,None,,None,None,508.95793440699345,None,3,1,0.6202861159690656,508.95793440699345,None,509.5751784486114,None,None,None,None,,32,001,2023_Jan_24_1529,searchDisc5,2021.2.3,59.8113787088857,
images/exp1a_trial_108_colour3_distractors9_r.png,r,3,3,9,0,,,,,0,85,85,85,,,,,,,,,,,,,,,,,,,,,,,,,,,,,,,,,,,,,,,,,,,509.59131490800064,None,2,0.6875724240089767,509.59131490800064,None,,,,,,,,,,,,,,,,None,None,None,,None,None,510.3246478050132,None,3,1,0.9203668750124052,510.3246478050132,None,511.2419507946237,None,None,None,None,,32,001,2023_Jan_24_1529,searchDisc5,2021.2.3,59.8113787088857,
images/exp2c_trial_80_colour1_distractors4_l.png,l,1,1,4,0,,,,,0,86,86,86,,,,,,,,,,,,,,,,,,,,,,,,,,,,,,,,,,,,,,,,,,,511.25835753104184,None,2,0.5212906369706616,511.25835753104184,None,,,,,,,,,,,,,,,,None,None,None,,None,None,511.82493892504135,None,1,1,0.5741648630355485,511.82493892504135,None,512.3919094195938,None,None,None,None,,32,001,2023_Jan_24_1529,searchDisc5,2021.2.3,59.8113787088857,
images/exp1a_trial_104_colour2_distractors19_r.png,r,3,2,19,0,,,,,0,87,87,87,,,,,,,,,,,,,,,,,,,,,,,,,,,,,,,,,,,,,,,,,,,512.4098004919942,None,2,0.5193530039978214,512.4098004919942,None,,,,,,,,,,,,,,,,None,None,None,,None,None,512.9769898700179,None,3,1,0.6505650170147419,512.9769898700179,None,513.6246600216022,None,None,None,None,,32,001,2023_Jan_24_1529,searchDisc5,2021.2.3,59.8113787088857,
images/exp2c_trial_180_colour2_distractors1_l.png,l,1,2,1,0,,,,,0,88,88,88,,,,,,,,,,,,,,,,,,,,,,,,,,,,,,,,,,,,,,,,,,,513.6415382220293,None,2,0.5550193780218251,513.6415382220293,None,,,,,,,,,,,,,,,,None,None,None,,None,None,514.2438193630078,None,1,1,0.5893493500188924,514.2438193630078,None,514.8252317066421,None,None,None,None,,32,001,2023_Jan_24_1529,searchDisc5,2021.2.3,59.8113787088857,
images/exp2b_trial_316_colour3_distractors19_l.png,l,1,3,19,0,,,,,0,89,89,89,,,,,,,,,,,,,,,,,,,,,,,,,,,,,,,,,,,,,,,,,,,514.8413613050361,None,2,0.556768687965814,514.8413613050361,None,,,,,,,,,,,,,,,,None,None,None,,None,None,515.4440046050004,None,1,1,0.6350294810254127,515.4440046050004,None,516.0754049846204,None,None,None,None,,32,001,2023_Jan_24_1529,searchDisc5,2021.2.3,59.8113787088857,
images/exp2c_trial_217_colour3_distractors1_l.png,l,1,3,1,0,,,,,0,90,90,90,,,,,,,,,,,,,,,,,,,,,,,,,,,,,,,,,,,,,,,,,,,516.0914013890433,None,2,0.5898252140032127,516.0914013890433,None,,,,,,,,,,,,,,,,None,None,None,,None,None,516.7275762099889,None,1,1,0.5203728940105066,516.7275762099889,None,517.2422111475956,None,None,None,None,,32,001,2023_Jan_24_1529,searchDisc5,2021.2.3,59.8113787088857,
images/exp2c_trial_308_colour2_distractors1_l.png,l,1,2,1,0,,,,,0,91,91,91,,,,,,,,,,,,,,,,,,,,,,,,,,,,,,,,,,,,,,,,,,,517.2603712650016,None,2,0.48763360804878175,517.2603712650016,None,,,,,,,,,,,,,,,,None,None,None,,None,None,517.7940937760286,None,1,1,0.5733222949784249,517.7940937760286,None,518.3598474286031,None,None,None,None,,32,001,2023_Jan_24_1529,searchDisc5,2021.2.3,59.8113787088857,
images/exp1a_trial_162_colour1_distractors9_r.png,r,3,1,9,0,,,,,0,92,92,92,,,,,,,,,,,,,,,,,,,,,,,,,,,,,,,,,,,,,,,,,,,518.3752492780332,None,2,0.5554461940191686,518.3752492780332,None,,,,,,,,,,,,,,,,None,None,None,,None,None,518.9775216869893,None,3,1,0.6193044210085645,518.9775216869893,None,519.593202819617,None,None,None,None,,32,001,2023_Jan_24_1529,searchDisc5,2021.2.3,59.8113787088857,
images/exp2a_trial_110_colour3_distractors31_r.png,r,3,3,31,0,,,,,0,93,93,93,,,,,,,,,,,,,,,,,,,,,,,,,,,,,,,,,,,,,,,,,,,519.6089782449999,None,2,0.586869400984142,519.6089782449999,None,,,,,,,,,,,,,,,,None,None,None,,None,None,520.2423076250125,None,3,1,0.6357585109653883,520.2423076250125,None,520.875090751599,None,None,None,None,,32,001,2023_Jan_24_1529,searchDisc5,2021.2.3,59.8113787088857,
images/exp1a_trial_224_colour1_distractors1_r.png,r,3,1,1,0,,,,,0,94,94,94,,,,,,,,,,,,,,,,,,,,,,,,,,,,,,,,,,,,,,,,,,,520.8939988370403,None,2,0.6077865679981187,520.8939988370403,None,,,,,,,,,,,,,,,,None,None,None,,None,None,521.5424111880129,None,3,1,0.7382703020120971,521.5424111880129,None,522.2755642566248,None,None,None,None,,32,001,2023_Jan_24_1529,searchDisc5,2021.2.3,59.8113787088857,
images/exp2a_trial_221_colour3_distractors31_l.png,l,1,3,31,0,,,,,0,95,95,95,,,,,,,,,,,,,,,,,,,,,,,,,,,,,,,,,,,,,,,,,,,522.2920715070213,None,2,0.6191390170133673,522.2920715070213,None,,,,,,,,,,,,,,,,None,None,None,,None,None,522.959578782029,None,1,1,0.7023812400293536,522.959578782029,None,523.6588931336067,None,None,None,None,,32,001,2023_Jan_24_1529,searchDisc5,2021.2.3,59.8113787088857,
images/exp2c_trial_77_colour3_distractors19_r.png,r,3,3,19,0,,,,,0,96,96,96,,,,,,,,,,,,,,,,,,,,,,,,,,,,,,,,,,,,,,,,,,,523.6775474530295,None,2,0.5903135339613073,523.6775474530295,None,,,,,,,,,,,,,,,,None,None,None,,None,None,524.3097513460089,None,3,1,0.6367024109931663,524.3097513460089,None,524.9423893725965,None,None,None,None,,32,001,2023_Jan_24_1529,searchDisc5,2021.2.3,59.8113787088857,
images/exp1a_trial_51_colour1_distractors31_l.png,l,1,1,31,0,,,,,0,97,97,97,,,,,,,,,,,,,,,,,,,,,,,,,,,,,,,,,,,,,,,,,,,524.958694534027,None,2,0.6527909000287764,524.958694534027,None,,,,,,,,,,,,,,,,None,None,None,,None,None,525.6591145640123,None,1,1,0.8323808340355754,525.6591145640123,None,526.4920915626338,None,None,None,None,,32,001,2023_Jan_24_1529,searchDisc5,2021.2.3,59.8113787088857,
images/exp2b_trial_72_colour2_distractors19_r.png,r,3,2,19,0,,,,,0,98,98,98,,,,,,,,,,,,,,,,,,,,,,,,,,,,,,,,,,,,,,,,,,,526.5097918339889,None,2,0.5567123920191079,526.5097918339889,None,,,,,,,,,,,,,,,,None,None,None,,None,None,527.1089398690383,None,3,1,0.5184177260380238,527.1089398690383,None,527.625860213628,None,None,None,None,,32,001,2023_Jan_24_1529,searchDisc5,2021.2.3,59.8113787088857,
images/exp2a_trial_40_colour2_distractors19_r.png,r,3,2,19,0,,,,,0,99,99,99,,,,,,,,,,,,,,,,,,,,,,,,,,,,,,,,,,,,,,,,,,,527.6427998990403,None,2,0.5218246239819564,527.6427998990403,None,,,,,,,,,,,,,,,,None,None,None,,None,None,528.212434748013,None,3,1,0.9299642000114545,528.212434748013,None,529.1424011385883,None,None,None,None,,32,001,2023_Jan_24_1529,searchDisc5,2021.2.3,59.8113787088857,
images/exp2b_trial_45_colour3_distractors19_r.png,r,3,3,19,0,,,,,0,100,100,100,,,,,,,,,,,,,,,,,,,,,,,,,,,,,,,,,,,,,,,,,,,529.1596969810198,None,2,0.6041859300457872,529.1596969810198,None,,,,,,,,,,,,,,,,None,None,None,,None,None,529.8096038830117,None,3,1,0.637103640998248,529.8096038830117,None,530.4425020406255,None,None,None,None,,32,001,2023_Jan_24_1529,searchDisc5,2021.2.3,59.8113787088857,
images/exp2b_trial_278_colour2_distractors9_l.png,l,1,2,9,0,,,,,0,101,101,101,,,,,,,,,,,,,,,,,,,,,,,,,,,,,,,,,,,,,,,,,,,530.4596303990111,None,2,0.6211114479810931,530.4596303990111,None,,,,,,,,,,,,,,,,None,None,None,,None,None,531.1256592540303,None,1,1,0.6045716790249571,531.1256592540303,None,531.7257737526437,None,None,None,None,,32,001,2023_Jan_24_1529,searchDisc5,2021.2.3,59.8113787088857,
images/exp2c_trial_245_colour2_distractors4_l.png,l,1,2,4,0,,,,,0,102,102,102,,,,,,,,,,,,,,,,,,,,,,,,,,,,,,,,,,,,,,,,,,,531.7428542500129,None,2,0.5046905869967304,531.7428542500129,None,,,,,,,,,,,,,,,,None,None,None,,None,None,532.2954418070149,None,1,1,0.754669671994634,532.2954418070149,None,533.0419678815873,None,None,None,None,,32,001,2023_Jan_24_1529,searchDisc5,2021.2.3,59.8113787088857,
images/exp2c_trial_311_colour2_distractors19_l.png,l,1,2,19,0,,,,,0,103,103,103,,,,,,,,,,,,,,,,,,,,,,,,,,,,,,,,,,,,,,,,,,,533.0593467410072,None,2,0.9715342409908772,533.0593467410072,None,,,,,,,,,,,,,,,,None,None,None,,None,None,534.0758388940012,None,1,1,0.6869681699899957,534.0758388940012,None,534.7593919476261,None,None,None,None,,32,001,2023_Jan_24_1529,searchDisc5,2021.2.3,59.8113787088857,
images/exp2a_trial_180_colour2_distractors1_l.png,l,1,2,1,0,,,,,0,104,104,104,,,,,,,,,,,,,,,,,,,,,,,,,,,,,,,,,,,,,,,,,,,534.776224597008,None,2,0.5240335200214759,534.776224597008,None,,,,,,,,,,,,,,,,None,None,None,,None,None,535.3446620290051,None,1,1,0.8366871349862777,535.3446620290051,None,536.1768391186255,None,None,None,None,,32,001,2023_Jan_24_1529,searchDisc5,2021.2.3,59.8113787088857,
images/exp2c_trial_63_colour0_distractors0_l.png,l,1,0,0,0,,,,,0,105,105,105,,,,,,,,,,,,,,,,,,,,,,,,,,,,,,,,,,,,,,,,,,,536.192379404034,None,2,0.8225795730249956,536.192379404034,None,,,,,,,,,,,,,,,,None,None,None,,None,None,537.0604157590424,None,1,1,0.6218115939991549,537.0604157590424,None,537.6771263366448,None,None,None,None,,32,001,2023_Jan_24_1529,searchDisc5,2021.2.3,59.8113787088857,
images/exp2c_trial_207_colour1_distractors1_l.png,l,1,1,1,0,,,,,0,106,106,106,,,,,,,,,,,,,,,,,,,,,,,,,,,,,,,,,,,,,,,,,,,537.6928536019986,None,2,0.6698000130127184,537.6928536019986,None,,,,,,,,,,,,,,,,None,None,None,,None,None,538.4100858840393,None,1,1,0.506505654018838,538.4100858840393,None,538.9097737186006,None,None,None,None,,32,001,2023_Jan_24_1529,searchDisc5,2021.2.3,59.8113787088857,
images/exp2b_trial_277_colour2_distractors4_l.png,l,1,2,4,0,,,,,0,107,107,107,,,,,,,,,,,,,,,,,,,,,,,,,,,,,,,,,,,,,,,,,,,538.9267184259952,None,2,0.687621258024592,538.9267184259952,None,,,,,,,,,,,,,,,,None,None,None,,None,None,539.6596335800132,None,1,1,0.5748153949971311,539.6596335800132,None,540.2269787945901,None,None,None,None,,32,001,2023_Jan_24_1529,searchDisc5,2021.2.3,59.8113787088857,
images/exp2a_trial_13_colour3_distractors19_r.png,r,3,3,19,0,,,,,0,108,108,108,,,,,,,,,,,,,,,,,,,,,,,,,,,,,,,,,,,,,,,,,,,540.2424362450256,None,2,0.5023666660417803,540.2424362450256,None,,,,,,,,,,,,,,,,None,None,None,,None,None,540.7926765290322,None,3,1,0.7030339440098032,540.7926765290322,None,541.4928125426289,None,None,None,None,,32,001,2023_Jan_24_1529,searchDisc5,2021.2.3,59.8113787088857,
images/exp2b_trial_204_colour3_distractors9_r.png,r,3,3,9,0,,,,,0,109,109,109,,,,,,,,,,,,,,,,,,,,,,,,,,,,,,,,,,,,,,,,,,,541.5099054690218,None,2,0.5226051399949938,541.5099054690218,None,,,,,,,,,,,,,,,,None,None,None,,None,None,542.0782019250328,None,3,1,0.5196966490475461,542.0782019250328,None,542.5929303726065,None,None,None,None,,32,001,2023_Jan_24_1529,searchDisc5,2021.2.3,59.8113787088857,
images/exp2a_trial_243_colour1_distractors31_l.png,l,1,1,31,0,,,,,0,110,110,110,,,,,,,,,,,,,,,,,,,,,,,,,,,,,,,,,,,,,,,,,,,542.6091808690107,None,2,0.472579236025922,542.6091808690107,None,,,,,,,,,,,,,,,,None,None,None,,None,None,543.12670174503,None,1,1,0.5527192139998078,543.12670174503,None,543.6762941016117,None,None,None,None,,32,001,2023_Jan_24_1529,searchDisc5,2021.2.3,59.8113787088857,
images/exp2b_trial_65_colour1_distractors4_r.png,r,3,1,4,0,,,,,0,111,111,111,,,,,,,,,,,,,,,,,,,,,,,,,,,,,,,,,,,,,,,,,,,543.6925006730016,None,2,0.4865571259870194,543.6925006730016,None,,,,,,,,,,,,,,,,None,None,None,,None,None,544.2285731610027,None,3,1,0.6387183510232717,544.2285731610027,None,544.8595198606257,None,None,None,None,,32,001,2023_Jan_24_1529,searchDisc5,2021.2.3,59.8113787088857,
images/exp2b_trial_270_colour3_distractors31_r.png,r,3,3,31,0,,,,,0,112,112,112,,,,,,,,,,,,,,,,,,,,,,,,,,,,,,,,,,,,,,,,,,,544.8765378820244,None,2,0.45759676495799795,544.8765378820244,None,,,,,,,,,,,,,,,,None,None,None,,None,None,545.378221800027,None,3,1,0.682989573047962,545.378221800027,None,546.0592603956233,None,None,None,None,,32,001,2023_Jan_24_1529,searchDisc5,2021.2.3,59.8113787088857,
images/exp1a_trial_111_colour1_distractors1_l.png,l,1,1,1,0,,,,,0,113,113,113,,,,,,,,,,,,,,,,,,,,,,,,,,,,,,,,,,,,,,,,,,,546.0767724090256,None,2,0.48771012999350205,546.0767724090256,None,,,,,,,,,,,,,,,,None,None,None,,None,None,546.6126875240006,None,1,1,0.5733424139907584,546.6126875240006,None,547.1763378226082,None,None,None,None,,32,001,2023_Jan_24_1529,searchDisc5,2021.2.3,59.8113787088857,
images/exp2c_trial_218_colour3_distractors4_l.png,l,1,3,4,0,,,,,0,114,114,114,,,,,,,,,,,,,,,,,,,,,,,,,,,,,,,,,,,,,,,,,,,547.1936910810182,None,2,0.4877644529915415,547.1936910810182,None,,,,,,,,,,,,,,,,None,None,None,,None,None,547.7260840070085,None,1,1,0.7885015970095992,547.7260840070085,None,548.5097161415964,None,None,None,None,,32,001,2023_Jan_24_1529,searchDisc5,2021.2.3,59.8113787088857,
images/exp1a_trial_292_colour1_distractors31_r.png,r,3,1,31,0,,,,,0,115,115,115,,,,,,,,,,,,,,,,,,,,,,,,,,,,,,,,,,,,,,,,,,,548.5261171170278,None,2,0.6886607100022957,548.5261171170278,None,,,,,,,,,,,,,,,,None,None,None,,None,None,549.261723558011,None,3,1,0.6986979470239021,549.261723558011,None,549.9596820246428,None,None,None,None,,32,001,2023_Jan_24_1529,searchDisc5,2021.2.3,59.8113787088857,
images/exp2b_trial_62_colour0_distractors0_r.png,r,3,0,0,0,,,,,0,116,116,116,,,,,,,,,,,,,,,,,,,,,,,,,,,,,,,,,,,,,,,,,,,549.9761481159949,None,2,0.5370967190247029,549.9761481159949,None,,,,,,,,,,,,,,,,None,None,None,,None,None,550.5610437220312,None,3,1,0.6578075640136376,550.5610437220312,None,551.2107968835975,None,None,None,None,,32,001,2023_Jan_24_1529,searchDisc5,2021.2.3,59.8113787088857,
images/exp1a_trial_14_colour3_distractors31_r.png,r,3,3,31,0,,,,,0,117,117,117,,,,,,,,,,,,,,,,,,,,,,,,,,,,,,,,,,,,,,,,,,,551.2261555049918,None,2,0.5200925919925794,551.2261555049918,None,,,,,,,,,,,,,,,,None,None,None,,None,None,551.7953994310228,None,3,1,0.5837413640110753,551.7953994310228,None,552.376912023616,None,None,None,None,,32,001,2023_Jan_24_1529,searchDisc5,2021.2.3,59.8113787088857,
images/exp2b_trial_298_colour3_distractors1_r.png,r,3,3,1,0,,,,,0,118,118,118,,,,,,,,,,,,,,,,,,,,,,,,,,,,,,,,,,,,,,,,,,,552.3939052959904,None,2,0.5395172419957817,552.3939052959904,None,,,,,,,,,,,,,,,,None,None,None,,None,None,552.9786654110067,None,3,1,0.5203799959854223,552.9786654110067,None,553.493143390608,None,None,None,None,,32,001,2023_Jan_24_1529,searchDisc5,2021.2.3,59.8113787088857,
images/exp2c_trial_191_colour0_distractors0_l.png,l,1,0,0,0,,,,,0,119,119,119,,,,,,,,,,,,,,,,,,,,,,,,,,,,,,,,,,,,,,,,,,,553.5121469490114,None,2,0.6210918729775585,553.5121469490114,None,,,,,,,,,,,,,,,,None,None,None,,None,None,554.1764011090272,None,1,1,0.6742549359914847,554.1764011090272,None,554.8441839496139,None,None,None,None,,32,001,2023_Jan_24_1529,searchDisc5,2021.2.3,59.8113787088857,
images/exp2c_trial_176_colour1_distractors4_l.png,l,1,1,4,0,,,,,0,120,120,120,,,,,,,,,,,,,,,,,,,,,,,,,,,,,,,,,,,,,,,,,,,554.8590249640401,None,2,0.4885641589644365,554.8590249640401,None,,,,,,,,,,,,,,,,None,None,None,,None,None,555.3939911670168,None,1,1,0.6370719950064085,555.3939911670168,None,556.0259776916122,None,None,None,None,,32,001,2023_Jan_24_1529,searchDisc5,2021.2.3,59.8113787088857,
images/exp2c_trial_104_colour2_distractors19_r.png,r,3,2,19,0,,,,,0,121,121,121,,,,,,,,,,,,,,,,,,,,,,,,,,,,,,,,,,,,,,,,,,,556.0439841350308,None,2,0.5067630769917741,556.0439841350308,None,,,,,,,,,,,,,,,,None,None,None,,None,None,556.5938001660397,None,3,1,0.5847886120318435,556.5938001660397,None,557.1764974196325,None,None,None,None,,32,001,2023_Jan_24_1529,searchDisc5,2021.2.3,59.8113787088857,
images/exp2a_trial_185_colour3_distractors1_l.png,l,1,3,1,0,,,,,0,122,122,122,,,,,,,,,,,,,,,,,,,,,,,,,,,,,,,,,,,,,,,,,,,557.1929356440087,None,2,0.554701758956071,557.1929356440087,None,,,,,,,,,,,,,,,,None,None,None,,None,None,557.7962795009953,None,1,1,0.6580433169729076,557.7962795009953,None,558.4443131595966,None,None,None,None,,32,001,2023_Jan_24_1529,searchDisc5,2021.2.3,59.8113787088857,
images/exp2a_trial_264_colour2_distractors19_r.png,r,3,2,19,0,,,,,0,123,123,123,,,,,,,,,,,,,,,,,,,,,,,,,,,,,,,,,,,,,,,,,,,558.4618298150017,None,2,0.5197925239917822,558.4618298150017,None,,,,,,,,,,,,,,,,None,None,None,,None,None,559.0266117019928,None,3,1,0.6142099199933,559.0266117019928,None,559.643327740638,None,None,None,None,,32,001,2023_Jan_24_1529,searchDisc5,2021.2.3,59.8113787088857,
images/exp2c_trial_222_colour0_distractors0_r.png,r,3,0,0,0,,,,,0,124,124,124,,,,,,,,,,,,,,,,,,,,,,,,,,,,,,,,,,,,,,,,,,,559.6596687679994,None,2,0.557283419999294,559.6596687679994,None,,,,,,,,,,,,,,,,None,None,None,,None,None,560.2618558750255,None,3,1,0.571842064964585,560.2618558750255,None,560.8276339136413,None,None,None,None,,32,001,2023_Jan_24_1529,searchDisc5,2021.2.3,59.8113787088857,
images/exp2c_trial_190_colour0_distractors0_r.png,r,3,0,0,0,,,,,0,125,125,125,,,,,,,,,,,,,,,,,,,,,,,,,,,,,,,,,,,,,,,,,,,560.8435833820258,None,2,0.5041794199496508,560.8435833820258,None,,,,,,,,,,,,,,,,None,None,None,,None,None,561.3932510929881,None,3,1,0.5726388050243258,561.3932510929881,None,561.9610486806254,None,None,None,None,,32,001,2023_Jan_24_1529,searchDisc5,2021.2.3,59.8113787088857,
images/exp1a_trial_24_colour2_distractors31_l.png,l,1,2,31,0,,,,,0,126,126,126,,,,,,,,,,,,,,,,,,,,,,,,,,,,,,,,,,,,,,,,,,,561.9769291119883,None,2,0.5035878669586964,561.9769291119883,None,,,,,,,,,,,,,,,,None,None,None,,None,None,562.5266238020267,None,1,1,0.5659099830081686,562.5266238020267,None,563.0934042946086,None,None,None,None,,32,001,2023_Jan_24_1529,searchDisc5,2021.2.3,59.8113787088857,
images/exp1a_trial_211_colour1_distractors31_l.png,l,1,1,31,0,,,,,0,127,127,127,,,,,,,,,,,,,,,,,,,,,,,,,,,,,,,,,,,,,,,,,,,563.1105381100206,None,2,0.48763129604049027,563.1105381100206,None,,,,,,,,,,,,,,,,None,None,None,,None,None,563.6462587830028,None,1,1,0.8500426399987191,563.6462587830028,None,564.4933640986332,None,None,None,None,,32,001,2023_Jan_24_1529,searchDisc5,2021.2.3,59.8113787088857,
images/exp2a_trial_109_colour3_distractors19_r.png,r,3,3,19,0,,,,,0,128,128,128,,,,,,,,,,,,,,,,,,,,,,,,,,,,,,,,,,,,,,,,,,,564.5118928329903,None,2,0.472153912007343,564.5118928329903,None,,,,,,,,,,,,,,,,None,None,None,,None,None,565.0287960820133,None,3,1,0.6873382169869728,565.0287960820133,None,565.7112496696412,None,None,None,None,,32,001,2023_Jan_24_1529,searchDisc5,2021.2.3,59.8113787088857,
images/exp1a_trial_204_colour3_distractors9_r.png,r,3,3,9,0,,,,,0,129,129,129,,,,,,,,,,,,,,,,,,,,,,,,,,,,,,,,,,,,,,,,,,,565.7267554900027,None,2,2.3876492379931733,565.7267554900027,None,,,,,,,,,,,,,,,,None,None,None,,None,None,568.1610690880334,None,3,1,0.5553501319955103,568.1610690880334,None,568.7105025246041,None,None,None,None,,32,001,2023_Jan_24_1529,searchDisc5,2021.2.3,59.8113787088857,
images/exp1a_trial_258_colour1_distractors9_r.png,r,3,1,9,0,,,,,0,130,130,130,,,,,,,,,,,,,,,,,,,,,,,,,,,,,,,,,,,,,,,,,,,568.7267549140379,None,2,0.5521130890119821,568.7267549140379,None,,,,,,,,,,,,,,,,None,None,None,,None,None,569.328850675025,None,3,1,0.6701462939963676,569.328850675025,None,569.9934983665938,None,None,None,None,,32,001,2023_Jan_24_1529,searchDisc5,2021.2.3,59.8113787088857,
images/exp2b_trial_164_colour1_distractors31_r.png,r,3,1,31,0,,,,,0,131,131,131,,,,,,,,,,,,,,,,,,,,,,,,,,,,,,,,,,,,,,,,,,,570.0102898059995,None,2,0.591252334008459,570.0102898059995,None,,,,,,,,,,,,,,,,None,None,None,,None,None,570.6463066849974,None,3,1,0.6987131009809673,570.6463066849974,None,571.3428220906411,None,None,None,None,,32,001,2023_Jan_24_1529,searchDisc5,2021.2.3,59.8113787088857,
images/exp2c_trial_17_colour1_distractors9_l.png,l,1,1,9,0,,,,,0,132,132,132,,,,,,,,,,,,,,,,,,,,,,,,,,,,,,,,,,,,,,,,,,,571.3602162860334,None,2,0.7064918919932097,571.3602162860334,None,,,,,,,,,,,,,,,,None,None,None,,None,None,572.1110985170235,None,1,1,0.45471110701328143,572.1110985170235,None,572.561389170622,None,None,None,None,,32,001,2023_Jan_24_1529,searchDisc5,2021.2.3,59.8113787088857,
images/exp2b_trial_286_colour0_distractors0_r.png,r,3,0,0,0,,,,,0,133,133,133,,,,,,,,,,,,,,,,,,,,,,,,,,,,,,,,,,,,,,,,,,,572.577008488006,None,2,0.6197838259977289,572.577008488006,None,,,,,,,,,,,,,,,,None,None,None,,None,None,573.246396358998,None,3,1,0.6238623249810189,573.246396358998,None,573.8604733796441,None,None,None,None,,32,001,2023_Jan_24_1529,searchDisc5,2021.2.3,59.8113787088857,
images/exp1a_trial_56_colour2_distractors31_l.png,l,1,2,31,0,,,,,0,134,134,134,,,,,,,,,,,,,,,,,,,,,,,,,,,,,,,,,,,,,,,,,,,573.8767611990334,None,2,0.5577239130507223,573.8767611990334,None,,,,,,,,,,,,,,,,None,None,None,,None,None,574.481119723001,None,1,1,0.6461125079658814,574.481119723001,None,575.1271634736098,None,None,None,None,,32,001,2023_Jan_24_1529,searchDisc5,2021.2.3,59.8113787088857,
images/exp1a_trial_27_colour3_distractors9_l.png,l,1,3,9,0,,,,,0,135,135,135,,,,,,,,,,,,,,,,,,,,,,,,,,,,,,,,,,,,,,,,,,,575.1441934269969,None,2,0.5896286250208504,575.1441934269969,None,,,,,,,,,,,,,,,,None,None,None,,None,None,575.7770421600435,None,1,1,0.5526098600239493,575.7770421600435,None,576.3281565496349,None,None,None,None,,32,001,2023_Jan_24_1529,searchDisc5,2021.2.3,59.8113787088857,
images/exp1a_trial_17_colour1_distractors9_l.png,l,1,1,9,0,,,,,0,136,136,136,,,,,,,,,,,,,,,,,,,,,,,,,,,,,,,,,,,,,,,,,,,576.343719090044,None,2,0.5751433949917555,576.343719090044,None,,,,,,,,,,,,,,,,None,None,None,,None,None,576.9624488140107,None,1,1,0.6665564989671111,576.9624488140107,None,577.6281069256132,None,None,None,None,,32,001,2023_Jan_24_1529,searchDisc5,2021.2.3,59.8113787088857,
images/exp1a_trial_153_colour3_distractors1_l.png,l,1,3,1,0,,,,,0,137,137,137,,,,,,,,,,,,,,,,,,,,,,,,,,,,,,,,,,,,,,,,,,,577.643936536042,None,2,0.6702435930492356,577.643936536042,None,,,,,,,,,,,,,,,,None,None,None,,None,None,578.3604911490111,None,1,1,0.5559970210306346,578.3604911490111,None,578.9105410186224,None,None,None,None,,32,001,2023_Jan_24_1529,searchDisc5,2021.2.3,59.8113787088857,
images/exp1a_trial_125_colour3_distractors31_l.png,l,1,3,31,0,,,,,0,138,138,138,,,,,,,,,,,,,,,,,,,,,,,,,,,,,,,,,,,,,,,,,,,578.9275793710258,None,2,0.6405618460266851,578.9275793710258,None,,,,,,,,,,,,,,,,None,None,None,,None,None,579.6107585660066,None,1,1,0.7303936659591272,579.6107585660066,None,580.3438178355922,None,None,None,None,,32,001,2023_Jan_24_1529,searchDisc5,2021.2.3,59.8113787088857,
images/exp2c_trial_310_colour2_distractors9_l.png,l,1,2,9,0,,,,,0,139,139,139,,,,,,,,,,,,,,,,,,,,,,,,,,,,,,,,,,,,,,,,,,,580.360114287003,None,2,0.5907805190072395,580.360114287003,None,,,,,,,,,,,,,,,,None,None,None,,None,None,580.9939215210034,None,1,1,0.5192084370064549,580.9939215210034,None,581.5111321786302,None,None,None,None,,32,001,2023_Jan_24_1529,searchDisc5,2021.2.3,59.8113787088857,
images/exp2c_trial_273_colour1_distractors9_l.png,l,1,1,9,0,,,,,0,140,140,140,,,,,,,,,,,,,,,,,,,,,,,,,,,,,,,,,,,,,,,,,,,581.5275317890337,None,2,0.5202834500232711,581.5275317890337,None,,,,,,,,,,,,,,,,None,None,None,,None,None,582.0960155100329,None,1,1,0.5204927660524845,582.0960155100329,None,582.6108693596092,None,None,None,None,,32,001,2023_Jan_24_1529,searchDisc5,2021.2.3,59.8113787088857,
images/exp2a_trial_181_colour2_distractors4_l.png,l,1,2,4,0,,,,,0,141,141,141,,,,,,,,,,,,,,,,,,,,,,,,,,,,,,,,,,,,,,,,,,,582.6293674500193,None,2,0.6213707679999061,582.6293674500193,None,,,,,,,,,,,,,,,,None,None,None,,None,None,583.2938714390039,None,1,1,0.4692951089818962,583.2938714390039,None,583.7604549226002,None,None,None,None,,32,001,2023_Jan_24_1529,searchDisc5,2021.2.3,59.8113787088857,
images/exp2b_trial_176_colour1_distractors4_l.png,l,1,1,4,0,,,,,0,142,142,142,,,,,,,,,,,,,,,,,,,,,,,,,,,,,,,,,,,,,,,,,,,583.7770030230167,None,2,0.7876246810192242,583.7770030230167,None,,,,,,,,,,,,,,,,None,None,None,,None,None,584.6107407510281,None,1,1,0.7727947349776514,584.6107407510281,None,585.3774191376054,None,None,None,None,,32,001,2023_Jan_24_1529,searchDisc5,2021.2.3,59.8113787088857,
images/exp1a_trial_25_colour3_distractors1_l.png,l,1,3,1,0,,,,,0,143,143,143,,,,,,,,,,,,,,,,,,,,,,,,,,,,,,,,,,,,,,,,,,,585.3936596740386,None,2,0.6712296489859,585.3936596740386,None,,,,,,,,,,,,,,,,None,None,None,,None,None,586.1109484439949,None,1,1,0.47377049905480817,586.1109484439949,None,586.578510888596,None,None,None,None,,32,001,2023_Jan_24_1529,searchDisc5,2021.2.3,59.8113787088857,
images/exp1a_trial_31_colour0_distractors0_l.png,l,1,0,0,0,,,,,0,144,144,144,,,,,,,,,,,,,,,,,,,,,,,,,,,,,,,,,,,,,,,,,,,586.5941413840046,None,2,0.7893741430016235,586.5941413840046,None,,,,,,,,,,,,,,,,None,None,None,,None,None,587.4304173350101,None,1,1,0.5878740790067241,587.4304173350101,None,588.0118107535876,None,None,None,None,,32,001,2023_Jan_24_1529,searchDisc5,2021.2.3,59.8113787088857,
images/exp1a_trial_268_colour3_distractors9_r.png,r,3,3,9,0,,,,,0,145,145,145,,,,,,,,,,,,,,,,,,,,,,,,,,,,,,,,,,,,,,,,,,,588.0280401080381,None,2,0.5867309569730423,588.0280401080381,None,,,,,,,,,,,,,,,,None,None,None,,None,None,588.6614691190189,None,3,1,0.6543432830367237,588.6614691190189,None,589.3118027235963,None,None,None,None,,32,001,2023_Jan_24_1529,searchDisc5,2021.2.3,59.8113787088857,
images/exp2c_trial_306_colour1_distractors19_l.png,l,1,1,19,0,,,,,0,146,146,146,,,,,,,,,,,,,,,,,,,,,,,,,,,,,,,,,,,,,,,,,,,589.3271684070351,None,2,0.5535409830044955,589.3271684070351,None,,,,,,,,,,,,,,,,None,None,None,,None,None,589.929658743029,None,1,1,0.653028683969751,589.929658743029,None,590.5774586136453,None,None,None,None,,32,001,2023_Jan_24_1529,searchDisc5,2021.2.3,59.8113787088857,
images/exp2a_trial_32_colour1_distractors1_r.png,r,3,1,1,0,,,,,0,147,147,147,,,,,,,,,,,,,,,,,,,,,,,,,,,,,,,,,,,,,,,,,,,590.5945904190303,None,2,0.4702685480006039,590.5945904190303,None,,,,,,,,,,,,,,,,None,None,None,,None,None,591.110792794032,None,3,1,0.7078092190204188,591.110792794032,None,591.8119689576328,None,None,None,None,,32,001,2023_Jan_24_1529,searchDisc5,2021.2.3,59.8113787088857,
images/exp2c_trial_243_colour1_distractors31_l.png,l,1,1,31,0,,,,,0,148,148,148,,,,,,,,,,,,,,,,,,,,,,,,,,,,,,,,,,,,,,,,,,,591.827900386008,None,2,0.654451604001224,591.827900386008,None,,,,,,,,,,,,,,,,None,None,None,,None,None,592.5278428460006,None,1,1,0.8852461130009033,592.5278428460006,None,593.4110186216188,None,None,None,None,,32,001,2023_Jan_24_1529,searchDisc5,2021.2.3,59.8113787088857,
images/exp1a_trial_145_colour1_distractors9_l.png,l,1,1,9,0,,,,,0,149,149,149,,,,,,,,,,,,,,,,,,,,,,,,,,,,,,,,,,,,,,,,,,,593.4273261170019,None,2,0.47318517602980137,593.4273261170019,None,,,,,,,,,,,,,,,,None,None,None,,None,None,593.9463012340129,None,1,1,0.7848562190192752,593.9463012340129,None,594.7276323135942,None,None,None,None,,32,001,2023_Jan_24_1529,searchDisc5,2021.2.3,59.8113787088857,
images/exp2b_trial_85_colour2_distractors4_l.png,l,1,2,4,0,,,,,0,150,150,150,,,,,,,,,,,,,,,,,,,,,,,,,,,,,,,,,,,,,,,,,,,594.7439863170148,None,2,0.6214848940144293,594.7439863170148,None,,,,,,,,,,,,,,,,None,None,None,,None,None,595.4114240279887,None,1,1,0.6218971469788812,595.4114240279887,None,596.0276714405976,None,None,None,None,,32,001,2023_Jan_24_1529,searchDisc5,2021.2.3,59.8113787088857,
images/exp2a_trial_102_colour2_distractors4_r.png,r,3,2,4,0,,,,,0,151,151,151,,,,,,,,,,,,,,,,,,,,,,,,,,,,,,,,,,,,,,,,,,,596.0445725340396,None,2,0.5733690279885195,596.0445725340396,None,,,,,,,,,,,,,,,,None,None,None,,None,None,596.6611907440238,None,3,1,0.6512726490036584,596.6611907440238,None,597.3109515256132,None,None,None,None,,32,001,2023_Jan_24_1529,searchDisc5,2021.2.3,59.8113787088857,
images/exp2c_trial_313_colour3_distractors1_l.png,l,1,3,1,0,,,,,0,152,152,152,,,,,,,,,,,,,,,,,,,,,,,,,,,,,,,,,,,,,,,,,,,597.3298985059955,None,2,0.7043375300127082,597.3298985059955,None,,,,,,,,,,,,,,,,None,None,None,,None,None,598.0806589690037,None,1,1,0.5737686459906399,598.0806589690037,None,598.645128485607,None,None,None,None,,32,001,2023_Jan_24_1529,searchDisc5,2021.2.3,59.8113787088857,
images/exp2c_trial_246_colour2_distractors9_l.png,l,1,2,9,0,,,,,0,153,153,153,,,,,,,,,,,,,,,,,,,,,,,,,,,,,,,,,,,,,,,,,,,598.6608246820397,None,2,0.6039688010350801,598.6608246820397,None,,,,,,,,,,,,,,,,None,None,None,,None,None,599.3107685790164,None,1,1,0.654365755035542,599.3107685790164,None,599.9610791436047,None,None,None,None,,32,001,2023_Jan_24_1529,searchDisc5,2021.2.3,59.8113787088857,
images/exp1a_trial_10_colour3_distractors1_r.png,r,3,3,1,0,,,,,0,154,154,154,,,,,,,,,,,,,,,,,,,,,,,,,,,,,,,,,,,,,,,,,,,599.9775632140227,None,2,0.5730956529732794,599.9775632140227,None,,,,,,,,,,,,,,,,None,None,None,,None,None,600.5971526090289,None,3,1,0.5713316070032306,600.5971526090289,None,601.1621632736409,None,None,None,None,,32,001,2023_Jan_24_1529,searchDisc5,2021.2.3,59.8113787088857,
images/exp2a_trial_3_colour1_distractors19_r.png,r,3,1,19,0,,,,,0,155,155,155,,,,,,,,,,,,,,,,,,,,,,,,,,,,,,,,,,,,,,,,,,,601.1775426850072,None,2,0.6210237910272554,601.1775426850072,None,,,,,,,,,,,,,,,,None,None,None,,None,None,601.8451681180159,None,3,1,0.635887750016991,601.8451681180159,None,602.4779554875917,None,None,None,None,,32,001,2023_Jan_24_1529,searchDisc5,2021.2.3,59.8113787088857,
images/exp2a_trial_50_colour1_distractors19_l.png,l,1,1,19,0,,,,,0,156,156,156,,,,,,,,,,,,,,,,,,,,,,,,,,,,,,,,,,,,,,,,,,,602.4949754280387,None,2,0.5899576759547926,602.4949754280387,None,,,,,,,,,,,,,,,,None,None,None,,None,None,603.1303559590015,None,1,1,0.6012170240283012,603.1303559590015,None,603.7275508205988,None,None,None,None,,32,001,2023_Jan_24_1529,searchDisc5,2021.2.3,59.8113787088857,
images/exp2b_trial_281_colour3_distractors1_l.png,l,1,3,1,0,,,,,0,157,157,157,,,,,,,,,,,,,,,,,,,,,,,,,,,,,,,,,,,,,,,,,,,603.746844334004,None,2,0.5545821479754522,603.746844334004,None,,,,,,,,,,,,,,,,None,None,None,,None,None,604.3454609360197,None,1,1,0.6228385739959776,604.3454609360197,None,604.9611959465896,None,None,None,None,,32,001,2023_Jan_24_1529,searchDisc5,2021.2.3,59.8113787088857,
images/exp2a_trial_87_colour2_distractors19_l.png,l,1,2,19,0,,,,,0,158,158,158,,,,,,,,,,,,,,,,,,,,,,,,,,,,,,,,,,,,,,,,,,,604.9777026320226,None,2,0.605460025020875,604.9777026320226,None,,,,,,,,,,,,,,,,None,None,None,,None,None,605.627793563006,None,1,1,0.5798665430047549,605.627793563006,None,606.211215850641,None,None,None,None,,32,001,2023_Jan_24_1529,searchDisc5,2021.2.3,59.8113787088857,
images/exp1a_trial_156_colour3_distractors19_l.png,l,1,3,19,0,,,,,0,159,159,159,,,,,,,,,,,,,,,,,,,,,,,,,,,,,,,,,,,,,,,,,,,606.2281068410375,None,2,0.5908225540188141,606.2281068410375,None,,,,,,,,,,,,,,,,None,None,None,,None,None,606.8611884790007,None,1,1,0.9828580979956314,606.8611884790007,None,607.8454881256097,None,None,None,None,,32,001,2023_Jan_24_1529,searchDisc5,2021.2.3,59.8113787088857,
images/exp2c_trial_238_colour3_distractors31_r.png,r,3,3,31,0,,,,,0,160,160,160,,,,,,,,,,,,,,,,,,,,,,,,,,,,,,,,,,,,,,,,,,,607.8618055169936,None,2,0.5875066790031269,607.8618055169936,None,,,,,,,,,,,,,,,,None,None,None,,None,None,608.4957039200235,None,3,1,1.1865059129777364,608.4957039200235,None,609.6790454356,None,None,None,None,,32,001,2023_Jan_24_1529,searchDisc5,2021.2.3,59.8113787088857,
images/exp2a_trial_261_colour2_distractors1_r.png,r,3,2,1,0,,,,,0,161,161,161,,,,,,,,,,,,,,,,,,,,,,,,,,,,,,,,,,,,,,,,,,,609.6950879149954,None,2,0.6537149419891648,609.6950879149954,None,,,,,,,,,,,,,,,,None,None,None,,None,None,610.3952654059976,None,3,1,0.7888549870112911,610.3952654059976,None,611.1791607305989,None,None,None,None,,32,001,2023_Jan_24_1529,searchDisc5,2021.2.3,59.8113787088857,
images/exp1a_trial_275_colour1_distractors31_l.png,l,1,1,31,0,,,,,0,162,162,162,,,,,,,,,,,,,,,,,,,,,,,,,,,,,,,,,,,,,,,,,,,611.1945387980086,None,2,0.5202341140247881,611.1945387980086,None,,,,,,,,,,,,,,,,None,None,None,,None,None,611.7645477970364,None,1,1,0.7511075519723818,611.7645477970364,None,612.5124022726435,None,None,None,None,,32,001,2023_Jan_24_1529,searchDisc5,2021.2.3,59.8113787088857,
images/exp2b_trial_180_colour2_distractors1_l.png,l,1,2,1,0,,,,,0,163,163,163,,,,,,,,,,,,,,,,,,,,,,,,,,,,,,,,,,,,,,,,,,,612.528034588031,None,2,0.5201627740170807,612.528034588031,None,,,,,,,,,,,,,,,,None,None,None,,None,None,613.095626808994,None,1,1,0.6889828750281595,613.095626808994,None,613.7784302276326,None,None,None,None,,32,001,2023_Jan_24_1529,searchDisc5,2021.2.3,59.8113787088857,
images/exp2b_trial_303_colour1_distractors1_l.png,l,1,1,1,0,,,,,0,164,164,164,,,,,,,,,,,,,,,,,,,,,,,,,,,,,,,,,,,,,,,,,,,613.7954760270077,None,2,0.6035394120262936,613.7954760270077,None,,,,,,,,,,,,,,,,None,None,None,,None,None,614.4468818120076,None,1,1,0.706763966998551,614.4468818120076,None,615.1447671986301,None,None,None,None,,32,001,2023_Jan_24_1529,searchDisc5,2021.2.3,59.8113787088857,
images/exp2c_trial_149_colour2_distractors4_l.png,l,1,2,4,0,,,,,0,165,165,165,,,,,,,,,,,,,,,,,,,,,,,,,,,,,,,,,,,,,,,,,,,615.1618284620345,None,2,0.5879662259831093,615.1618284620345,None,,,,,,,,,,,,,,,,None,None,None,,None,None,615.7976687269984,None,1,1,0.6055208400357515,615.7976687269984,None,616.394878134632,None,None,None,None,,32,001,2023_Jan_24_1529,searchDisc5,2021.2.3,59.8113787088857,
images/exp2c_trial_23_colour2_distractors19_l.png,l,1,2,19,0,,,,,0,166,166,166,,,,,,,,,,,,,,,,,,,,,,,,,,,,,,,,,,,,,,,,,,,616.4119485210394,None,2,1.0553107879823074,616.4119485210394,None,,,,,,,,,,,,,,,,None,None,None,,None,None,617.5117211909965,None,1,1,1.5358723920071498,617.5117211909965,None,619.0443874196266,None,None,None,None,,32,001,2023_Jan_24_1529,searchDisc5,2021.2.3,59.8113787088857,
images/exp1a_trial_21_colour2_distractors4_l.png,l,1,2,4,0,,,,,0,167,167,167,,,,,,,,,,,,,,,,,,,,,,,,,,,,,,,,,,,,,,,,,,,619.0614348500385,None,2,7.973827821027953,619.0614348500385,None,,,,,,,,,,,,,,,,None,None,None,,None,None,627.0785568120191,None,1,1,0.685726256982889,627.0785568120191,None,627.7616707955953,None,None,None,None,,32,001,2023_Jan_24_1529,searchDisc5,2021.2.3,59.8113787088857,
images/exp2a_trial_118_colour2_distractors9_l.png,l,1,2,9,0,,,,,0,168,168,168,,,,,,,,,,,,,,,,,,,,,,,,,,,,,,,,,,,,,,,,,,,627.7788576310268,None,2,0.5046679390361533,627.7788576310268,None,,,,,,,,,,,,,,,,None,None,None,,None,None,628.3315027559875,None,1,1,0.8170864210114814,628.3315027559875,None,629.1454277705983,None,None,None,None,,32,001,2023_Jan_24_1529,searchDisc5,2021.2.3,59.8113787088857,
images/exp2b_trial_246_colour2_distractors9_l.png,l,1,2,9,0,,,,,0,169,169,169,,,,,,,,,,,,,,,,,,,,,,,,,,,,,,,,,,,,,,,,,,,629.1638415320194,None,2,0.9906286670011468,629.1638415320194,None,,,,,,,,,,,,,,,,None,None,None,,None,None,630.1956011200091,None,1,1,0.6681122049922124,630.1956011200091,None,630.8620201446232,None,None,None,None,,32,001,2023_Jan_24_1529,searchDisc5,2021.2.3,59.8113787088857,
images/exp2a_trial_89_colour3_distractors1_l.png,l,1,3,1,0,,,,,0,170,170,170,,,,,,,,,,,,,,,,,,,,,,,,,,,,,,,,,,,,,,,,,,,630.8789872819907,None,2,0.37188576703192666,630.8789872819907,None,,,,,,,,,,,,,,,,None,None,None,,None,None,631.2974584230105,None,1,1,0.5069736559526064,631.2974584230105,None,631.795336222602,None,None,None,None,,32,001,2023_Jan_24_1529,searchDisc5,2021.2.3,59.8113787088857,
images/exp1a_trial_159_colour0_distractors0_l.png,l,1,0,0,0,,,,,0,171,171,171,,,,,,,,,,,,,,,,,,,,,,,,,,,,,,,,,,,,,,,,,,,631.8116484280326,None,2,0.3365593609632924,631.8116484280326,None,,,,,,,,,,,,,,,,None,None,None,,None,None,632.1973291100003,None,1,1,0.8721474779886194,632.1973291100003,None,633.0622053296305,None,None,None,None,,32,001,2023_Jan_24_1529,searchDisc5,2021.2.3,59.8113787088857,
images/exp2a_trial_200_colour2_distractors19_r.png,r,3,2,19,0,,,,,0,172,172,172,,,,,,,,,,,,,,,,,,,,,,,,,,,,,,,,,,,,,,,,,,,633.0792991830385,None,2,0.48866525903576985,633.0792991830385,None,,,,,,,,,,,,,,,,None,None,None,,None,None,633.614188047999,None,3,1,0.6629765940015204,633.614188047999,None,634.2787435645936,None,None,None,None,,32,001,2023_Jan_24_1529,searchDisc5,2021.2.3,59.8113787088857,
images/exp2a_trial_270_colour3_distractors31_r.png,r,3,3,31,0,,,,,0,173,173,173,,,,,,,,,,,,,,,,,,,,,,,,,,,,,,,,,,,,,,,,,,,634.2956415090011,None,2,0.5890465460252017,634.2956415090011,None,,,,,,,,,,,,,,,,None,None,None,,None,None,634.9292228370323,None,3,1,0.5851694350130856,634.9292228370323,None,635.5122238666285,None,None,None,None,,32,001,2023_Jan_24_1529,searchDisc5,2021.2.3,59.8113787088857,
images/exp2b_trial_134_colour2_distractors4_r.png,r,3,2,4,0,,,,,0,174,174,174,,,,,,,,,,,,,,,,,,,,,,,,,,,,,,,,,,,,,,,,,,,635.5312266619876,None,2,0.8390712839900516,635.5312266619876,None,,,,,,,,,,,,,,,,None,None,None,,None,None,636.4152092700242,None,3,1,0.5707328410353512,636.4152092700242,None,636.9788920766208,None,None,None,None,,32,001,2023_Jan_24_1529,searchDisc5,2021.2.3,59.8113787088857,
images/exp2b_trial_247_colour2_distractors19_l.png,l,1,2,19,0,,,,,0,175,175,175,,,,,,,,,,,,,,,,,,,,,,,,,,,,,,,,,,,,,,,,,,,636.9952749660006,None,2,0.6220033359713852,636.9952749660006,None,,,,,,,,,,,,,,,,None,None,None,,None,None,637.6622334269923,None,1,1,0.8025735789560713,637.6622334269923,None,638.4622159446357,None,None,None,None,,32,001,2023_Jan_24_1529,searchDisc5,2021.2.3,59.8113787088857,
images/exp2c_trial_227_colour1_distractors19_r.png,r,3,1,19,0,,,,,0,176,176,176,,,,,,,,,,,,,,,,,,,,,,,,,,,,,,,,,,,,,,,,,,,638.4812533530057,None,2,0.5712953389738686,638.4812533530057,None,,,,,,,,,,,,,,,,None,None,None,,None,None,639.0964695200091,None,3,1,0.4866786449565552,639.0964695200091,None,639.5789939065929,None,None,None,None,,32,001,2023_Jan_24_1529,searchDisc5,2021.2.3,59.8113787088857,
images/exp1a_trial_210_colour1_distractors19_l.png,l,1,1,19,0,,,,,0,177,177,177,,,,,,,,,,,,,,,,,,,,,,,,,,,,,,,,,,,,,,,,,,,639.595357148035,None,2,1.106676728988532,639.595357148035,None,,,,,,,,,,,,,,,,None,None,None,,None,None,640.7483348380192,None,1,1,0.8826555000268854,640.7483348380192,None,641.6288504156167,None,None,None,None,,32,001,2023_Jan_24_1529,searchDisc5,2021.2.3,59.8113787088857,
images/exp2b_trial_239_colour1_distractors1_l.png,l,1,1,1,0,,,,,0,178,178,178,,,,,,,,,,,,,,,,,,,,,,,,,,,,,,,,,,,,,,,,,,,641.6453949420247,None,2,1.037882003991399,641.6453949420247,None,,,,,,,,,,,,,,,,None,None,None,,None,None,642.7289276950178,None,1,1,0.8903072889661416,642.7289276950178,None,643.6132957336143,None,None,None,None,,32,001,2023_Jan_24_1529,searchDisc5,2021.2.3,59.8113787088857,
images/exp1a_trial_23_colour2_distractors19_l.png,l,1,2,19,0,,,,,0,179,179,179,,,,,,,,,,,,,,,,,,,,,,,,,,,,,,,,,,,,,,,,,,,643.6312864430365,None,2,0.5402633679914288,643.6312864430365,None,,,,,,,,,,,,,,,,None,None,None,,None,None,644.211577817041,None,1,1,0.664669863996096,644.211577817041,None,644.8789796776022,None,None,None,None,,32,001,2023_Jan_24_1529,searchDisc5,2021.2.3,59.8113787088857,
images/exp2a_trial_254_colour0_distractors0_r.png,r,3,0,0,0,,,,,0,180,180,180,,,,,,,,,,,,,,,,,,,,,,,,,,,,,,,,,,,,,,,,,,,644.8964937599958,None,2,0.6554538540076464,644.8964937599958,None,,,,,,,,,,,,,,,,None,None,None,,None,None,645.5948453950114,None,3,1,0.7545524190063588,645.5948453950114,None,646.3451994636329,None,None,None,None,,32,001,2023_Jan_24_1529,searchDisc5,2021.2.3,59.8113787088857,
images/exp2a_trial_198_colour2_distractors4_r.png,r,3,2,4,0,,,,,0,181,181,181,,,,,,,,,,,,,,,,,,,,,,,,,,,,,,,,,,,,,,,,,,,646.3633170510293,None,2,3.572551369026769,646.3633170510293,None,,,,,,,,,,,,,,,,None,None,None,,None,None,649.9822647640249,None,3,1,0.5376122500165366,649.9822647640249,None,650.5126700366148,None,None,None,None,,32,001,2023_Jan_24_1529,searchDisc5,2021.2.3,59.8113787088857,
images/exp2a_trial_316_colour3_distractors19_l.png,l,1,3,19,0,,,,,0,182,182,182,,,,,,,,,,,,,,,,,,,,,,,,,,,,,,,,,,,,,,,,,,,650.529855085013,None,2,2.2383838199893944,650.529855085013,None,,,,,,,,,,,,,,,,None,None,None,,None,None,652.8130918699899,None,1,1,0.6673577679903246,652.8130918699899,None,653.479316154588,None,None,None,None,,32,001,2023_Jan_24_1529,searchDisc5,2021.2.3,59.8113787088857,
images/exp2b_trial_66_colour1_distractors9_r.png,r,3,1,9,0,,,,,0,183,183,183,,,,,,,,,,,,,,,,,,,,,,,,,,,,,,,,,,,,,,,,,,,653.4965559540433,None,2,0.57102733803913,653.4965559540433,None,,,,,,,,,,,,,,,,None,None,None,,None,None,654.1131686959998,None,3,1,0.7712793319951743,654.1131686959998,None,654.8793561276165,None,None,None,None,,32,001,2023_Jan_24_1529,searchDisc5,2021.2.3,59.8113787088857,
images/exp2a_trial_152_colour2_distractors31_l.png,l,1,2,31,0,,,,,0,184,184,184,,,,,,,,,,,,,,,,,,,,,,,,,,,,,,,,,,,,,,,,,,,654.895927236008,None,2,0.7388937320210971,654.895927236008,None,,,,,,,,,,,,,,,,None,None,None,,None,None,655.6850776280044,None,1,1,0.6109904460026883,655.6850776280044,None,656.296088661626,None,None,None,None,,32,001,2023_Jan_24_1529,searchDisc5,2021.2.3,59.8113787088857,
images/exp2c_trial_148_colour2_distractors1_l.png,l,1,2,1,0,,,,,0,185,185,185,,,,,,,,,,,,,,,,,,,,,,,,,,,,,,,,,,,,,,,,,,,656.313473598042,None,2,0.5560190679971129,656.313473598042,None,,,,,,,,,,,,,,,,None,None,None,,None,None,656.9127285089926,None,1,1,0.673425393004436,656.9127285089926,None,657.5795784196001,None,None,None,None,,32,001,2023_Jan_24_1529,searchDisc5,2021.2.3,59.8113787088857,
images/exp2c_trial_283_colour3_distractors9_l.png,l,1,3,9,0,,,,,0,186,186,186,,,,,,,,,,,,,,,,,,,,,,,,,,,,,,,,,,,,,,,,,,,657.5965881900047,None,2,0.46895894402405247,657.5965881900047,None,,,,,,,,,,,,,,,,None,None,None,,None,None,658.1131848350051,None,1,1,0.5878215790144168,658.1131848350051,None,658.6959223455982,None,None,None,None,,32,001,2023_Jan_24_1529,searchDisc5,2021.2.3,59.8113787088857,
images/exp1a_trial_133_colour2_distractors1_r.png,r,3,2,1,0,,,,,0,187,187,187,,,,,,,,,,,,,,,,,,,,,,,,,,,,,,,,,,,,,,,,,,,658.7125550910132,None,2,0.5067334459745325,658.7125550910132,None,,,,,,,,,,,,,,,,None,None,None,,None,None,659.2658504300052,None,3,1,0.6860109769622795,659.2658504300052,None,659.9465142485918,None,None,None,None,,32,001,2023_Jan_24_1529,searchDisc5,2021.2.3,59.8113787088857,
images/exp1a_trial_191_colour0_distractors0_l.png,l,1,0,0,0,,,,,0,188,188,188,,,,,,,,,,,,,,,,,,,,,,,,,,,,,,,,,,,,,,,,,,,659.9640875780024,None,2,0.638334181974642,659.9640875780024,None,,,,,,,,,,,,,,,,None,None,None,,None,None,660.6463693280239,None,1,1,0.6547794119687751,660.6463693280239,None,661.295938309608,None,None,None,None,,32,001,2023_Jan_24_1529,searchDisc5,2021.2.3,59.8113787088857,
images/exp2b_trial_43_colour3_distractors4_r.png,r,3,3,4,0,,,,,0,189,189,189,,,,,,,,,,,,,,,,,,,,,,,,,,,,,,,,,,,,,,,,,,,661.3133374089957,None,2,0.7052544960170053,661.3133374089957,None,,,,,,,,,,,,,,,,None,None,None,,None,None,662.0628308920423,None,3,1,0.8846725790062919,662.0628308920423,None,662.9456469446071,None,None,None,None,,32,001,2023_Jan_24_1529,searchDisc5,2021.2.3,59.8113787088857,
images/exp2c_trial_42_colour3_distractors1_r.png,r,3,3,1,0,,,,,0,190,190,190,,,,,,,,,,,,,,,,,,,,,,,,,,,,,,,,,,,,,,,,,,,662.9626819490222,None,2,0.7373248770018108,662.9626819490222,None,,,,,,,,,,,,,,,,None,None,None,,None,None,663.7494741650298,None,3,1,0.6052572189946659,663.7494741650298,None,664.3463393395999,None,None,None,None,,32,001,2023_Jan_24_1529,searchDisc5,2021.2.3,59.8113787088857,
images/exp1a_trial_26_colour3_distractors4_l.png,l,1,3,4,0,,,,,0,191,191,191,,,,,,,,,,,,,,,,,,,,,,,,,,,,,,,,,,,,,,,,,,,664.3655434760149,None,2,0.7066546789719723,664.3655434760149,None,,,,,,,,,,,,,,,,None,None,None,,None,None,665.1153639960103,None,1,1,0.6806452529854141,665.1153639960103,None,665.7960088276071,None,None,None,None,,32,001,2023_Jan_24_1529,searchDisc5,2021.2.3,59.8113787088857,
images/exp1a_trial_252_colour3_distractors19_l.png,l,1,3,19,0,,,,,0,192,192,192,,,,,,,,,,,,,,,,,,,,,,,,,,,,,,,,,,,,,,,,,,,665.8144283189904,None,2,0.63846069999272,665.8144283189904,None,,,,,,,,,,,,,,,,None,None,None,,None,None,666.499364591029,None,1,1,0.8333086649654433,666.499364591029,None,667.3295922386227,None,None,None,None,,32,001,2023_Jan_24_1529,searchDisc5,2021.2.3,59.8113787088857,
images/exp2a_trial_182_colour2_distractors9_l.png,l,1,2,9,0,,,,,0,193,193,193,,,,,,,,,,,,,,,,,,,,,,,,,,,,,,,,,,,,,,,,,,,667.3461503229919,None,2,0.6213418810511939,667.3461503229919,None,,,,,,,,,,,,,,,,None,None,None,,None,None,668.0129677309887,None,1,1,0.6340673949453048,668.0129677309887,None,668.6463789206231,None,None,None,None,,32,001,2023_Jan_24_1529,searchDisc5,2021.2.3,59.8113787088857,
images/exp2b_trial_111_colour1_distractors1_l.png,l,1,1,1,0,,,,,0,194,194,194,,,,,,,,,,,,,,,,,,,,,,,,,,,,,,,,,,,,,,,,,,,668.6625408880063,None,2,0.47403113794280216,668.6625408880063,None,,,,,,,,,,,,,,,,None,None,None,,None,None,669.1797308259993,None,1,1,0.9700201069936156,669.1797308259993,None,670.146515787614,None,None,None,None,,32,001,2023_Jan_24_1529,searchDisc5,2021.2.3,59.8113787088857,
images/exp2a_trial_101_colour2_distractors1_r.png,r,3,2,1,0,,,,,0,195,195,195,,,,,,,,,,,,,,,,,,,,,,,,,,,,,,,,,,,,,,,,,,,670.1635955790407,None,2,0.6382380159921013,670.1635955790407,None,,,,,,,,,,,,,,,,None,None,None,,None,None,670.8462061440223,None,3,1,0.7712514830054715,670.8462061440223,None,671.6130639306269,None,None,None,None,,32,001,2023_Jan_24_1529,searchDisc5,2021.2.3,59.8113787088857,
images/exp2a_trial_203_colour3_distractors4_r.png,r,3,3,4,0,,,,,0,196,196,196,,,,,,,,,,,,,,,,,,,,,,,,,,,,,,,,,,,,,,,,,,,671.6294710420188,None,2,0.7562277010292746,671.6294710420188,None,,,,,,,,,,,,,,,,None,None,None,,None,None,672.4294073040364,None,3,1,0.75396504602395,672.4294073040364,None,673.1798444476211,None,None,None,None,,32,001,2023_Jan_24_1529,searchDisc5,2021.2.3,59.8113787088857,
images/exp2b_trial_212_colour2_distractors1_l.png,l,1,2,1,0,,,,,0,197,197,197,,,,,,,,,,,,,,,,,,,,,,,,,,,,,,,,,,,,,,,,,,,673.1961412189994,None,2,0.7044323339941911,673.1961412189994,None,,,,,,,,,,,,,,,,None,None,None,,None,None,673.9476113080163,None,1,1,0.574769628001377,673.9476113080163,None,674.5132172656362,None,None,None,None,,32,001,2023_Jan_24_1529,searchDisc5,2021.2.3,59.8113787088857,
images/exp2a_trial_139_colour3_distractors4_r.png,r,3,3,4,0,,,,,0,198,198,198,,,,,,,,,,,,,,,,,,,,,,,,,,,,,,,,,,,,,,,,,,,674.5305585610331,None,2,0.6189276040531695,674.5305585610331,None,,,,,,,,,,,,,,,,None,None,None,,None,None,675.1974143330008,None,3,1,0.5415648189955391,675.1974143330008,None,675.7329315696028,None,None,None,None,,32,001,2023_Jan_24_1529,searchDisc5,2021.2.3,59.8113787088857,
images/exp2c_trial_83_colour1_distractors31_l.png,l,1,1,31,0,,,,,0,199,199,199,,,,,,,,,,,,,,,,,,,,,,,,,,,,,,,,,,,,,,,,,,,675.7471148690092,None,2,0.6709075040416792,675.7471148690092,None,,,,,,,,,,,,,,,,None,None,None,,None,None,676.4660154920421,None,1,1,0.6665974860079587,676.4660154920421,None,677.129969556618,None,None,None,None,,32,001,2023_Jan_24_1529,searchDisc5,2021.2.3,59.8113787088857,
images/exp2a_trial_168_colour2_distractors19_r.png,r,3,2,19,0,,,,,0,200,200,200,,,,,,,,,,,,,,,,,,,,,,,,,,,,,,,,,,,,,,,,,,,677.1472781820339,None,2,0.5394458380178548,677.1472781820339,None,,,,,,,,,,,,,,,,None,None,None,,None,None,677.7350377410185,None,3,1,0.6783202720107511,677.7350377410185,None,678.4132670836174,None,None,None,None,,32,001,2023_Jan_24_1529,searchDisc5,2021.2.3,59.8113787088857,
images/exp1a_trial_98_colour1_distractors9_r.png,r,3,1,9,0,,,,,0,201,201,201,,,,,,,,,,,,,,,,,,,,,,,,,,,,,,,,,,,,,,,,,,,678.432606175018,None,2,0.604353410017211,678.432606175018,None,,,,,,,,,,,,,,,,None,None,None,,None,None,679.0806412849925,None,3,1,1.1865743629750796,679.0806412849925,None,680.2633848816389,None,None,None,None,,32,001,2023_Jan_24_1529,searchDisc5,2021.2.3,59.8113787088857,
images/exp1a_trial_18_colour1_distractors19_l.png,l,1,1,19,0,,,,,0,202,202,202,,,,,,,,,,,,,,,,,,,,,,,,,,,,,,,,,,,,,,,,,,,680.2805777150206,None,2,0.5875461300020106,680.2805777150206,None,,,,,,,,,,,,,,,,None,None,None,,None,None,680.9139908110374,None,1,1,0.7850158429937437,680.9139908110374,None,681.697917028598,None,None,None,None,,32,001,2023_Jan_24_1529,searchDisc5,2021.2.3,59.8113787088857,
images/exp2b_trial_27_colour3_distractors9_l.png,l,1,3,9,0,,,,,0,203,203,203,,,,,,,,,,,,,,,,,,,,,,,,,,,,,,,,,,,,,,,,,,,681.7137219890137,None,2,0.5396310720243491,681.7137219890137,None,,,,,,,,,,,,,,,,None,None,None,,None,None,682.2990697650239,None,1,1,0.618613908009138,682.2990697650239,None,682.9133649185882,None,None,None,None,,32,001,2023_Jan_24_1529,searchDisc5,2021.2.3,59.8113787088857,
images/exp2c_trial_259_colour1_distractors19_r.png,r,3,1,19,0,,,,,0,204,204,204,,,,,,,,,,,,,,,,,,,,,,,,,,,,,,,,,,,,,,,,,,,682.9298560930183,None,2,0.4733827759628184,682.9298560930183,None,,,,,,,,,,,,,,,,None,None,None,,None,None,683.4465932730236,None,3,1,0.6534123260062188,683.4465932730236,None,684.0978309736005,None,None,None,None,,32,001,2023_Jan_24_1529,searchDisc5,2021.2.3,59.8113787088857,
images/exp1a_trial_129_colour1_distractors4_r.png,r,3,1,4,0,,,,,0,205,205,205,,,,,,,,,,,,,,,,,,,,,,,,,,,,,,,,,,,,,,,,,,,684.113432964019,None,2,0.7030489589669742,684.113432964019,None,,,,,,,,,,,,,,,,None,None,None,,None,None,684.8659081080114,None,3,1,0.7537412740057334,684.8659081080114,None,685.6134430686128,None,None,None,None,,32,001,2023_Jan_24_1529,searchDisc5,2021.2.3,59.8113787088857,
images/exp2b_trial_78_colour3_distractors31_r.png,r,3,3,31,0,,,,,0,206,206,206,,,,,,,,,,,,,,,,,,,,,,,,,,,,,,,,,,,,,,,,,,,685.6303316600388,None,2,0.7713315710425377,685.6303316600388,None,,,,,,,,,,,,,,,,None,None,None,,None,None,686.4467794939992,None,3,1,0.6863421259913594,686.4467794939992,None,687.1302014246234,None,None,None,None,,32,001,2023_Jan_24_1529,searchDisc5,2021.2.3,59.8113787088857,
images/exp2c_trial_299_colour3_distractors4_r.png,r,3,3,4,0,,,,,0,207,207,207,,,,,,,,,,,,,,,,,,,,,,,,,,,,,,,,,,,,,,,,,,,687.1475570800249,None,2,0.4877546919742599,687.1475570800249,None,,,,,,,,,,,,,,,,None,None,None,,None,None,687.682277549,None,3,1,0.6222072259988636,687.682277549,None,688.2970219686161,None,None,None,None,,32,001,2023_Jan_24_1529,searchDisc5,2021.2.3,59.8113787088857,
images/exp1a_trial_216_colour2_distractors31_l.png,l,1,2,31,0,,,,,0,208,208,208,,,,,,,,,,,,,,,,,,,,,,,,,,,,,,,,,,,,,,,,,,,688.3132362890174,None,2,0.48777823097771034,688.3132362890174,None,,,,,,,,,,,,,,,,None,None,None,,None,None,688.8468776860391,None,1,1,0.8667569689569063,688.8468776860391,None,689.7136013636249,None,None,None,None,,32,001,2023_Jan_24_1529,searchDisc5,2021.2.3,59.8113787088857,
images/exp2c_trial_90_colour3_distractors4_l.png,l,1,3,4,0,,,,,0,209,209,209,,,,,,,,,,,,,,,,,,,,,,,,,,,,,,,,,,,,,,,,,,,689.7302946220152,None,2,0.5064845600281842,689.7302946220152,None,,,,,,,,,,,,,,,,None,None,None,,None,None,690.2802613940439,None,1,1,0.6868245819932781,690.2802613940439,None,690.9635634426144,None,None,None,None,,32,001,2023_Jan_24_1529,searchDisc5,2021.2.3,59.8113787088857,
images/exp2b_trial_245_colour2_distractors4_l.png,l,1,2,4,0,,,,,0,210,210,210,,,,,,,,,,,,,,,,,,,,,,,,,,,,,,,,,,,,,,,,,,,690.9800878370297,None,2,0.4563421580241993,690.9800878370297,None,,,,,,,,,,,,,,,,None,None,None,,None,None,691.4824294470018,None,1,1,0.5701722389785573,691.4824294470018,None,692.0470387486042,None,None,None,None,,32,001,2023_Jan_24_1529,searchDisc5,2021.2.3,59.8113787088857,
images/exp2c_trial_66_colour1_distractors9_r.png,r,3,1,9,0,,,,,0,211,211,211,,,,,,,,,,,,,,,,,,,,,,,,,,,,,,,,,,,,,,,,,,,692.0626859260374,None,2,0.5541473549674265,692.0626859260374,None,,,,,,,,,,,,,,,,None,None,None,,None,None,692.6667386619956,None,3,1,0.7051207330077887,692.6667386619956,None,693.3637768916436,None,None,None,None,,32,001,2023_Jan_24_1529,searchDisc5,2021.2.3,59.8113787088857,
images/exp2a_trial_70_colour2_distractors4_r.png,r,3,2,4,0,,,,,0,212,212,212,,,,,,,,,,,,,,,,,,,,,,,,,,,,,,,,,,,,,,,,,,,693.3801520470297,None,2,0.5544390479917638,693.3801520470297,None,,,,,,,,,,,,,,,,None,None,None,,None,None,693.9824740150361,None,3,1,0.6869737540255301,693.9824740150361,None,694.6638280655956,None,None,None,None,,32,001,2023_Jan_24_1529,searchDisc5,2021.2.3,59.8113787088857,
images/exp2b_trial_110_colour3_distractors31_r.png,r,3,3,31,0,,,,,0,213,213,213,,,,,,,,,,,,,,,,,,,,,,,,,,,,,,,,,,,,,,,,,,,694.6800060230307,None,2,0.5053807320073247,694.6800060230307,None,,,,,,,,,,,,,,,,None,None,None,,None,None,695.2308366119978,None,3,1,0.6013703060452826,695.2308366119978,None,695.8302229665918,None,None,None,None,,32,001,2023_Jan_24_1529,searchDisc5,2021.2.3,59.8113787088857,
images/exp2b_trial_292_colour1_distractors31_r.png,r,3,1,31,0,,,,,0,214,214,214,,,,,,,,,,,,,,,,,,,,,,,,,,,,,,,,,,,,,,,,,,,695.8473468589946,None,2,0.4240891890367493,695.8473468589946,None,,,,,,,,,,,,,,,,None,None,None,,None,None,696.3166886839899,None,3,1,0.6334792589768767,696.3166886839899,None,696.9471156635904,None,None,None,None,,32,001,2023_Jan_24_1529,searchDisc5,2021.2.3,59.8113787088857,
images/exp2a_trial_244_colour2_distractors1_l.png,l,1,2,1,0,,,,,0,215,215,215,,,,,,,,,,,,,,,,,,,,,,,,,,,,,,,,,,,,,,,,,,,696.9635282380041,None,2,0.40709056897321716,696.9635282380041,None,,,,,,,,,,,,,,,,None,None,None,,None,None,697.4159861440421,None,1,1,0.6059909239993431,697.4159861440421,None,698.0148796055931,None,None,None,None,,32,001,2023_Jan_24_1529,searchDisc5,2021.2.3,59.8113787088857,
images/exp1a_trial_256_colour1_distractors1_r.png,r,3,1,1,0,,,,,0,216,216,216,,,,,,,,,,,,,,,,,,,,,,,,,,,,,,,,,,,,,,,,,,,698.0303285710397,None,2,0.5187514860299416,698.0303285710397,None,,,,,,,,,,,,,,,,None,None,None,,None,None,698.5971791720367,None,1,0,0.6252463110140525,698.5971791720367,None,699.2169060905929,None,None,None,None,,32,001,2023_Jan_24_1529,searchDisc5,2021.2.3,59.8113787088857,
images/exp1a_trial_59_colour3_distractors9_l.png,l,1,3,9,0,,,,,0,217,217,217,,,,,,,,,,,,,,,,,,,,,,,,,,,,,,,,,,,,,,,,,,,699.2300852939952,None,2,0.7848579619894736,699.2300852939952,None,,,,,,,,,,,,,,,,None,None,None,,None,None,700.0643693259917,None,1,1,0.6054141299682669,700.0643693259917,None,700.6639973986079,None,None,None,None,,32,001,2023_Jan_24_1529,searchDisc5,2021.2.3,59.8113787088857,
images/exp2a_trial_239_colour1_distractors1_l.png,l,1,1,1,0,,,,,0,218,218,218,,,,,,,,,,,,,,,,,,,,,,,,,,,,,,,,,,,,,,,,,,,700.6807000070112,None,2,0.5192361079971306,700.6807000070112,None,,,,,,,,,,,,,,,,None,None,None,,None,None,701.2505603450118,None,1,1,0.674049441004172,701.2505603450118,None,701.9149599226424,None,None,None,None,,32,001,2023_Jan_24_1529,searchDisc5,2021.2.3,59.8113787088857,
images/exp2b_trial_90_colour3_distractors4_l.png,l,1,3,4,0,,,,,0,219,219,219,,,,,,,,,,,,,,,,,,,,,,,,,,,,,,,,,,,,,,,,,,,701.9295888130437,None,2,0.8030723420088179,701.9295888130437,None,,,,,,,,,,,,,,,,None,None,None,,None,None,702.7808409730205,None,1,1,0.9719629180035554,702.7808409730205,None,703.7473083886201,None,None,None,None,,32,001,2023_Jan_24_1529,searchDisc5,2021.2.3,59.8113787088857,
images/exp2a_trial_284_colour3_distractors19_l.png,l,1,3,19,0,,,,,0,220,220,220,,,,,,,,,,,,,,,,,,,,,,,,,,,,,,,,,,,,,,,,,,,703.7642780719907,None,2,0.537862236960791,703.7642780719907,None,,,,,,,,,,,,,,,,None,None,None,,None,None,704.3500451750006,None,1,1,1.5708021700265817,704.3500451750006,None,705.9140408006264,None,None,None,None,,32,001,2023_Jan_24_1529,searchDisc5,2021.2.3,59.8113787088857,
images/exp2a_trial_189_colour3_distractors31_l.png,l,1,3,31,0,,,,,0,221,221,221,,,,,,,,,,,,,,,,,,,,,,,,,,,,,,,,,,,,,,,,,,,705.9320492490078,None,2,0.5214276229962707,705.9320492490078,None,,,,,,,,,,,,,,,,None,None,None,,None,None,706.4994578110054,None,1,1,0.6686332820099778,706.4994578110054,None,707.163866789639,None,None,None,None,,32,001,2023_Jan_24_1529,searchDisc5,2021.2.3,59.8113787088857,
images/exp2b_trial_15_colour1_distractors1_l.png,l,1,1,1,0,,,,,0,222,222,222,,,,,,,,,,,,,,,,,,,,,,,,,,,,,,,,,,,,,,,,,,,707.1806726219947,None,2,0.5377969350083731,707.1806726219947,None,,,,,,,,,,,,,,,,None,None,None,,None,None,707.7641498200246,None,1,1,0.8049488849937916,707.7641498200246,None,708.5641046465956,None,None,None,None,,32,001,2023_Jan_24_1529,searchDisc5,2021.2.3,59.8113787088857,
images/exp2a_trial_2_colour1_distractors9_r.png,r,3,1,9,0,,,,,0,223,223,223,,,,,,,,,,,,,,,,,,,,,,,,,,,,,,,,,,,,,,,,,,,708.5805656640441,None,2,4.038115593022667,708.5805656640441,None,,,,,,,,,,,,,,,,None,None,None,,None,None,712.664293615031,None,3,1,0.5545544539927505,712.664293615031,None,713.2143917685956,None,None,None,None,,32,001,2023_Jan_24_1529,searchDisc5,2021.2.3,59.8113787088857,
images/exp2c_trial_113_colour1_distractors9_l.png,l,1,1,9,0,,,,,0,224,224,224,,,,,,,,,,,,,,,,,,,,,,,,,,,,,,,,,,,,,,,,,,,713.2310681240051,None,2,0.4394781790324487,713.2310681240051,None,,,,,,,,,,,,,,,,None,None,None,,None,None,713.7152667290065,None,1,1,0.6714970410102978,713.7152667290065,None,714.3809445675928,None,None,None,None,,32,001,2023_Jan_24_1529,searchDisc5,2021.2.3,59.8113787088857,
images/exp1a_trial_181_colour2_distractors4_l.png,l,1,2,4,0,,,,,0,225,225,225,,,,,,,,,,,,,,,,,,,,,,,,,,,,,,,,,,,,,,,,,,,714.3971358310082,None,2,0.43604458699701354,714.3971358310082,None,,,,,,,,,,,,,,,,None,None,None,,None,None,714.8809918100014,None,1,1,0.8380343589815311,714.8809918100014,None,715.7143735866179,None,None,None,None,,32,001,2023_Jan_24_1529,searchDisc5,2021.2.3,59.8113787088857,
images/exp2c_trial_160_colour1_distractors1_r.png,r,3,1,1,0,,,,,0,226,226,226,,,,,,,,,,,,,,,,,,,,,,,,,,,,,,,,,,,,,,,,,,,715.733442909026,None,2,0.487940824998077,715.733442909026,None,,,,,,,,,,,,,,,,None,None,None,,None,None,716.2669197660289,None,3,1,0.9226915379986167,716.2669197660289,None,717.1812958726426,None,None,None,None,,32,001,2023_Jan_24_1529,searchDisc5,2021.2.3,59.8113787088857,
