ImageFile,targ_side,correctAnswer,colour,distNo,targetType,trials_2.thisRepN,trials_2.thisTrialN,trials_2.thisN,trials_2.thisIndex,trials.thisRepN,trials.thisTrialN,trials.thisN,trials.thisIndex,text_6.started,text_6.stopped,buttonBox.keys,buttonBox.rt,buttonBox.started,buttonBox.stopped,text_7.started,text_7.stopped,buttonBox_3.keys,buttonBox_3.rt,buttonBox_3.started,buttonBox_3.stopped,text_8.started,text_8.stopped,buttonBox_4.keys,buttonBox_4.rt,buttonBox_4.started,buttonBox_4.stopped,text_9.started,text_9.stopped,buttonBox_5.keys,buttonBox_5.rt,buttonBox_5.started,buttonBox_5.stopped,text_2.started,text_2.stopped,buttonBox_6.keys,buttonBox_6.rt,buttonBox_6.started,buttonBox_6.stopped,text_5.started,text_5.stopped,buttonBox_7.keys,buttonBox_7.rt,image_2.started,image_2.stopped,image_3.started,image_3.stopped,buttonBox_8.keys,buttonBox_8.rt,buttonBox_8.started,buttonBox_8.stopped,polygon.started,polygon.stopped,buttonBox_9.keys,buttonBox_9.rt,buttonBox_9.started,buttonBox_9.stopped,image.started,image.stopped,buttonBox_10.keys,buttonBox_10.corr,buttonBox_10.rt,buttonBox_10.started,buttonBox_10.stopped,text_4.started,text_4.stopped,text.started,text.stopped,buttonBox_11.keys,buttonBox_11.rt,buttonBox_11.started,buttonBox_11.stopped,targetTypeInstruction.started,targetTypeInstruction.stopped,buttonBox_2.keys,buttonBox_2.rt,buttonBox_2.started,buttonBox_2.stopped,dispStimuli.started,dispStimuli.stopped,buttonBox_12.keys,buttonBox_12.corr,buttonBox_12.rt,buttonBox_12.started,buttonBox_12.stopped,breakMessage.started,breakMessage.stopped,buttonBox_13.keys,buttonBox_13.started,buttonBox_13.stopped,buttonBox_13.rt,participant,session,date,expName,psychopyVersion,frameRate,
,,,,,,,,,,,,,,29.463991769007407,None,2,56.7981005939655,29.463991769007407,None,,,,,,,,,,,,,,,,,,,,,,,,,,,,,,,,,,,,,,,,,,,,,,,,,,,,,,,,,,,,,,,,,,,,,,,,,,,,,33,001,2023_Jan_24_1624,searchDisc5,2021.2.3,59.98641979518043,
,,,,,,,,,,,,,,,,,,,,86.2646705880179,None,2,48.9302759069833,86.2646705880179,None,,,,,,,,,,,,,,,,,,,,,,,,,,,,,,,,,,,,,,,,,,,,,,,,,,,,,,,,,,,,,,,,,,,,,,,33,001,2023_Jan_24_1624,searchDisc5,2021.2.3,59.98641979518043,
,,,,,,,,,,,,,,,,,,,,,,,,,,135.19699139503064,None,2,14.68161524302559,135.19699139503064,None,,,,,,,,,,,,,,,,,,,,,,,,,,,,,,,,,,,,,,,,,,,,,,,,,,,,,,,,,,,,,,,,,33,001,2023_Jan_24_1624,searchDisc5,2021.2.3,59.98641979518043,
,,,,,,,,,,,,,,,,,,,,,,,,,,,,,,,,149.8808584990329,None,2,13.981898439989891,149.8808584990329,None,,,,,,,,,,,,,,,,,,,,,,,,,,,,,,,,,,,,,,,,,,,,,,,,,,,,,,,,,,,33,001,2023_Jan_24_1624,searchDisc5,2021.2.3,59.98641979518043,
,,,,,,,,,,,,,,,,,,,,,,,,,,,,,,,,,,,,,,163.86443014402175,None,2,10.765046060027089,164.84992413403234,None,,,,,,,,,,,,,,,,,,,,,,,,,,,,,,,,,,,,,,,,,,,,,,,,,,,,,33,001,2023_Jan_24_1624,searchDisc5,2021.2.3,59.98641979518043,
,,,,,,,,,,,,,,,,,,,,,,,,,,,,,,,,,,,,,,,,,,,,175.61483003600733,None,2,18.215271739987656,,,,,,,,,,,,,,,,,,,,,,,,,,,,,,,,,,,,,,,,,,,,,,,,,33,001,2023_Jan_24_1624,searchDisc5,2021.2.3,59.98641979518043,
,,,,,,,,,,,,,,,,,,,,,,,,,,,,,,,,,,,,,,,,,,,,,,,,196.83208306599408,None,196.83208306599408,None,2,5.263921744946856,196.83208306599408,None,,,,,,,,,,,,,,,,,,,,,,,,,,,,,,,,,,,,,,,,,33,001,2023_Jan_24_1624,searchDisc5,2021.2.3,59.98641979518043,
Practice arrays/exp1a_trial_30_colour0_distractors0_r.png,r,3,,,,0,0,0,14,,,,,,,,,,,,,,,,,,,,,,,,,,,,,,,,,,,,,,,,,,,,,,,202.11554606299615,None,2,35.10428954899544,202.11554606299615,None,237.28328096400946,None,3,1,2.59173067699885,237.28328096400946,None,239.86605360603426,None,,,,,,,,,,,,,,,,,,,,,,,,,,33,001,2023_Jan_24_1624,searchDisc5,2021.2.3,59.98641979518043,
Practice arrays/exp1a_trial_27_colour3_distractors9_l.png,l,1,,,,0,1,1,12,,,,,,,,,,,,,,,,,,,,,,,,,,,,,,,,,,,,,,,,,,,,,,,241.8685072500375,None,2,8.63054128701333,241.8685072500375,None,250.55045257799793,255.55055297602667,3,0,7.536318803031463,250.55045257799793,None,258.08588618104113,None,,,,,,,,,,,,,,,,,,,,,,,,,,33,001,2023_Jan_24_1624,searchDisc5,2021.2.3,59.98641979518043,
Practice arrays/exp1a_trial_18_colour1_distractors19_l.png,l,1,,,,0,2,2,8,,,,,,,,,,,,,,,,,,,,,,,,,,,,,,,,,,,,,,,,,,,,,,,260.0860230560065,None,2,5.082506611011922,260.0860230560065,None,265.2195811790298,None,1,1,3.0144277999643236,265.2195811790298,None,268.23413256101776,None,,,,,,,,,,,,,,,,,,,,,,,,,,33,001,2023_Jan_24_1624,searchDisc5,2021.2.3,59.98641979518043,
Practice arrays/exp1a_trial_23_colour2_distractors19_l.png,l,1,,,,0,3,3,10,,,,,,,,,,,,,,,,,,,,,,,,,,,,,,,,,,,,,,,,,,,,,,,270.23602774599567,None,2,1.7824423239799216,270.23602774599567,None,272.0706666330225,None,1,1,3.8969798480393365,272.0706666330225,None,275.96785559802083,None,,,,,,,,,,,,,,,,,,,,,,,,,,33,001,2023_Jan_24_1624,searchDisc5,2021.2.3,59.98641979518043,
Practice arrays/exp1a_trial_8_colour2_distractors19_r.png,r,3,,,,0,4,4,3,,,,,,,,,,,,,,,,,,,,,,,,,,,,,,,,,,,,,,,,,,,,,,,277.9692418150371,None,2,1.8153504660003819,277.9692418150371,None,279.83669893001206,None,3,1,1.6667692339979112,279.83669893001206,None,281.50113038299605,None,,,,,,,,,,,,,,,,,,,,,,,,,,33,001,2023_Jan_24_1624,searchDisc5,2021.2.3,59.98641979518043,
Practice arrays/exp1a_trial_1_colour1_distractors4_r.png,r,3,,,,0,5,5,1,,,,,,,,,,,,,,,,,,,,,,,,,,,,,,,,,,,,,,,,,,,,,,,283.50303713500034,None,2,1.0136614019866101,283.50303713500034,None,284.57028735103086,None,3,1,1.1384553930256516,284.57028735103086,None,285.70140060200356,None,,,,,,,,,,,,,,,,,,,,,,,,,,33,001,2023_Jan_24_1624,searchDisc5,2021.2.3,59.98641979518043,
Practice arrays/exp1a_trial_12_colour3_distractors9_r.png,r,3,,,,0,6,6,5,,,,,,,,,,,,,,,,,,,,,,,,,,,,,,,,,,,,,,,,,,,,,,,287.7033233999973,None,2,0.9303375859744847,287.7033233999973,None,288.6845617830404,None,3,1,1.2209160879720002,288.6845617830404,None,289.9016348820296,None,,,,,,,,,,,,,,,,,,,,,,,,,,33,001,2023_Jan_24_1624,searchDisc5,2021.2.3,59.98641979518043,
Practice arrays/exp1a_trial_16_colour1_distractors4_l.png,l,1,,,,0,7,7,13,,,,,,,,,,,,,,,,,,,,,,,,,,,,,,,,,,,,,,,,,,,,,,,291.90350696101086,None,2,0.7467459900071844,291.90350696101086,None,292.7017979840166,None,1,1,1.1552476750221103,292.7017979840166,None,293.8514402200235,None,,,,,,,,,,,,,,,,,,,,,,,,,,33,001,2023_Jan_24_1624,searchDisc5,2021.2.3,59.98641979518043,
Practice arrays/exp1a_trial_7_colour2_distractors9_r.png,r,3,,,,0,8,8,2,,,,,,,,,,,,,,,,,,,,,,,,,,,,,,,,,,,,,,,,,,,,,,,295.85338979703374,None,2,1.148034242040012,295.85338979703374,None,297.05189462704584,None,3,1,1.1014355659717694,297.05189462704584,None,298.15177991299424,None,,,,,,,,,,,,,,,,,,,,,,,,,,33,001,2023_Jan_24_1624,searchDisc5,2021.2.3,59.98641979518043,
Practice arrays/exp1a_trial_21_colour2_distractors4_l.png,l,1,,,,0,9,9,9,,,,,,,,,,,,,,,,,,,,,,,,,,,,,,,,,,,,,,,,,,,,,,,300.15332505700644,None,2,0.7491425600019284,300.15332505700644,None,300.95194033399457,None,1,1,1.1196341549512,300.95194033399457,None,302.068355696043,None,,,,,,,,,,,,,,,,,,,,,,,,,,33,001,2023_Jan_24_1624,searchDisc5,2021.2.3,59.98641979518043,
Practice arrays/exp1a_trial_10_colour3_distractors1_r.png,r,3,,,,0,10,10,4,,,,,,,,,,,,,,,,,,,,,,,,,,,,,,,,,,,,,,,,,,,,,,,304.07016529201064,None,2,1.0461918900255114,304.07016529201064,None,305.1707743810257,None,3,1,1.1543846349813975,305.1707743810257,None,306.3185827989946,None,,,,,,,,,,,,,,,,,,,,,,,,,,33,001,2023_Jan_24_1624,searchDisc5,2021.2.3,59.98641979518043,
Practice arrays/exp1a_trial_31_colour0_distractors0_l.png,l,1,,,,0,11,11,15,,,,,,,,,,,,,,,,,,,,,,,,,,,,,,,,,,,,,,,,,,,,,,,308.3202633570181,None,2,0.7341411649831571,308.3202633570181,None,309.10377914702985,None,1,1,1.136740958027076,309.10377914702985,None,310.23516904900316,None,,,,,,,,,,,,,,,,,,,,,,,,,,33,001,2023_Jan_24_1624,searchDisc5,2021.2.3,59.98641979518043,
Practice arrays/exp1a_trial_25_colour3_distractors1_l.png,l,1,,,,0,12,12,11,,,,,,,,,,,,,,,,,,,,,,,,,,,,,,,,,,,,,,,,,,,,,,,312.2370352370199,None,2,0.7638564910157584,312.2370352370199,None,313.0522912390297,None,1,1,1.0214701910153963,313.0522912390297,None,314.0687695069937,None,,,,,,,,,,,,,,,,,,,,,,,,,,33,001,2023_Jan_24_1624,searchDisc5,2021.2.3,59.98641979518043,
Practice arrays/exp1a_trial_14_colour3_distractors31_r.png,r,3,,,,0,13,13,6,,,,,,,,,,,,,,,,,,,,,,,,,,,,,,,,,,,,,,,,,,,,,,,316.0704029930057,None,2,1.2970700999721885,316.0704029930057,None,317.41860475199064,None,3,1,1.4356125469785184,317.41860475199064,None,318.85204946401063,None,,,,,,,,,,,,,,,,,,,,,,,,,,33,001,2023_Jan_24_1624,searchDisc5,2021.2.3,59.98641979518043,
Practice arrays/exp1a_trial_17_colour1_distractors9_l.png,l,1,,,,0,14,14,7,,,,,,,,,,,,,,,,,,,,,,,,,,,,,,,,,,,,,,,,,,,,,,,320.85385361500084,None,2,1.082026383955963,320.85385361500084,None,321.98786025401205,None,1,1,1.3483299600193277,321.98786025401205,None,323.33557967701927,None,,,,,,,,,,,,,,,,,,,,,,,,,,33,001,2023_Jan_24_1624,searchDisc5,2021.2.3,59.98641979518043,
Practice arrays/exp1a_trial_0_colour1_distractors1_r.png,r,3,,,,0,15,15,0,,,,,,,,,,,,,,,,,,,,,,,,,,,,,,,,,,,,,,,,,,,,,,,325.33778699999675,None,2,1.0661949450150132,325.33778699999675,None,326.4547925030347,None,3,1,1.5371768639888614,326.4547925030347,None,327.98580356000457,None,,,,,,,,,,,,,,,,,,,,,,,,,,33,001,2023_Jan_24_1624,searchDisc5,2021.2.3,59.98641979518043,
,,,,,,,,,,,,,,,,,,,,,,,,,,,,,,,,,,,,,,,,,,,,,,,,,,,,,,,,,,,,,,,,,,,,,,,330.0711554780137,None,2,12.581743082031608,331.0545015700045,None,,,,,,,,,,,,,,,,,,,,33,001,2023_Jan_24_1624,searchDisc5,2021.2.3,59.98641979518043,
images/exp2c_trial_246_colour2_distractors9_l.png,l,1,2,9,0,,,,,0,0,0,0,,,,,,,,,,,,,,,,,,,,,,,,,,,,,,,,,,,,,,,,,,,354.6558066820144,None,2,1.9454647849779576,354.6558066820144,None,,,,,,,,,,,,,,,,344.22181064100005,None,2,8.450536964985076,346.2045627560001,None,356.66273531800834,None,1,1,1.3301407300168648,356.66273531800834,None,358.00369903841056,None,None,None,None,,33,001,2023_Jan_24_1624,searchDisc5,2021.2.3,59.98641979518043,
images/exp2b_trial_74_colour3_distractors1_r.png,r,3,3,1,0,,,,,0,1,1,1,,,,,,,,,,,,,,,,,,,,,,,,,,,,,,,,,,,,,,,,,,,358.02184373204364,None,2,1.5069373429869302,358.02184373204364,None,,,,,,,,,,,,,,,,None,None,None,,None,None,359.570054832031,None,3,1,1.3380015040165745,359.570054832031,None,360.9035820987192,None,None,None,None,,33,001,2023_Jan_24_1624,searchDisc5,2021.2.3,59.98641979518043,
images/exp1a_trial_21_colour2_distractors4_l.png,l,1,2,4,0,,,,,0,2,2,2,,,,,,,,,,,,,,,,,,,,,,,,,,,,,,,,,,,,,,,,,,,360.91943018499296,None,2,1.1565827579470351,360.91943018499296,None,,,,,,,,,,,,,,,,None,None,None,,None,None,362.12152552901534,None,1,1,1.2538528779987246,362.12152552901534,None,363.37137309869286,None,None,None,None,,33,001,2023_Jan_24_1624,searchDisc5,2021.2.3,59.98641979518043,
images/exp2a_trial_176_colour1_distractors4_l.png,l,1,1,4,0,,,,,0,3,3,3,,,,,,,,,,,,,,,,,,,,,,,,,,,,,,,,,,,,,,,,,,,363.3867828500224,None,2,1.2897564109880477,363.3867828500224,None,,,,,,,,,,,,,,,,None,None,None,,None,None,364.71951923903544,None,1,1,1.2370609230129048,364.71951923903544,None,365.95371999870986,None,None,None,None,,33,001,2023_Jan_24_1624,searchDisc5,2021.2.3,59.98641979518043,
images/exp1a_trial_36_colour1_distractors31_r.png,r,3,1,31,0,,,,,0,4,4,4,,,,,,,,,,,,,,,,,,,,,,,,,,,,,,,,,,,,,,,,,,,365.9711107170442,None,2,1.2032657609670423,365.9711107170442,None,,,,,,,,,,,,,,,,None,None,None,,None,None,367.22152783098863,372.2205350990407,3,1,5.035587544029113,367.22152783098863,None,372.2559705757303,None,None,None,None,,33,001,2023_Jan_24_1624,searchDisc5,2021.2.3,59.98641979518043,
images/exp2a_trial_168_colour2_distractors19_r.png,r,3,2,19,0,,,,,0,5,5,5,,,,,,,,,,,,,,,,,,,,,,,,,,,,,,,,,,,,,,,,,,,372.2729596660356,None,2,1.2538315679994412,372.2729596660356,None,,,,,,,,,,,,,,,,None,None,None,,None,None,373.57540101202903,None,3,1,1.0804663070011884,373.57540101202903,None,374.65393193269847,None,None,None,None,,33,001,2023_Jan_24_1624,searchDisc5,2021.2.3,59.98641979518043,
images/exp1a_trial_59_colour3_distractors9_l.png,l,1,3,9,0,,,,,0,6,6,6,,,,,,,,,,,,,,,,,,,,,,,,,,,,,,,,,,,,,,,,,,,374.6711705700145,None,2,1.3228635999839753,374.6711705700145,None,,,,,,,,,,,,,,,,None,None,None,,None,None,376.0386917210417,None,1,1,1.1156949260039255,376.0386917210417,None,377.15395147673553,None,None,None,None,,33,001,2023_Jan_24_1624,searchDisc5,2021.2.3,59.98641979518043,
images/exp1a_trial_309_colour2_distractors4_l.png,l,1,2,4,0,,,,,0,7,7,7,,,,,,,,,,,,,,,,,,,,,,,,,,,,,,,,,,,,,,,,,,,377.17255140899215,None,2,1.0872576030087657,377.17255140899215,None,,,,,,,,,,,,,,,,None,None,None,,None,None,378.3040517769987,None,1,1,1.172418178000953,378.3040517769987,None,379.4714988057385,None,None,None,None,,33,001,2023_Jan_24_1624,searchDisc5,2021.2.3,59.98641979518043,
images/exp2a_trial_172_colour3_distractors9_r.png,r,3,3,9,0,,,,,0,8,8,8,,,,,,,,,,,,,,,,,,,,,,,,,,,,,,,,,,,,,,,,,,,379.4870606859913,None,2,1.0038625220186077,379.4870606859913,None,,,,,,,,,,,,,,,,None,None,None,,None,None,380.53677798004355,None,3,1,1.0709784220089205,380.53677798004355,None,381.60432071471587,None,None,None,None,,33,001,2023_Jan_24_1624,searchDisc5,2021.2.3,59.98641979518043,
images/exp2a_trial_55_colour2_distractors19_l.png,l,1,2,19,0,,,,,0,9,9,9,,,,,,,,,,,,,,,,,,,,,,,,,,,,,,,,,,,,,,,,,,,381.62158793001436,None,2,1.387604940973688,381.62158793001436,None,,,,,,,,,,,,,,,,None,None,None,,None,None,383.05628366203746,None,1,1,1.0986679979832843,383.05628366203746,None,384.1542500317446,None,None,None,None,,33,001,2023_Jan_24_1624,searchDisc5,2021.2.3,59.98641979518043,
images/exp2a_trial_108_colour3_distractors9_r.png,r,3,3,9,0,,,,,0,10,10,10,,,,,,,,,,,,,,,,,,,,,,,,,,,,,,,,,,,,,,,,,,,384.1734642100055,None,2,1.0045387600548565,384.1734642100055,None,,,,,,,,,,,,,,,,None,None,None,,None,None,385.2209856089903,None,3,1,1.1213373109931126,385.2209856089903,None,386.33773247071076,None,None,None,None,,33,001,2023_Jan_24_1624,searchDisc5,2021.2.3,59.98641979518043,
images/exp1a_trial_33_colour1_distractors4_r.png,r,3,1,4,0,,,,,0,11,11,11,,,,,,,,,,,,,,,,,,,,,,,,,,,,,,,,,,,,,,,,,,,386.35441493202234,None,2,1.1384080039570108,386.35441493202234,None,,,,,,,,,,,,,,,,None,None,None,,None,None,387.53837290999945,None,3,1,0.9043599349679425,387.53837290999945,None,388.43768467672635,None,None,None,None,,33,001,2023_Jan_24_1624,searchDisc5,2021.2.3,59.98641979518043,
images/exp2b_trial_36_colour1_distractors31_r.png,r,3,1,31,0,,,,,0,12,12,12,,,,,,,,,,,,,,,,,,,,,,,,,,,,,,,,,,,,,,,,,,,388.45396110299043,None,2,1.0379013359779492,388.45396110299043,None,,,,,,,,,,,,,,,,None,None,None,,None,None,389.5407876850222,None,3,1,0.9181380569934845,389.5407876850222,None,390.45448558870703,None,None,None,None,,33,001,2023_Jan_24_1624,searchDisc5,2021.2.3,59.98641979518043,
images/exp2c_trial_305_colour1_distractors9_l.png,l,1,1,9,0,,,,,0,13,13,13,,,,,,,,,,,,,,,,,,,,,,,,,,,,,,,,,,,,,,,,,,,390.47162288601976,None,2,1.0209916469757445,390.47162288601976,None,,,,,,,,,,,,,,,,None,None,None,,None,None,391.5380526590161,None,1,1,0.904919495980721,391.5380526590161,None,392.43776759674074,None,None,None,None,,33,001,2023_Jan_24_1624,searchDisc5,2021.2.3,59.98641979518043,
images/exp1a_trial_151_colour2_distractors19_l.png,l,1,2,19,0,,,,,0,14,14,14,,,,,,,,,,,,,,,,,,,,,,,,,,,,,,,,,,,,,,,,,,,392.456244460016,None,2,0.9234161059721373,392.456244460016,None,,,,,,,,,,,,,,,,None,None,None,,None,None,393.4236923090066,None,1,1,1.0990875120041892,393.4236923090066,None,394.520561466692,None,None,None,None,,33,001,2023_Jan_24_1624,searchDisc5,2021.2.3,59.98641979518043,
images/exp2b_trial_155_colour3_distractors9_l.png,l,1,3,9,0,,,,,0,15,15,15,,,,,,,,,,,,,,,,,,,,,,,,,,,,,,,,,,,,,,,,,,,394.54065695399186,None,2,0.8392716679954901,394.54065695399186,None,,,,,,,,,,,,,,,,None,None,None,,None,None,395.424427527003,None,1,1,1.0207726189983077,395.424427527003,None,396.4379504817189,None,None,None,None,,33,001,2023_Jan_24_1624,searchDisc5,2021.2.3,59.98641979518043,
images/exp2a_trial_35_colour1_distractors19_r.png,r,3,1,19,0,,,,,0,16,16,16,,,,,,,,,,,,,,,,,,,,,,,,,,,,,,,,,,,,,,,,,,,396.4570623339969,None,2,0.8375735150184482,396.4570623339969,None,,,,,,,,,,,,,,,,None,None,None,,None,None,397.3402219150448,None,3,1,0.9039115569903515,397.3402219150448,None,398.2378921867348,None,None,None,None,,33,001,2023_Jan_24_1624,searchDisc5,2021.2.3,59.98641979518043,
images/exp2c_trial_160_colour1_distractors1_r.png,r,3,1,1,0,,,,,0,17,17,17,,,,,,,,,,,,,,,,,,,,,,,,,,,,,,,,,,,,,,,,,,,398.25465026899474,None,2,0.9240039800060913,398.25465026899474,None,,,,,,,,,,,,,,,,None,None,None,,None,None,399.22184849204496,None,3,1,0.8864462049677968,399.22184849204496,None,400.10462004173314,None,None,None,None,,33,001,2023_Jan_24_1624,searchDisc5,2021.2.3,59.98641979518043,
images/exp2b_trial_120_colour2_distractors31_l.png,l,1,2,31,0,,,,,0,18,18,18,,,,,,,,,,,,,,,,,,,,,,,,,,,,,,,,,,,,,,,,,,,400.1235021449975,None,2,1.1211590099846944,400.1235021449975,None,,,,,,,,,,,,,,,,None,None,None,,None,None,401.2904334490304,None,1,1,0.670460250985343,401.2904334490304,None,401.9556878947187,None,None,None,None,,33,001,2023_Jan_24_1624,searchDisc5,2021.2.3,59.98641979518043,
images/exp2c_trial_247_colour2_distractors19_l.png,l,1,2,19,0,,,,,0,19,19,19,,,,,,,,,,,,,,,,,,,,,,,,,,,,,,,,,,,,,,,,,,,401.97115060902433,None,2,0.9377760619972833,401.97115060902433,None,,,,,,,,,,,,,,,,None,None,None,,None,None,402.9547013780102,None,1,1,0.9852186359930784,402.9547013780102,None,403.9372241066885,None,None,None,None,,33,001,2023_Jan_24_1624,searchDisc5,2021.2.3,59.98641979518043,
images/exp1a_trial_91_colour3_distractors9_l.png,l,1,3,9,0,,,,,0,20,20,20,,,,,,,,,,,,,,,,,,,,,,,,,,,,,,,,,,,,,,,,,,,403.95540610002354,None,2,0.8067274939967319,403.95540610002354,None,,,,,,,,,,,,,,,,None,None,None,,None,None,404.80581568100024,None,1,1,0.8366734369774349,404.80581568100024,None,405.63928290171316,None,None,None,None,,33,001,2023_Jan_24_1624,searchDisc5,2021.2.3,59.98641979518043,
images/exp2b_trial_98_colour1_distractors9_r.png,r,3,1,9,0,,,,,0,21,21,21,,,,,,,,,,,,,,,,,,,,,,,,,,,,,,,,,,,,,,,,,,,405.6554100459907,None,2,0.8034075910109095,405.6554100459907,None,,,,,,,,,,,,,,,,None,None,None,,None,None,406.50545577000594,None,3,1,0.887855897017289,406.50545577000594,None,407.38812008174136,None,None,None,None,,33,001,2023_Jan_24_1624,searchDisc5,2021.2.3,59.98641979518043,
images/exp2b_trial_224_colour1_distractors1_r.png,r,3,1,1,0,,,,,0,22,22,22,,,,,,,,,,,,,,,,,,,,,,,,,,,,,,,,,,,,,,,,,,,407.40513392700814,None,2,1.0555963359656744,407.40513392700814,None,,,,,,,,,,,,,,,,None,None,None,,None,None,408.5048726370442,None,3,1,1.1054588329861872,408.5048726370442,None,409.6049075687188,None,None,None,None,,33,001,2023_Jan_24_1624,searchDisc5,2021.2.3,59.98641979518043,
images/exp1a_trial_51_colour1_distractors31_l.png,l,1,1,31,0,,,,,0,23,23,23,,,,,,,,,,,,,,,,,,,,,,,,,,,,,,,,,,,,,,,,,,,409.6221128749894,None,2,0.7219481440261006,409.6221128749894,None,,,,,,,,,,,,,,,,None,None,None,,None,None,410.39033034601016,None,1,1,0.782081572979223,410.39033034601016,None,411.1717807467212,None,None,None,None,,33,001,2023_Jan_24_1624,searchDisc5,2021.2.3,59.98641979518043,
images/exp2c_trial_194_colour1_distractors9_r.png,r,3,1,9,0,,,,,0,24,24,24,,,,,,,,,,,,,,,,,,,,,,,,,,,,,,,,,,,,,,,,,,,411.188767329033,None,2,0.7739084119675681,411.188767329033,None,,,,,,,,,,,,,,,,None,None,None,,None,None,412.0055995520088,None,3,1,0.8360163429751992,412.0055995520088,None,412.8383590027224,None,None,None,None,,33,001,2023_Jan_24_1624,searchDisc5,2021.2.3,59.98641979518043,
images/exp2b_trial_78_colour3_distractors31_r.png,r,3,3,31,0,,,,,0,25,25,25,,,,,,,,,,,,,,,,,,,,,,,,,,,,,,,,,,,,,,,,,,,412.855560838012,None,2,0.8407796649844386,412.855560838012,None,,,,,,,,,,,,,,,,None,None,None,,None,None,413.740446618991,None,3,1,0.8663361549843103,413.740446618991,None,414.6050923106959,None,None,None,None,,33,001,2023_Jan_24_1624,searchDisc5,2021.2.3,59.98641979518043,
images/exp1a_trial_86_colour2_distractors9_l.png,l,1,2,9,0,,,,,0,26,26,26,,,,,,,,,,,,,,,,,,,,,,,,,,,,,,,,,,,,,,,,,,,414.62349621602334,None,2,0.904545008961577,414.62349621602334,None,,,,,,,,,,,,,,,,None,None,None,,None,None,415.5717268610024,None,1,1,0.8035783899831586,415.5717268610024,None,416.37167363771005,None,None,None,None,,33,001,2023_Jan_24_1624,searchDisc5,2021.2.3,59.98641979518043,
images/exp2a_trial_233_colour2_distractors31_r.png,r,3,2,31,0,,,,,0,27,27,27,,,,,,,,,,,,,,,,,,,,,,,,,,,,,,,,,,,,,,,,,,,416.3882921410259,None,2,0.9574585349764675,416.3882921410259,None,,,,,,,,,,,,,,,,None,None,None,,None,None,417.39544912503334,None,3,1,0.8431138960295357,417.39544912503334,None,418.2386686996906,None,None,None,None,,33,001,2023_Jan_24_1624,searchDisc5,2021.2.3,59.98641979518043,
images/exp1a_trial_60_colour3_distractors19_l.png,l,1,3,19,0,,,,,0,28,28,28,,,,,,,,,,,,,,,,,,,,,,,,,,,,,,,,,,,,,,,,,,,418.25777470303,None,2,1.3886871919967234,418.25777470303,None,,,,,,,,,,,,,,,,None,None,None,,None,None,419.69106676604133,None,1,1,0.8352762319846079,419.69106676604133,None,420.52200220373925,None,None,None,None,,33,001,2023_Jan_24_1624,searchDisc5,2021.2.3,59.98641979518043,
images/exp2b_trial_277_colour2_distractors4_l.png,l,1,2,4,0,,,,,0,29,29,29,,,,,,,,,,,,,,,,,,,,,,,,,,,,,,,,,,,,,,,,,,,420.53821281000273,None,2,0.8704190760035999,420.53821281000273,None,,,,,,,,,,,,,,,,None,None,None,,None,None,421.45754416502314,None,1,1,0.8724425609689206,421.45754416502314,None,422.3227118757204,None,None,None,None,,33,001,2023_Jan_24_1624,searchDisc5,2021.2.3,59.98641979518043,
images/exp2c_trial_133_colour2_distractors1_r.png,r,3,2,1,0,,,,,0,30,30,30,,,,,,,,,,,,,,,,,,,,,,,,,,,,,,,,,,,,,,,,,,,422.33805821603164,None,2,0.8879926439840347,422.33805821603164,None,,,,,,,,,,,,,,,,None,None,None,,None,None,423.27368009800557,None,3,1,0.9384353750501759,423.27368009800557,None,424.20533208572306,None,None,None,None,,33,001,2023_Jan_24_1624,searchDisc5,2021.2.3,59.98641979518043,
images/exp1a_trial_206_colour3_distractors31_r.png,r,3,3,31,0,,,,,0,31,31,31,,,,,,,,,,,,,,,,,,,,,,,,,,,,,,,,,,,,,,,,,,,424.2224558379967,None,2,0.9546991669922136,424.2224558379967,None,,,,,,,,,,,,,,,,None,None,None,,None,None,425.22424610401504,None,3,1,0.8509970820159651,425.22424610401504,None,426.0720202967059,None,None,None,None,,33,001,2023_Jan_24_1624,searchDisc5,2021.2.3,59.98641979518043,
images/exp2a_trial_192_colour1_distractors1_r.png,r,3,1,1,0,,,,,0,32,32,32,,,,,,,,,,,,,,,,,,,,,,,,,,,,,,,,,,,,,,,,,,,426.08925539802294,None,2,0.9054809280205518,426.08925539802294,None,,,,,,,,,,,,,,,,None,None,None,,None,None,427.0411169549916,None,3,1,0.8715530130430125,427.0411169549916,None,427.90545735071646,None,None,None,None,,33,001,2023_Jan_24_1624,searchDisc5,2021.2.3,59.98641979518043,
images/exp1a_trial_54_colour2_distractors9_l.png,l,1,2,9,0,,,,,0,33,33,33,,,,,,,,,,,,,,,,,,,,,,,,,,,,,,,,,,,,,,,,,,,427.92264553601854,None,2,0.9405786849674769,427.92264553601854,None,,,,,,,,,,,,,,,,None,None,None,,None,None,428.90485071303556,None,1,1,0.867583877989091,428.90485071303556,None,429.77226347569376,None,None,None,None,,33,001,2023_Jan_24_1624,searchDisc5,2021.2.3,59.98641979518043,
images/exp2c_trial_319_colour0_distractors0_l.png,l,1,0,0,0,,,,,0,34,34,34,,,,,,,,,,,,,,,,,,,,,,,,,,,,,,,,,,,,,,,,,,,429.7895046490012,None,2,0.9065835069632158,429.7895046490012,None,,,,,,,,,,,,,,,,None,None,None,,None,None,430.74170010804664,None,1,1,0.8874863869859837,430.74170010804664,None,431.62206867471104,None,None,None,None,,33,001,2023_Jan_24_1624,searchDisc5,2021.2.3,59.98641979518043,
images/exp2b_trial_248_colour2_distractors31_l.png,l,1,2,31,0,,,,,0,35,35,35,,,,,,,,,,,,,,,,,,,,,,,,,,,,,,,,,,,,,,,,,,,431.6391131050186,None,2,0.9379456869792193,431.6391131050186,None,,,,,,,,,,,,,,,,None,None,None,,None,None,432.62229747103993,None,1,1,0.7529982689884491,432.62229747103993,None,433.3722458007396,None,None,None,None,,33,001,2023_Jan_24_1624,searchDisc5,2021.2.3,59.98641979518043,
images/exp2a_trial_215_colour2_distractors19_l.png,l,1,2,19,0,,,,,0,36,36,36,,,,,,,,,,,,,,,,,,,,,,,,,,,,,,,,,,,,,,,,,,,433.3886724570184,None,2,0.7898882350418717,433.3886724570184,None,,,,,,,,,,,,,,,,None,None,None,,None,None,434.22563619399443,None,1,1,0.7979404630023055,434.22563619399443,None,435.023445991741,None,None,None,None,,33,001,2023_Jan_24_1624,searchDisc5,2021.2.3,59.98641979518043,
images/exp2b_trial_190_colour0_distractors0_r.png,r,3,0,0,0,,,,,0,37,37,37,,,,,,,,,,,,,,,,,,,,,,,,,,,,,,,,,,,,,,,,,,,435.039780460007,None,2,0.7720194869907573,435.039780460007,None,,,,,,,,,,,,,,,,None,None,None,,None,None,435.85774946102174,None,3,1,0.737184101017192,435.85774946102174,None,436.58897965971846,None,None,None,None,,33,001,2023_Jan_24_1624,searchDisc5,2021.2.3,59.98641979518043,
images/exp2b_trial_79_colour1_distractors1_l.png,l,1,1,1,0,,,,,0,38,38,38,,,,,,,,,,,,,,,,,,,,,,,,,,,,,,,,,,,,,,,,,,,436.60536849102937,None,2,0.8055365239852108,436.60536849102937,None,,,,,,,,,,,,,,,,None,None,None,,None,None,437.45736226503504,None,1,1,0.7549570769770071,437.45736226503504,None,438.20577901473735,None,None,None,None,,33,001,2023_Jan_24_1624,searchDisc5,2021.2.3,59.98641979518043,
images/exp2a_trial_28_colour3_distractors19_l.png,l,1,3,19,0,,,,,0,39,39,39,,,,,,,,,,,,,,,,,,,,,,,,,,,,,,,,,,,,,,,,,,,438.2221535160206,None,2,0.7712802730384283,438.2221535160206,None,,,,,,,,,,,,,,,,None,None,None,,None,None,439.0397769320407,None,1,1,0.7704510510084219,439.0397769320407,None,439.8057490257197,None,None,None,None,,33,001,2023_Jan_24_1624,searchDisc5,2021.2.3,59.98641979518043,
images/exp2a_trial_231_colour2_distractors9_r.png,r,3,2,9,0,,,,,0,40,40,40,,,,,,,,,,,,,,,,,,,,,,,,,,,,,,,,,,,,,,,,,,,439.8222309059929,None,2,0.7710564070148394,439.8222309059929,None,,,,,,,,,,,,,,,,None,None,None,,None,None,440.64215607504593,None,3,1,0.7834521539625712,440.64215607504593,None,441.4224606057396,None,None,None,None,,33,001,2023_Jan_24_1624,searchDisc5,2021.2.3,59.98641979518043,
images/exp1a_trial_243_colour1_distractors31_l.png,l,1,1,31,0,,,,,0,41,41,41,,,,,,,,,,,,,,,,,,,,,,,,,,,,,,,,,,,,,,,,,,,441.43895261199214,None,2,0.8390055320342071,441.43895261199214,None,,,,,,,,,,,,,,,,None,None,None,,None,None,442.3225510159973,None,1,1,0.7323578480281867,442.3225510159973,None,443.05579484370537,None,None,None,None,,33,001,2023_Jan_24_1624,searchDisc5,2021.2.3,59.98641979518043,
images/exp1a_trial_123_colour3_distractors9_l.png,l,1,3,9,0,,,,,0,42,42,42,,,,,,,,,,,,,,,,,,,,,,,,,,,,,,,,,,,,,,,,,,,443.07278555701487,None,2,0.7878663340234198,443.07278555701487,None,,,,,,,,,,,,,,,,None,None,None,,None,None,443.9058932590415,None,1,1,0.8362485929974355,443.9058932590415,None,444.73860460170545,None,None,None,None,,33,001,2023_Jan_24_1624,searchDisc5,2021.2.3,59.98641979518043,
images/exp2c_trial_318_colour0_distractors0_r.png,r,3,0,0,0,,,,,0,43,43,43,,,,,,,,,,,,,,,,,,,,,,,,,,,,,,,,,,,,,,,,,,,444.75643971801037,None,2,0.8385630859993398,444.75643971801037,None,,,,,,,,,,,,,,,,None,None,None,,None,None,445.63925165799446,None,3,1,0.8245344049646519,445.63925165799446,None,446.45600579172606,None,None,None,None,,33,001,2023_Jan_24_1624,searchDisc5,2021.2.3,59.98641979518043,
images/exp2a_trial_3_colour1_distractors19_r.png,r,3,1,19,0,,,,,0,44,44,44,,,,,,,,,,,,,,,,,,,,,,,,,,,,,,,,,,,,,,,,,,,446.4721431270009,None,2,0.8076798610272817,446.4721431270009,None,,,,,,,,,,,,,,,,None,None,None,,None,None,447.3249804780353,None,1,0,0.7152980020036921,447.3249804780353,None,448.03936140070437,None,None,None,None,,33,001,2023_Jan_24_1624,searchDisc5,2021.2.3,59.98641979518043,
images/exp2a_trial_16_colour1_distractors4_l.png,l,1,1,4,0,,,,,0,45,45,45,,,,,,,,,,,,,,,,,,,,,,,,,,,,,,,,,,,,,,,,,,,448.0560865640291,None,2,2.105341359041631,448.0560865640291,None,,,,,,,,,,,,,,,,None,None,None,,None,None,450.20899373304565,None,1,1,0.5202988579985686,450.20899373304565,None,450.7219158207299,None,None,None,None,,33,001,2023_Jan_24_1624,searchDisc5,2021.2.3,59.98641979518043,
images/exp2a_trial_5_colour2_distractors1_r.png,r,3,2,1,0,,,,,0,46,46,46,,,,,,,,,,,,,,,,,,,,,,,,,,,,,,,,,,,,,,,,,,,450.7392225849908,None,2,0.823051599028986,450.7392225849908,None,,,,,,,,,,,,,,,,None,None,None,,None,None,451.609128237993,None,3,1,0.5044968320289627,451.609128237993,None,452.1060802837019,None,None,None,None,,33,001,2023_Jan_24_1624,searchDisc5,2021.2.3,59.98641979518043,
images/exp2c_trial_110_colour3_distractors31_r.png,r,3,3,31,0,,,,,0,47,47,47,,,,,,,,,,,,,,,,,,,,,,,,,,,,,,,,,,,,,,,,,,,452.12314319598954,None,2,0.9396333139738999,452.12314319598954,None,,,,,,,,,,,,,,,,None,None,None,,None,None,453.1060449630022,None,3,1,0.7173800219898112,453.1060449630022,None,453.82288784970297,None,None,None,None,,33,001,2023_Jan_24_1624,searchDisc5,2021.2.3,59.98641979518043,
images/exp2c_trial_298_colour3_distractors1_r.png,r,3,3,1,0,,,,,0,48,48,48,,,,,,,,,,,,,,,,,,,,,,,,,,,,,,,,,,,,,,,,,,,453.83925293100765,None,2,0.8242109040147625,453.83925293100765,None,,,,,,,,,,,,,,,,None,None,None,,None,None,454.7064498999971,None,3,1,0.7864713089657016,454.7064498999971,None,455.48956791474484,None,None,None,None,,33,001,2023_Jan_24_1624,searchDisc5,2021.2.3,59.98641979518043,
images/exp2b_trial_268_colour3_distractors9_r.png,r,3,3,9,0,,,,,0,49,49,49,,,,,,,,,,,,,,,,,,,,,,,,,,,,,,,,,,,,,,,,,,,455.5059470440028,None,2,1.1052164930151775,455.5059470440028,None,,,,,,,,,,,,,,,,None,None,None,,None,None,456.65933133201906,None,3,1,0.8541785880224779,456.65933133201906,None,457.5062386736972,None,None,None,None,,33,001,2023_Jan_24_1624,searchDisc5,2021.2.3,59.98641979518043,
images/exp2c_trial_151_colour2_distractors19_l.png,l,1,2,19,0,,,,,0,50,50,50,,,,,,,,,,,,,,,,,,,,,,,,,,,,,,,,,,,,,,,,,,,457.52523714199197,None,2,1.138116056972649,457.52523714199197,None,,,,,,,,,,,,,,,,None,None,None,,None,None,458.7089212179999,None,1,1,0.7225363019970246,458.7089212179999,None,459.42310200369684,None,None,None,None,,33,001,2023_Jan_24_1624,searchDisc5,2021.2.3,59.98641979518043,
images/exp2a_trial_232_colour2_distractors19_r.png,r,3,2,19,0,,,,,0,51,51,51,,,,,,,,,,,,,,,,,,,,,,,,,,,,,,,,,,,,,,,,,,,459.4393579720054,None,2,1.3207582880277187,459.4393579720054,None,,,,,,,,,,,,,,,,None,None,None,,None,None,460.80696524103405,None,3,1,0.6638261059997603,460.80696524103405,None,461.4729577457183,None,None,None,None,,33,001,2023_Jan_24_1624,searchDisc5,2021.2.3,59.98641979518043,
images/exp2c_trial_248_colour2_distractors31_l.png,l,1,2,31,0,,,,,0,52,52,52,,,,,,,,,,,,,,,,,,,,,,,,,,,,,,,,,,,,,,,,,,,461.489356503007,None,2,1.0713722569635138,461.489356503007,None,,,,,,,,,,,,,,,,None,None,None,,None,None,462.60948361002374,None,1,1,0.9864786880207248,462.60948361002374,None,463.58972902869573,None,None,None,None,,33,001,2023_Jan_24_1624,searchDisc5,2021.2.3,59.98641979518043,
images/exp2b_trial_148_colour2_distractors1_l.png,l,1,2,1,0,,,,,0,53,53,53,,,,,,,,,,,,,,,,,,,,,,,,,,,,,,,,,,,,,,,,,,,463.6061138320365,None,2,0.7923821450094692,463.6061138320365,None,,,,,,,,,,,,,,,,None,None,None,,None,None,464.4430339059909,None,1,1,0.6331604800070636,464.4430339059909,None,465.0730600967072,None,None,None,None,,33,001,2023_Jan_24_1624,searchDisc5,2021.2.3,59.98641979518043,
images/exp2c_trial_61_colour3_distractors31_l.png,l,1,3,31,0,,,,,0,54,54,54,,,,,,,,,,,,,,,,,,,,,,,,,,,,,,,,,,,,,,,,,,,465.0894762460375,None,2,0.937980143004097,465.0894762460375,None,,,,,,,,,,,,,,,,None,None,None,,None,None,466.0752134200302,None,1,1,0.7020749120274559,466.0752134200302,None,466.77315143169835,None,None,None,None,,33,001,2023_Jan_24_1624,searchDisc5,2021.2.3,59.98641979518043,
images/exp2c_trial_98_colour1_distractors9_r.png,r,3,1,9,0,,,,,0,55,55,55,,,,,,,,,,,,,,,,,,,,,,,,,,,,,,,,,,,,,,,,,,,466.7888831180171,None,2,0.8072105169994757,466.7888831180171,None,,,,,,,,,,,,,,,,None,None,None,,None,None,467.64290667604655,None,3,1,0.869030655012466,467.64290667604655,None,468.5066441007075,None,None,None,None,,33,001,2023_Jan_24_1624,searchDisc5,2021.2.3,59.98641979518043,
images/exp2b_trial_251_colour3_distractors9_l.png,l,1,3,9,0,,,,,0,56,56,56,,,,,,,,,,,,,,,,,,,,,,,,,,,,,,,,,,,,,,,,,,,468.52361404901603,None,2,0.9074983890168369,468.52361404901603,None,,,,,,,,,,,,,,,,None,None,None,,None,None,469.47550526901614,None,1,1,0.7853925449890085,469.47550526901614,None,470.25672568473965,None,None,None,None,,33,001,2023_Jan_24_1624,searchDisc5,2021.2.3,59.98641979518043,
images/exp1a_trial_241_colour1_distractors9_l.png,l,1,1,9,0,,,,,0,57,57,57,,,,,,,,,,,,,,,,,,,,,,,,,,,,,,,,,,,,,,,,,,,470.27393415401457,None,2,1.5544401609804481,470.27393415401457,None,,,,,,,,,,,,,,,,None,None,None,,None,None,471.87373820104403,None,1,1,0.7370667529758066,471.87373820104403,None,472.6066785797011,None,None,None,None,,33,001,2023_Jan_24_1624,searchDisc5,2021.2.3,59.98641979518043,
images/exp2b_trial_191_colour0_distractors0_l.png,l,1,0,0,0,,,,,0,58,58,58,,,,,,,,,,,,,,,,,,,,,,,,,,,,,,,,,,,,,,,,,,,472.62363780103624,None,2,0.9742958060232922,472.62363780103624,None,,,,,,,,,,,,,,,,None,None,None,,None,None,473.6400755480281,None,1,1,0.7386257310281508,473.6400755480281,None,474.3751693177037,None,None,None,None,,33,001,2023_Jan_24_1624,searchDisc5,2021.2.3,59.98641979518043,
images/exp1a_trial_17_colour1_distractors9_l.png,l,1,1,9,0,,,,,0,59,59,59,,,,,,,,,,,,,,,,,,,,,,,,,,,,,,,,,,,,,,,,,,,474.3918358440278,None,2,0.737439855991397,474.3918358440278,None,,,,,,,,,,,,,,,,None,None,None,,None,None,475.17343586700736,None,1,1,0.7710279139573686,475.17343586700736,None,475.9401096297079,None,None,None,None,,33,001,2023_Jan_24_1624,searchDisc5,2021.2.3,59.98641979518043,
images/exp2b_trial_308_colour2_distractors1_l.png,l,1,2,1,0,,,,,0,60,60,60,,,,,,,,,,,,,,,,,,,,,,,,,,,,,,,,,,,,,,,,,,,475.9560005190433,None,2,0.7378345630131662,475.9560005190433,None,,,,,,,,,,,,,,,,None,None,None,,None,None,476.74240822403226,None,1,1,0.8375137479742989,476.74240822403226,None,477.57352474774234,None,None,None,None,,33,001,2023_Jan_24_1624,searchDisc5,2021.2.3,59.98641979518043,
images/exp2c_trial_93_colour3_distractors31_l.png,l,1,3,31,0,,,,,0,61,61,61,,,,,,,,,,,,,,,,,,,,,,,,,,,,,,,,,,,,,,,,,,,477.59080514201196,None,2,0.7719128030003048,477.59080514201196,None,,,,,,,,,,,,,,,,None,None,None,,None,None,478.409763845033,None,1,1,1.353242384037003,478.409763845033,None,479.7579462437425,None,None,None,None,,33,001,2023_Jan_24_1624,searchDisc5,2021.2.3,59.98641979518043,
images/exp2b_trial_173_colour3_distractors19_r.png,r,3,3,19,0,,,,,0,62,62,62,,,,,,,,,,,,,,,,,,,,,,,,,,,,,,,,,,,,,,,,,,,479.77389500901336,None,2,0.6708043749677017,479.77389500901336,None,,,,,,,,,,,,,,,,None,None,None,,None,None,480.49019127502106,None,3,1,0.820676471979823,480.49019127502106,None,481.3069910897175,None,None,None,None,,33,001,2023_Jan_24_1624,searchDisc5,2021.2.3,59.98641979518043,
images/exp2c_trial_252_colour3_distractors19_l.png,l,1,3,19,0,,,,,0,63,63,63,,,,,,,,,,,,,,,,,,,,,,,,,,,,,,,,,,,,,,,,,,,481.32341613899916,None,2,0.6721654400462285,481.32341613899916,None,,,,,,,,,,,,,,,,None,None,None,,None,None,482.04115145799005,None,1,1,0.6865894139627926,482.04115145799005,None,482.7236330166925,None,None,None,None,,33,001,2023_Jan_24_1624,searchDisc5,2021.2.3,59.98641979518043,
images/exp2c_trial_280_colour2_distractors31_l.png,l,1,2,31,0,,,,,0,64,64,64,,,,,,,,,,,,,,,,,,,,,,,,,,,,,,,,,,,,,,,,,,,482.741023013019,None,2,0.6544595820014365,482.741023013019,None,,,,,,,,,,,,,,,,None,None,None,,None,None,483.44091653701616,None,1,1,0.6524858019547537,483.44091653701616,None,484.0902093407349,None,None,None,None,,33,001,2023_Jan_24_1624,searchDisc5,2021.2.3,59.98641979518043,
images/exp2b_trial_222_colour0_distractors0_r.png,r,3,0,0,0,,,,,0,65,65,65,,,,,,,,,,,,,,,,,,,,,,,,,,,,,,,,,,,,,,,,,,,484.10874195501674,None,2,0.7405916469870135,484.10874195501674,None,,,,,,,,,,,,,,,,None,None,None,,None,None,484.8932655120152,None,3,1,0.7042301140027121,484.8932655120152,None,485.59037137171254,None,None,None,None,,33,001,2023_Jan_24_1624,searchDisc5,2021.2.3,59.98641979518043,
images/exp2a_trial_294_colour2_distractors4_r.png,r,3,2,4,0,,,,,0,66,66,66,,,,,,,,,,,,,,,,,,,,,,,,,,,,,,,,,,,,,,,,,,,485.6073038090253,None,2,0.6546246249927208,485.6073038090253,None,,,,,,,,,,,,,,,,None,None,None,,None,None,486.30699147999985,None,3,1,0.8205843099858612,486.30699147999985,None,487.12367853173055,None,None,None,None,,33,001,2023_Jan_24_1624,searchDisc5,2021.2.3,59.98641979518043,
images/exp1a_trial_47_colour1_distractors1_l.png,l,1,1,1,0,,,,,0,67,67,67,,,,,,,,,,,,,,,,,,,,,,,,,,,,,,,,,,,,,,,,,,,487.1410655740183,None,2,0.6041426369920373,487.1410655740183,None,,,,,,,,,,,,,,,,None,None,None,,None,None,487.7913360320381,None,1,1,0.6398123110411689,487.7913360320381,None,488.42390221974347,None,None,None,None,,33,001,2023_Jan_24_1624,searchDisc5,2021.2.3,59.98641979518043,
images/exp2b_trial_282_colour3_distractors4_l.png,l,1,3,4,0,,,,,0,68,68,68,,,,,,,,,,,,,,,,,,,,,,,,,,,,,,,,,,,,,,,,,,,488.44239707203815,None,2,0.6541912580141798,488.44239707203815,None,,,,,,,,,,,,,,,,None,None,None,,None,None,489.1403721040115,None,1,1,0.674510671000462,489.1403721040115,None,489.8082733966876,None,None,None,None,,33,001,2023_Jan_24_1624,searchDisc5,2021.2.3,59.98641979518043,
images/exp2b_trial_172_colour3_distractors9_r.png,r,3,3,9,0,,,,,0,69,69,69,,,,,,,,,,,,,,,,,,,,,,,,,,,,,,,,,,,,,,,,,,,489.82315295399167,None,2,0.6222137669683434,489.82315295399167,None,,,,,,,,,,,,,,,,None,None,None,,None,None,490.49118397699203,None,3,1,0.7195973339839838,490.49118397699203,None,491.206632986723,None,None,None,None,,33,001,2023_Jan_24_1624,searchDisc5,2021.2.3,59.98641979518043,
images/exp2c_trial_122_colour3_distractors4_l.png,l,1,3,4,0,,,,,0,70,70,70,,,,,,,,,,,,,,,,,,,,,,,,,,,,,,,,,,,,,,,,,,,491.2235615190002,None,2,0.6395975659834221,491.2235615190002,None,,,,,,,,,,,,,,,,None,None,None,,None,None,491.90718113299226,None,1,1,0.6235610280418769,491.90718113299226,None,492.52391950273886,None,None,None,None,,33,001,2023_Jan_24_1624,searchDisc5,2021.2.3,59.98641979518043,
images/exp1a_trial_279_colour2_distractors19_l.png,l,1,2,19,0,,,,,0,71,71,71,,,,,,,,,,,,,,,,,,,,,,,,,,,,,,,,,,,,,,,,,,,492.54103647900047,None,2,0.602617304015439,492.54103647900047,None,,,,,,,,,,,,,,,,None,None,None,,None,None,493.19142779300455,None,1,1,0.6023850289639086,493.19142779300455,None,493.79063808271894,None,None,None,None,,33,001,2023_Jan_24_1624,searchDisc5,2021.2.3,59.98641979518043,
images/exp2c_trial_251_colour3_distractors9_l.png,l,1,3,9,0,,,,,0,72,72,72,,,,,,,,,,,,,,,,,,,,,,,,,,,,,,,,,,,,,,,,,,,493.8078166859923,None,2,0.6371767790406011,493.8078166859923,None,,,,,,,,,,,,,,,,None,None,None,,None,None,494.49174697801936,None,1,1,0.6372270050342195,494.49174697801936,None,495.12482028768864,None,None,None,None,,33,001,2023_Jan_24_1624,searchDisc5,2021.2.3,59.98641979518043,
images/exp1a_trial_50_colour1_distractors19_l.png,l,1,1,19,0,,,,,0,73,73,73,,,,,,,,,,,,,,,,,,,,,,,,,,,,,,,,,,,,,,,,,,,495.14097280200804,None,2,0.5722975429962389,495.14097280200804,None,,,,,,,,,,,,,,,,None,None,None,,None,None,495.7593550810125,None,1,1,0.6344469049945474,495.7593550810125,None,496.3900028297212,None,None,None,None,,33,001,2023_Jan_24_1624,searchDisc5,2021.2.3,59.98641979518043,
images/exp2a_trial_44_colour3_distractors9_r.png,r,3,3,9,0,,,,,0,74,74,74,,,,,,,,,,,,,,,,,,,,,,,,,,,,,,,,,,,,,,,,,,,496.40799785003765,None,2,0.5234499840298668,496.40799785003765,None,,,,,,,,,,,,,,,,None,None,None,,None,None,496.9772453380283,None,3,1,0.9511668540071696,496.9772453380283,None,497.9240190947312,None,None,None,None,,33,001,2023_Jan_24_1624,searchDisc5,2021.2.3,59.98641979518043,
images/exp1a_trial_293_colour2_distractors1_r.png,r,3,2,1,0,,,,,0,75,75,75,,,,,,,,,,,,,,,,,,,,,,,,,,,,,,,,,,,,,,,,,,,497.94046932604397,None,2,0.521412477013655,497.94046932604397,None,,,,,,,,,,,,,,,,None,None,None,,None,None,498.50948437000625,None,3,1,0.7392632990377024,498.50948437000625,None,499.24076050973963,None,None,None,None,,33,001,2023_Jan_24_1624,searchDisc5,2021.2.3,59.98641979518043,
images/exp2c_trial_81_colour1_distractors9_l.png,l,1,1,9,0,,,,,0,76,76,76,,,,,,,,,,,,,,,,,,,,,,,,,,,,,,,,,,,,,,,,,,,499.25622863700846,None,2,0.605210256006103,499.25622863700846,None,,,,,,,,,,,,,,,,None,None,None,,None,None,499.90861421002774,None,1,1,0.670775588019751,499.90861421002774,None,500.5742148027057,None,None,None,None,,33,001,2023_Jan_24_1624,searchDisc5,2021.2.3,59.98641979518043,
images/exp1a_trial_253_colour3_distractors31_l.png,l,1,3,31,0,,,,,0,77,77,77,,,,,,,,,,,,,,,,,,,,,,,,,,,,,,,,,,,,,,,,,,,500.5910113650025,None,2,0.8546524890116416,500.5910113650025,None,,,,,,,,,,,,,,,,None,None,None,,None,None,501.49101116799284,None,1,1,0.9335281040403061,501.49101116799284,None,502.4241717127152,None,None,None,None,,33,001,2023_Jan_24_1624,searchDisc5,2021.2.3,59.98641979518043,
images/exp1a_trial_165_colour2_distractors1_r.png,r,3,2,1,0,,,,,0,78,78,78,,,,,,,,,,,,,,,,,,,,,,,,,,,,,,,,,,,,,,,,,,,502.4405291280127,None,2,1.0211178890313022,502.4405291280127,None,,,,,,,,,,,,,,,,None,None,None,,None,None,503.50859647704056,None,3,1,0.6895286029903218,503.50859647704056,None,504.19086153869284,None,None,None,None,,33,001,2023_Jan_24_1624,searchDisc5,2021.2.3,59.98641979518043,
images/exp2c_trial_63_colour0_distractors0_l.png,l,1,0,0,0,,,,,0,79,79,79,,,,,,,,,,,,,,,,,,,,,,,,,,,,,,,,,,,,,,,,,,,504.20818251004675,None,2,1.340370145975612,504.20818251004675,None,,,,,,,,,,,,,,,,None,None,None,,None,None,505.59007780998945,None,1,1,0.5033890140475705,505.59007780998945,None,506.0909581446904,None,None,None,None,,33,001,2023_Jan_24_1624,searchDisc5,2021.2.3,59.98641979518043,
images/exp2b_trial_201_colour2_distractors31_r.png,r,3,2,31,0,,,,,0,80,80,80,,,,,,,,,,,,,,,,,,,,,,,,,,,,,,,,,,,,,,,,,,,506.10783748404356,None,2,0.7223933779750951,506.10783748404356,None,,,,,,,,,,,,,,,,None,None,None,,None,None,506.8768122160109,None,3,1,0.7850947310216725,506.8768122160109,None,507.6576755247079,None,None,None,None,,33,001,2023_Jan_24_1624,searchDisc5,2021.2.3,59.98641979518043,
images/exp2c_trial_259_colour1_distractors19_r.png,r,3,1,19,0,,,,,0,81,81,81,,,,,,,,,,,,,,,,,,,,,,,,,,,,,,,,,,,,,,,,,,,507.6772152300109,None,2,0.6216929339570925,507.6772152300109,None,,,,,,,,,,,,,,,,None,None,None,,None,None,508.3419013050152,None,3,1,0.5684166810242459,508.3419013050152,None,508.9072091197013,None,None,None,None,,33,001,2023_Jan_24_1624,searchDisc5,2021.2.3,59.98641979518043,
images/exp2c_trial_191_colour0_distractors0_l.png,l,1,0,0,0,,,,,0,82,82,82,,,,,,,,,,,,,,,,,,,,,,,,,,,,,,,,,,,,,,,,,,,508.92434918199433,None,2,0.5384401450282894,508.92434918199433,None,,,,,,,,,,,,,,,,None,None,None,,None,None,509.50789078202797,None,1,1,0.6055993179907091,509.50789078202797,None,510.1070042786887,None,None,None,None,,33,001,2023_Jan_24_1624,searchDisc5,2021.2.3,59.98641979518043,
images/exp2b_trial_143_colour1_distractors1_l.png,l,1,1,1,0,,,,,0,83,83,83,,,,,,,,,,,,,,,,,,,,,,,,,,,,,,,,,,,,,,,,,,,510.1252084430307,None,2,0.6394789960468188,510.1252084430307,None,,,,,,,,,,,,,,,,None,None,None,,None,None,510.8087482100236,None,1,1,0.5720277710352093,510.8087482100236,None,511.374438408704,None,None,None,None,,33,001,2023_Jan_24_1624,searchDisc5,2021.2.3,59.98641979518043,
images/exp2a_trial_158_colour0_distractors0_r.png,r,3,0,0,0,,,,,0,84,84,84,,,,,,,,,,,,,,,,,,,,,,,,,,,,,,,,,,,,,,,,,,,511.3935867100372,None,2,0.5237942259991542,511.3935867100372,None,,,,,,,,,,,,,,,,None,None,None,,None,None,511.9584986710106,None,3,1,0.8366772999870591,511.9584986710106,None,512.7911237317021,None,None,None,None,,33,001,2023_Jan_24_1624,searchDisc5,2021.2.3,59.98641979518043,
images/exp2a_trial_243_colour1_distractors31_l.png,l,1,1,31,0,,,,,0,85,85,85,,,,,,,,,,,,,,,,,,,,,,,,,,,,,,,,,,,,,,,,,,,512.8075872079935,None,2,1.0720124330255203,512.8075872079935,None,,,,,,,,,,,,,,,,None,None,None,,None,None,513.927160975989,None,1,1,0.6533999789971858,513.927160975989,None,514.5751841866877,None,None,None,None,,33,001,2023_Jan_24_1624,searchDisc5,2021.2.3,59.98641979518043,
images/exp1a_trial_48_colour1_distractors4_l.png,l,1,1,4,0,,,,,0,86,86,86,,,,,,,,,,,,,,,,,,,,,,,,,,,,,,,,,,,,,,,,,,,514.5921012760373,None,2,0.6071703730267473,514.5921012760373,None,,,,,,,,,,,,,,,,None,None,None,,None,None,515.2417334709899,None,1,1,0.585107468010392,515.2417334709899,None,515.8244853797369,None,None,None,None,,33,001,2023_Jan_24_1624,searchDisc5,2021.2.3,59.98641979518043,
images/exp2c_trial_217_colour3_distractors1_l.png,l,1,3,1,0,,,,,0,87,87,87,,,,,,,,,,,,,,,,,,,,,,,,,,,,,,,,,,,,,,,,,,,515.8410137610044,None,2,0.9899071200052276,515.8410137610044,None,,,,,,,,,,,,,,,,None,None,None,,None,None,516.8747665199917,None,1,1,0.5227663419791497,516.8747665199917,None,517.3913313167286,None,None,None,None,,33,001,2023_Jan_24_1624,searchDisc5,2021.2.3,59.98641979518043,
images/exp1a_trial_16_colour1_distractors4_l.png,l,1,1,4,0,,,,,0,88,88,88,,,,,,,,,,,,,,,,,,,,,,,,,,,,,,,,,,,,,,,,,,,517.4076828600373,None,2,0.5687624449492432,517.4076828600373,None,,,,,,,,,,,,,,,,None,None,None,,None,None,518.0251652490115,None,1,1,0.7238044230034575,518.0251652490115,None,518.7413374897442,None,None,None,None,,33,001,2023_Jan_24_1624,searchDisc5,2021.2.3,59.98641979518043,
images/exp2c_trial_136_colour2_distractors19_r.png,r,3,2,19,0,,,,,0,89,89,89,,,,,,,,,,,,,,,,,,,,,,,,,,,,,,,,,,,,,,,,,,,518.757227501017,None,2,1.2216678220429458,518.757227501017,None,,,,,,,,,,,,,,,,None,None,None,,None,None,520.0267526400276,None,3,1,0.6509695459972136,520.0267526400276,None,520.6742269386887,None,None,None,None,,33,001,2023_Jan_24_1624,searchDisc5,2021.2.3,59.98641979518043,
images/exp2b_trial_132_colour1_distractors31_r.png,r,3,1,31,0,,,,,0,90,90,90,,,,,,,,,,,,,,,,,,,,,,,,,,,,,,,,,,,,,,,,,,,520.6911009550095,None,2,0.4891847160179168,520.6911009550095,None,,,,,,,,,,,,,,,,None,None,None,,None,None,521.2268222350394,None,3,1,0.7187648920225911,521.2268222350394,None,521.9415956577286,None,None,None,None,,33,001,2023_Jan_24_1624,searchDisc5,2021.2.3,59.98641979518043,
images/exp1a_trial_13_colour3_distractors19_r.png,r,3,3,19,0,,,,,0,91,91,91,,,,,,,,,,,,,,,,,,,,,,,,,,,,,,,,,,,,,,,,,,,521.9579251380055,None,2,0.4887831130181439,521.9579251380055,None,,,,,,,,,,,,,,,,None,None,None,,None,None,522.4944535780232,None,3,1,0.6145782129606232,522.4944535780232,None,523.1091087787063,None,None,None,None,,33,001,2023_Jan_24_1624,searchDisc5,2021.2.3,59.98641979518043,
images/exp1a_trial_148_colour2_distractors1_l.png,l,1,2,1,0,,,,,0,92,92,92,,,,,,,,,,,,,,,,,,,,,,,,,,,,,,,,,,,,,,,,,,,523.1246840460226,None,2,0.454857892007567,523.1246840460226,None,,,,,,,,,,,,,,,,None,None,None,,None,None,523.6244396080147,None,1,1,0.8047588439658284,523.6244396080147,None,524.4248062217375,None,None,None,None,,33,001,2023_Jan_24_1624,searchDisc5,2021.2.3,59.98641979518043,
images/exp2b_trial_23_colour2_distractors19_l.png,l,1,2,19,0,,,,,0,93,93,93,,,,,,,,,,,,,,,,,,,,,,,,,,,,,,,,,,,,,,,,,,,524.4440665090224,None,2,0.7386008579633199,524.4440665090224,None,,,,,,,,,,,,,,,,None,None,None,,None,None,525.2256675790413,None,1,1,0.5701113989925943,525.2256675790413,None,525.7914110136917,None,None,None,None,,33,001,2023_Jan_24_1624,searchDisc5,2021.2.3,59.98641979518043,
images/exp2c_trial_170_colour3_distractors1_r.png,r,3,3,1,0,,,,,0,94,94,94,,,,,,,,,,,,,,,,,,,,,,,,,,,,,,,,,,,,,,,,,,,525.8099608379998,None,2,0.5908356370055117,525.8099608379998,None,,,,,,,,,,,,,,,,None,None,None,,None,None,526.4415722530102,None,3,1,0.6704227710142732,526.4415722530102,None,527.1082959437044,None,None,None,None,,33,001,2023_Jan_24_1624,searchDisc5,2021.2.3,59.98641979518043,
images/exp2c_trial_299_colour3_distractors4_r.png,r,3,3,4,0,,,,,0,95,95,95,,,,,,,,,,,,,,,,,,,,,,,,,,,,,,,,,,,,,,,,,,,527.1251093670144,None,2,0.42131925496505573,527.1251093670144,None,,,,,,,,,,,,,,,,None,None,None,,None,None,527.5943310920266,None,3,1,0.9062279949430376,527.5943310920266,None,528.4915878647007,None,None,None,None,,33,001,2023_Jan_24_1624,searchDisc5,2021.2.3,59.98641979518043,
images/exp2a_trial_109_colour3_distractors19_r.png,r,3,3,19,0,,,,,0,96,96,96,,,,,,,,,,,,,,,,,,,,,,,,,,,,,,,,,,,,,,,,,,,528.5083355150418,None,2,0.5059035110170953,528.5083355150418,None,,,,,,,,,,,,,,,,None,None,None,,None,None,529.0589464720106,None,3,1,0.6360016979742795,529.0589464720106,None,529.6916140267276,None,None,None,None,,33,001,2023_Jan_24_1624,searchDisc5,2021.2.3,59.98641979518043,
images/exp1a_trial_261_colour2_distractors1_r.png,r,3,2,1,0,,,,,0,97,97,97,,,,,,,,,,,,,,,,,,,,,,,,,,,,,,,,,,,,,,,,,,,529.7104925290332,None,2,0.45561207202263176,529.7104925290332,None,,,,,,,,,,,,,,,,None,None,None,,None,None,530.2100601700367,None,3,1,0.5881985449814238,530.2100601700367,None,530.7916178976884,None,None,None,None,,33,001,2023_Jan_24_1624,searchDisc5,2021.2.3,59.98641979518043,
images/exp1a_trial_0_colour1_distractors1_r.png,r,3,1,1,0,,,,,0,98,98,98,,,,,,,,,,,,,,,,,,,,,,,,,,,,,,,,,,,,,,,,,,,530.808478994004,None,2,0.5041388969984837,530.808478994004,None,,,,,,,,,,,,,,,,None,None,None,,None,None,531.3588926730445,None,3,1,0.6574868759489618,531.3588926730445,None,532.0094579026918,None,None,None,None,,33,001,2023_Jan_24_1624,searchDisc5,2021.2.3,59.98641979518043,
images/exp2a_trial_303_colour1_distractors1_l.png,l,1,1,1,0,,,,,0,99,99,99,,,,,,,,,,,,,,,,,,,,,,,,,,,,,,,,,,,,,,,,,,,532.0247656200081,None,2,0.40555868699448183,532.0247656200081,None,,,,,,,,,,,,,,,,None,None,None,,None,None,532.4741835130262,None,1,1,0.5035533249611035,532.4741835130262,None,532.9746267216979,None,None,None,None,,33,001,2023_Jan_24_1624,searchDisc5,2021.2.3,59.98641979518043,
images/exp2a_trial_216_colour2_distractors31_l.png,l,1,2,31,0,,,,,0,100,100,100,,,,,,,,,,,,,,,,,,,,,,,,,,,,,,,,,,,,,,,,,,,532.9915762570454,None,2,0.40443773299921304,532.9915762570454,None,,,,,,,,,,,,,,,,None,None,None,,None,None,533.4448356989888,None,1,1,0.6149526460212655,533.4448356989888,None,534.0584174446994,None,None,None,None,,33,001,2023_Jan_24_1624,searchDisc5,2021.2.3,59.98641979518043,
images/exp2b_trial_262_colour2_distractors4_r.png,r,3,2,4,0,,,,,0,101,101,101,,,,,,,,,,,,,,,,,,,,,,,,,,,,,,,,,,,,,,,,,,,534.0742016750155,None,2,0.4038405939936638,534.0742016750155,None,,,,,,,,,,,,,,,,None,None,None,,None,None,534.5273426520289,None,3,1,0.518222421000246,534.5273426520289,None,535.0417132436996,None,None,None,None,,33,001,2023_Jan_24_1624,searchDisc5,2021.2.3,59.98641979518043,
images/exp1a_trial_228_colour1_distractors31_r.png,r,3,1,31,0,,,,,0,102,102,102,,,,,,,,,,,,,,,,,,,,,,,,,,,,,,,,,,,,,,,,,,,535.0588563550264,None,2,0.43808717001229525,535.0588563550264,None,,,,,,,,,,,,,,,,None,None,None,,None,None,535.5459764560219,None,3,1,0.5784877040423453,535.5459764560219,None,536.1247947246884,None,None,None,None,,33,001,2023_Jan_24_1624,searchDisc5,2021.2.3,59.98641979518043,
images/exp2b_trial_221_colour3_distractors31_l.png,l,1,3,31,0,,,,,0,103,103,103,,,,,,,,,,,,,,,,,,,,,,,,,,,,,,,,,,,,,,,,,,,536.1417038220097,None,2,0.4723404739634134,536.1417038220097,None,,,,,,,,,,,,,,,,None,None,None,,None,None,536.6587205019896,None,1,1,0.7846661299699917,536.6587205019896,None,537.4427911757375,None,None,None,None,,33,001,2023_Jan_24_1624,searchDisc5,2021.2.3,59.98641979518043,
images/exp2c_trial_256_colour1_distractors1_r.png,r,3,1,1,0,,,,,0,104,104,104,,,,,,,,,,,,,,,,,,,,,,,,,,,,,,,,,,,,,,,,,,,537.4584549200372,None,2,0.43586474703624845,537.4584549200372,None,,,,,,,,,,,,,,,,None,None,None,,None,None,537.9438761990168,None,3,1,0.6066171689890325,537.9438761990168,None,538.5415361037012,None,None,None,None,,33,001,2023_Jan_24_1624,searchDisc5,2021.2.3,59.98641979518043,
images/exp1a_trial_61_colour3_distractors31_l.png,l,1,3,31,0,,,,,0,105,105,105,,,,,,,,,,,,,,,,,,,,,,,,,,,,,,,,,,,,,,,,,,,538.5587293599965,None,2,0.4570222349721007,538.5587293599965,None,,,,,,,,,,,,,,,,None,None,None,,None,None,539.0582000850118,None,1,1,0.49754716496681795,539.0582000850118,None,539.5585185236996,None,None,None,None,,33,001,2023_Jan_24_1624,searchDisc5,2021.2.3,59.98641979518043,
images/exp2b_trial_239_colour1_distractors1_l.png,l,1,1,1,0,,,,,0,106,106,106,,,,,,,,,,,,,,,,,,,,,,,,,,,,,,,,,,,,,,,,,,,539.5758967830334,None,2,0.42153766698902473,539.5758967830334,None,,,,,,,,,,,,,,,,None,None,None,,None,None,540.0418638670235,None,1,1,0.9054085310199298,540.0418638670235,None,540.9418530497351,None,None,None,None,,33,001,2023_Jan_24_1624,searchDisc5,2021.2.3,59.98641979518043,
images/exp2b_trial_122_colour3_distractors4_l.png,l,1,3,4,0,,,,,0,107,107,107,,,,,,,,,,,,,,,,,,,,,,,,,,,,,,,,,,,,,,,,,,,540.95832294703,None,2,0.3888979359762743,540.95832294703,None,,,,,,,,,,,,,,,,None,None,None,,None,None,541.3943919740268,None,1,1,0.7412001339835115,541.3943919740268,None,542.128175794729,None,None,None,None,,33,001,2023_Jan_24_1624,searchDisc5,2021.2.3,59.98641979518043,
images/exp2c_trial_27_colour3_distractors9_l.png,l,1,3,9,0,,,,,0,108,108,108,,,,,,,,,,,,,,,,,,,,,,,,,,,,,,,,,,,,,,,,,,,542.144430964021,None,2,0.3701341670239344,542.144430964021,None,,,,,,,,,,,,,,,,None,None,None,,None,None,542.5612294150051,None,1,1,0.6014788649627008,542.5612294150051,None,543.1585693086963,None,None,None,None,,33,001,2023_Jan_24_1624,searchDisc5,2021.2.3,59.98641979518043,
images/exp1a_trial_221_colour3_distractors31_l.png,l,1,3,31,0,,,,,0,109,109,109,,,,,,,,,,,,,,,,,,,,,,,,,,,,,,,,,,,,,,,,,,,543.1774586210377,None,2,0.4073033560416661,543.1774586210377,None,,,,,,,,,,,,,,,,None,None,None,,None,None,543.6252749530249,None,1,1,0.7139549760031514,543.6252749530249,None,544.3419031327358,None,None,None,None,,33,001,2023_Jan_24_1624,searchDisc5,2021.2.3,59.98641979518043,
images/exp1a_trial_135_colour2_distractors9_r.png,r,3,2,9,0,,,,,0,110,110,110,,,,,,,,,,,,,,,,,,,,,,,,,,,,,,,,,,,,,,,,,,,544.3584272930166,None,2,0.3880985249998048,544.3584272930166,None,,,,,,,,,,,,,,,,None,None,None,,None,None,544.7950171970297,None,3,1,0.8697521560243331,544.7950171970297,None,545.6586083577131,None,None,None,None,,33,001,2023_Jan_24_1624,searchDisc5,2021.2.3,59.98641979518043,
images/exp2b_trial_309_colour2_distractors4_l.png,l,1,2,4,0,,,,,0,111,111,111,,,,,,,,,,,,,,,,,,,,,,,,,,,,,,,,,,,,,,,,,,,545.6770975270192,None,2,0.454639324976597,545.6770975270192,None,,,,,,,,,,,,,,,,None,None,None,,None,None,546.1782743459917,None,1,1,0.5056372549734078,546.1782743459917,None,546.674782557704,None,None,None,None,,33,001,2023_Jan_24_1624,searchDisc5,2021.2.3,59.98641979518043,
images/exp1a_trial_211_colour1_distractors31_l.png,l,1,1,31,0,,,,,0,112,112,112,,,,,,,,,,,,,,,,,,,,,,,,,,,,,,,,,,,,,,,,,,,546.6937115910114,None,2,0.5580167940352112,546.6937115910114,None,,,,,,,,,,,,,,,,None,None,None,,None,None,547.295183151029,None,1,1,0.5969169579911977,547.295183151029,None,547.8921822556877,None,None,None,None,,33,001,2023_Jan_24_1624,searchDisc5,2021.2.3,59.98641979518043,
images/exp2c_trial_123_colour3_distractors9_l.png,l,1,3,9,0,,,,,0,113,113,113,,,,,,,,,,,,,,,,,,,,,,,,,,,,,,,,,,,,,,,,,,,547.9084409979987,None,2,0.4739720029756427,547.9084409979987,None,,,,,,,,,,,,,,,,None,None,None,,None,None,548.4275224260055,None,1,1,0.45176239899592474,548.4275224260055,None,548.8753706237185,None,None,None,None,,33,001,2023_Jan_24_1624,searchDisc5,2021.2.3,59.98641979518043,
images/exp1a_trial_264_colour2_distractors19_r.png,r,3,2,19,0,,,,,0,114,114,114,,,,,,,,,,,,,,,,,,,,,,,,,,,,,,,,,,,,,,,,,,,548.8911369270063,None,2,0.4879915720084682,548.8911369270063,None,,,,,,,,,,,,,,,,None,None,None,,None,None,549.4263132310007,None,3,1,0.6530669860076159,549.4263132310007,None,550.0765790606965,None,None,None,None,,33,001,2023_Jan_24_1624,searchDisc5,2021.2.3,59.98641979518043,
images/exp2a_trial_199_colour2_distractors9_r.png,r,3,2,9,0,,,,,0,115,115,115,,,,,,,,,,,,,,,,,,,,,,,,,,,,,,,,,,,,,,,,,,,550.0918079870171,None,2,0.7577963069779798,550.0918079870171,None,,,,,,,,,,,,,,,,None,None,None,,None,None,550.8948992190417,None,3,1,0.6632083150325343,550.8948992190417,None,551.5581657427247,None,None,None,None,,33,001,2023_Jan_24_1624,searchDisc5,2021.2.3,59.98641979518043,
images/exp1a_trial_313_colour3_distractors1_l.png,l,1,3,1,0,,,,,0,116,116,116,,,,,,,,,,,,,,,,,,,,,,,,,,,,,,,,,,,,,,,,,,,551.5760184240062,None,2,0.7897650319500826,551.5760184240062,None,,,,,,,,,,,,,,,,None,None,None,,None,None,552.410980198998,None,1,1,0.5713337329798378,552.410980198998,None,552.9754887607414,None,None,None,None,,33,001,2023_Jan_24_1624,searchDisc5,2021.2.3,59.98641979518043,
images/exp2b_trial_150_colour2_distractors9_l.png,l,1,2,9,0,,,,,0,117,117,117,,,,,,,,,,,,,,,,,,,,,,,,,,,,,,,,,,,,,,,,,,,552.9916867040447,None,2,0.5554126499919221,552.9916867040447,None,,,,,,,,,,,,,,,,None,None,None,,None,None,553.5952568260254,None,1,1,0.5374372280202806,553.5952568260254,None,554.1255987487384,None,None,None,None,,33,001,2023_Jan_24_1624,searchDisc5,2021.2.3,59.98641979518043,
images/exp1a_trial_172_colour3_distractors9_r.png,r,3,3,9,0,,,,,0,118,118,118,,,,,,,,,,,,,,,,,,,,,,,,,,,,,,,,,,,,,,,,,,,554.1419627190335,None,2,0.45743556797970086,554.1419627190335,None,,,,,,,,,,,,,,,,None,None,None,,None,None,554.6447415240109,None,3,1,0.5681273509981111,554.6447415240109,None,555.2088931607432,None,None,None,None,,33,001,2023_Jan_24_1624,searchDisc5,2021.2.3,59.98641979518043,
images/exp2b_trial_63_colour0_distractors0_l.png,l,1,0,0,0,,,,,0,119,119,119,,,,,,,,,,,,,,,,,,,,,,,,,,,,,,,,,,,,,,,,,,,555.2262051050202,None,2,0.4566330389934592,555.2262051050202,None,,,,,,,,,,,,,,,,None,None,None,,None,None,555.7265491790022,None,1,1,0.48719527799403295,555.7265491790022,None,556.2090806796914,None,None,None,None,,33,001,2023_Jan_24_1624,searchDisc5,2021.2.3,59.98641979518043,
images/exp2c_trial_272_colour1_distractors4_l.png,l,1,1,4,0,,,,,0,120,120,120,,,,,,,,,,,,,,,,,,,,,,,,,,,,,,,,,,,,,,,,,,,556.226223951031,None,2,0.38789006700972095,556.226223951031,None,,,,,,,,,,,,,,,,None,None,None,,None,None,556.6609689990291,None,1,1,0.5730510160210542,556.6609689990291,None,557.226323121693,None,None,None,None,,33,001,2023_Jan_24_1624,searchDisc5,2021.2.3,59.98641979518043,
images/exp2a_trial_127_colour0_distractors0_l.png,l,1,0,0,0,,,,,0,121,121,121,,,,,,,,,,,,,,,,,,,,,,,,,,,,,,,,,,,,,,,,,,,557.2431489170413,None,2,0.35672770300880075,557.2431489170413,None,,,,,,,,,,,,,,,,None,None,None,,None,None,557.6422569580027,None,1,1,0.5201776170288213,557.6422569580027,None,558.1589941726997,None,None,None,None,,33,001,2023_Jan_24_1624,searchDisc5,2021.2.3,59.98641979518043,
images/exp2c_trial_178_colour1_distractors19_l.png,l,1,1,19,0,,,,,0,122,122,122,,,,,,,,,,,,,,,,,,,,,,,,,,,,,,,,,,,,,,,,,,,558.1760228700005,None,2,0.35452928801532835,558.1760228700005,None,,,,,,,,,,,,,,,,None,None,None,,None,None,558.5779548970168,None,1,1,0.5203098740312271,558.5779548970168,None,559.0923218267271,None,None,None,None,,33,001,2023_Jan_24_1624,searchDisc5,2021.2.3,59.98641979518043,
images/exp2b_trial_207_colour1_distractors1_l.png,l,1,1,1,0,,,,,0,123,123,123,,,,,,,,,,,,,,,,,,,,,,,,,,,,,,,,,,,,,,,,,,,559.1110100310179,None,2,0.3209736470016651,559.1110100310179,None,,,,,,,,,,,,,,,,None,None,None,,None,None,559.4777510080021,None,1,1,0.4565763209830038,559.4777510080021,None,559.9259749897174,None,None,None,None,,33,001,2023_Jan_24_1624,searchDisc5,2021.2.3,59.98641979518043,
images/exp1a_trial_118_colour2_distractors9_l.png,l,1,2,9,0,,,,,0,124,124,124,,,,,,,,,,,,,,,,,,,,,,,,,,,,,,,,,,,,,,,,,,,559.945308941009,None,2,0.3875644119689241,559.945308941009,None,,,,,,,,,,,,,,,,None,None,None,,None,None,560.3759097140282,None,1,1,0.5230208360007964,560.3759097140282,None,560.8931943477364,None,None,None,None,,33,001,2023_Jan_24_1624,searchDisc5,2021.2.3,59.98641979518043,
images/exp2c_trial_230_colour2_distractors4_r.png,r,3,2,4,0,,,,,0,125,125,125,,,,,,,,,,,,,,,,,,,,,,,,,,,,,,,,,,,,,,,,,,,560.908739164006,None,2,0.3213445200235583,560.908739164006,None,,,,,,,,,,,,,,,,None,None,None,,None,None,561.2777138579986,None,3,1,0.7870741980150342,561.2777138579986,None,562.0592276937095,None,None,None,None,,33,001,2023_Jan_24_1624,searchDisc5,2021.2.3,59.98641979518043,
images/exp2a_trial_162_colour1_distractors9_r.png,r,3,1,9,0,,,,,0,126,126,126,,,,,,,,,,,,,,,,,,,,,,,,,,,,,,,,,,,,,,,,,,,562.0782510979916,None,2,0.45403751998674124,562.0782510979916,None,,,,,,,,,,,,,,,,None,None,None,,None,None,562.5757763140136,None,3,1,0.6049708029604517,562.5757763140136,None,563.1751802097424,None,None,None,None,,33,001,2023_Jan_24_1624,searchDisc5,2021.2.3,59.98641979518043,
images/exp2a_trial_114_colour1_distractors19_l.png,l,1,1,19,0,,,,,0,127,127,127,,,,,,,,,,,,,,,,,,,,,,,,,,,,,,,,,,,,,,,,,,,563.192680120992,None,2,0.4404350889963098,563.192680120992,None,,,,,,,,,,,,,,,,None,None,None,,None,None,563.6778342610341,None,1,1,0.5511291779694147,563.6778342610341,None,564.2257997317356,None,None,None,None,,33,001,2023_Jan_24_1624,searchDisc5,2021.2.3,59.98641979518043,
images/exp2b_trial_45_colour3_distractors19_r.png,r,3,3,19,0,,,,,0,128,128,128,,,,,,,,,,,,,,,,,,,,,,,,,,,,,,,,,,,,,,,,,,,564.2429841770208,None,2,0.505604873993434,564.2429841770208,None,,,,,,,,,,,,,,,,None,None,None,,None,None,564.7946285500075,None,3,1,0.5370432600029744,564.7946285500075,None,565.3269993097056,None,None,None,None,,33,001,2023_Jan_24_1624,searchDisc5,2021.2.3,59.98641979518043,
images/exp1a_trial_258_colour1_distractors9_r.png,r,3,1,9,0,,,,,0,129,129,129,,,,,,,,,,,,,,,,,,,,,,,,,,,,,,,,,,,,,,,,,,,565.3431362350238,None,2,0.43979255203157663,565.3431362350238,None,,,,,,,,,,,,,,,,None,None,None,,None,None,565.8258777290466,None,1,0,0.5179269569925964,565.8258777290466,None,566.3435311866924,None,None,None,None,,33,001,2023_Jan_24_1624,searchDisc5,2021.2.3,59.98641979518043,
images/exp2a_trial_97_colour1_distractors4_r.png,r,3,1,4,0,,,,,0,130,130,130,,,,,,,,,,,,,,,,,,,,,,,,,,,,,,,,,,,,,,,,,,,566.3587153039989,None,2,2.287199250946287,566.3587153039989,None,,,,,,,,,,,,,,,,None,None,None,,None,None,568.6949984480161,None,3,1,0.7891258320305496,568.6949984480161,None,569.4759555627243,None,None,None,None,,33,001,2023_Jan_24_1624,searchDisc5,2021.2.3,59.98641979518043,
images/exp2b_trial_284_colour3_distractors19_l.png,l,1,3,19,0,,,,,0,131,131,131,,,,,,,,,,,,,,,,,,,,,,,,,,,,,,,,,,,,,,,,,,,569.4932808520389,None,2,0.43873071897542104,569.4932808520389,None,,,,,,,,,,,,,,,,None,None,None,,None,None,569.9791424199939,None,1,1,0.6725306010339409,569.9791424199939,None,570.6435260467115,None,None,None,None,,33,001,2023_Jan_24_1624,searchDisc5,2021.2.3,59.98641979518043,
images/exp2b_trial_217_colour3_distractors1_l.png,l,1,3,1,0,,,,,0,132,132,132,,,,,,,,,,,,,,,,,,,,,,,,,,,,,,,,,,,,,,,,,,,570.659675425035,None,2,0.38476707198424265,570.659675425035,None,,,,,,,,,,,,,,,,None,None,None,,None,None,571.0948216629913,None,1,1,0.6060368290054612,571.0948216629913,None,571.6928427946987,None,None,None,None,,33,001,2023_Jan_24_1624,searchDisc5,2021.2.3,59.98641979518043,
images/exp2a_trial_260_colour1_distractors31_r.png,r,3,1,31,0,,,,,0,133,133,133,,,,,,,,,,,,,,,,,,,,,,,,,,,,,,,,,,,,,,,,,,,571.7098915030365,None,2,0.6070428910315968,571.7098915030365,None,,,,,,,,,,,,,,,,None,None,None,,None,None,572.3615647570114,None,3,1,0.6501550700049847,572.3615647570114,None,573.0094687266974,None,None,None,None,,33,001,2023_Jan_24_1624,searchDisc5,2021.2.3,59.98641979518043,
images/exp2b_trial_35_colour1_distractors19_r.png,r,3,1,19,0,,,,,0,134,134,134,,,,,,,,,,,,,,,,,,,,,,,,,,,,,,,,,,,,,,,,,,,573.0260447370238,None,2,0.43781570805003867,573.0260447370238,None,,,,,,,,,,,,,,,,None,None,None,,None,None,573.5094043629942,None,3,1,0.5870720219681971,573.5094043629942,None,574.0927530927001,None,None,None,None,,33,001,2023_Jan_24_1624,searchDisc5,2021.2.3,59.98641979518043,
images/exp2b_trial_38_colour2_distractors4_r.png,r,3,2,4,0,,,,,0,135,135,135,,,,,,,,,,,,,,,,,,,,,,,,,,,,,,,,,,,,,,,,,,,574.1097117449972,None,2,0.47126170695992187,574.1097117449972,None,,,,,,,,,,,,,,,,None,None,None,,None,None,574.626105280011,None,3,1,0.5909829930169508,574.626105280011,None,575.21042191569,None,None,None,None,,33,001,2023_Jan_24_1624,searchDisc5,2021.2.3,59.98641979518043,
images/exp1a_trial_301_colour3_distractors19_r.png,r,3,3,19,0,,,,,0,136,136,136,,,,,,,,,,,,,,,,,,,,,,,,,,,,,,,,,,,,,,,,,,,575.225938638032,None,2,0.5689374399953522,575.225938638032,None,,,,,,,,,,,,,,,,None,None,None,,None,None,575.8450032999972,None,3,1,0.5839689280255698,575.8450032999972,None,576.4262221716926,None,None,None,None,,33,001,2023_Jan_24_1624,searchDisc5,2021.2.3,59.98641979518043,
images/exp2b_trial_44_colour3_distractors9_r.png,r,3,3,9,0,,,,,0,137,137,137,,,,,,,,,,,,,,,,,,,,,,,,,,,,,,,,,,,,,,,,,,,576.4432578160195,None,2,0.5040149799897335,576.4432578160195,None,,,,,,,,,,,,,,,,None,None,None,,None,None,576.9958433750435,None,3,1,0.5884801109787077,576.9958433750435,None,577.5763260087115,None,None,None,None,,33,001,2023_Jan_24_1624,searchDisc5,2021.2.3,59.98641979518043,
images/exp2b_trial_92_colour3_distractors19_l.png,l,1,3,19,0,,,,,0,138,138,138,,,,,,,,,,,,,,,,,,,,,,,,,,,,,,,,,,,,,,,,,,,577.5932475980371,None,2,0.5207295580185018,577.5932475980371,None,,,,,,,,,,,,,,,,None,None,None,,None,None,578.1624307960155,None,1,1,0.5887355409795418,578.1624307960155,None,578.7438985767076,None,None,None,None,,33,001,2023_Jan_24_1624,searchDisc5,2021.2.3,59.98641979518043,
images/exp2c_trial_66_colour1_distractors9_r.png,r,3,1,9,0,,,,,0,139,139,139,,,,,,,,,,,,,,,,,,,,,,,,,,,,,,,,,,,,,,,,,,,578.7584433759912,None,2,0.5221655489876866,578.7584433759912,None,,,,,,,,,,,,,,,,None,None,None,,None,None,579.3262967620394,None,3,1,1.7208892420167103,579.3262967620394,None,581.0426785447053,None,None,None,None,,33,001,2023_Jan_24_1624,searchDisc5,2021.2.3,59.98641979518043,
images/exp2c_trial_286_colour0_distractors0_r.png,r,3,0,0,0,,,,,0,140,140,140,,,,,,,,,,,,,,,,,,,,,,,,,,,,,,,,,,,,,,,,,,,581.0598058330361,None,2,0.7203112310380675,581.0598058330361,None,,,,,,,,,,,,,,,,None,None,None,,None,None,581.8263341840357,None,3,1,0.5885352999903262,581.8263341840357,None,582.4098648347426,None,None,None,None,,33,001,2023_Jan_24_1624,searchDisc5,2021.2.3,59.98641979518043,
images/exp1a_trial_237_colour3_distractors19_r.png,r,3,3,19,0,,,,,0,141,141,141,,,,,,,,,,,,,,,,,,,,,,,,,,,,,,,,,,,,,,,,,,,582.426954702998,None,2,0.50720143399667,582.426954702998,None,,,,,,,,,,,,,,,,None,None,None,,None,None,582.978474313044,None,3,1,0.9154643820365891,582.978474313044,None,583.8930354646873,None,None,None,None,,33,001,2023_Jan_24_1624,searchDisc5,2021.2.3,59.98641979518043,
images/exp1a_trial_224_colour1_distractors1_r.png,r,3,1,1,0,,,,,0,142,142,142,,,,,,,,,,,,,,,,,,,,,,,,,,,,,,,,,,,,,,,,,,,583.9102011920186,None,2,0.4552873499924317,583.9102011920186,None,,,,,,,,,,,,,,,,None,None,None,,None,None,584.409749100043,None,3,1,0.5569433780037798,584.409749100043,None,584.9597479227232,None,None,None,None,,33,001,2023_Jan_24_1624,searchDisc5,2021.2.3,59.98641979518043,
images/exp1a_trial_120_colour2_distractors31_l.png,l,1,2,31,0,,,,,0,143,143,143,,,,,,,,,,,,,,,,,,,,,,,,,,,,,,,,,,,,,,,,,,,584.9768373949919,None,2,0.45468362799147144,584.9768373949919,None,,,,,,,,,,,,,,,,None,None,None,,None,None,585.4790986530134,None,1,1,1.0157994329929352,585.4790986530134,None,586.4932525347103,None,None,None,None,,33,001,2023_Jan_24_1624,searchDisc5,2021.2.3,59.98641979518043,
images/exp2c_trial_154_colour3_distractors4_l.png,l,1,3,4,0,,,,,0,144,144,144,,,,,,,,,,,,,,,,,,,,,,,,,,,,,,,,,,,,,,,,,,,586.5095034500118,None,2,0.5049880780279636,586.5095034500118,None,,,,,,,,,,,,,,,,None,None,None,,None,None,587.0628069540253,None,1,1,0.8052697699749842,587.0628069540253,None,587.859826836735,None,None,None,None,,33,001,2023_Jan_24_1624,searchDisc5,2021.2.3,59.98641979518043,
images/exp1a_trial_131_colour1_distractors19_r.png,r,3,1,19,0,,,,,0,145,145,145,,,,,,,,,,,,,,,,,,,,,,,,,,,,,,,,,,,,,,,,,,,587.8767994120135,None,2,0.4878150340518914,587.8767994120135,None,,,,,,,,,,,,,,,,None,None,None,,None,None,588.4121185060358,None,3,1,1.1351772719644941,588.4121185060358,None,589.5431789137074,None,None,None,None,,33,001,2023_Jan_24_1624,searchDisc5,2021.2.3,59.98641979518043,
images/exp1a_trial_240_colour1_distractors4_l.png,l,1,1,4,0,,,,,0,146,146,146,,,,,,,,,,,,,,,,,,,,,,,,,,,,,,,,,,,,,,,,,,,589.5626682389993,None,2,0.6230771869886667,589.5626682389993,None,,,,,,,,,,,,,,,,None,None,None,,None,None,590.2270165680093,None,1,1,0.8053948029992171,590.2270165680093,None,591.0275997596909,None,None,None,None,,33,001,2023_Jan_24_1624,searchDisc5,2021.2.3,59.98641979518043,
images/exp2c_trial_45_colour3_distractors19_r.png,r,3,3,19,0,,,,,0,147,147,147,,,,,,,,,,,,,,,,,,,,,,,,,,,,,,,,,,,,,,,,,,,591.045303285995,None,2,0.48775401001330465,591.045303285995,None,,,,,,,,,,,,,,,,None,None,None,,None,None,591.578555404034,None,3,1,1.050716107012704,591.578555404034,None,592.6266230196925,None,None,None,None,,33,001,2023_Jan_24_1624,searchDisc5,2021.2.3,59.98641979518043,
images/exp1a_trial_127_colour0_distractors0_l.png,l,1,0,0,0,,,,,0,148,148,148,,,,,,,,,,,,,,,,,,,,,,,,,,,,,,,,,,,,,,,,,,,592.6430900589912,None,2,0.5879418160184287,592.6430900589912,None,,,,,,,,,,,,,,,,None,None,None,,None,None,593.2766105360352,None,1,1,0.7080333610065281,593.2766105360352,None,593.9766893087071,None,None,None,None,,33,001,2023_Jan_24_1624,searchDisc5,2021.2.3,59.98641979518043,
images/exp2b_trial_183_colour2_distractors19_l.png,l,1,2,19,0,,,,,0,149,149,149,,,,,,,,,,,,,,,,,,,,,,,,,,,,,,,,,,,,,,,,,,,593.9933730500052,None,2,0.5374575019814074,593.9933730500052,None,,,,,,,,,,,,,,,,None,None,None,,None,None,594.5790034109959,None,1,1,0.5036956120165996,594.5790034109959,None,595.0767495547188,None,None,None,None,,33,001,2023_Jan_24_1624,searchDisc5,2021.2.3,59.98641979518043,
images/exp1a_trial_217_colour3_distractors1_l.png,l,1,3,1,0,,,,,0,150,150,150,,,,,,,,,,,,,,,,,,,,,,,,,,,,,,,,,,,,,,,,,,,595.0927556310198,None,2,0.43791516800411046,595.0927556310198,None,,,,,,,,,,,,,,,,None,None,None,,None,None,595.5769947110093,None,1,1,0.5212388799991459,595.5769947110093,None,596.093339183717,None,None,None,None,,33,001,2023_Jan_24_1624,searchDisc5,2021.2.3,59.98641979518043,
images/exp1a_trial_11_colour3_distractors4_r.png,r,3,3,4,0,,,,,0,151,151,151,,,,,,,,,,,,,,,,,,,,,,,,,,,,,,,,,,,,,,,,,,,596.1091133340378,None,2,0.4386230180389248,596.1091133340378,None,,,,,,,,,,,,,,,,None,None,None,,None,None,596.5926442730124,None,1,0,0.47000269003910944,596.5926442730124,None,597.0594128157245,None,None,None,None,,33,001,2023_Jan_24_1624,searchDisc5,2021.2.3,59.98641979518043,
images/exp1a_trial_87_colour2_distractors19_l.png,l,1,2,19,0,,,,,0,152,152,152,,,,,,,,,,,,,,,,,,,,,,,,,,,,,,,,,,,,,,,,,,,597.0773641089909,None,2,2.1720472080050968,597.0773641089909,None,,,,,,,,,,,,,,,,None,None,None,,None,None,599.2955127180321,None,1,1,0.8673582400078885,599.2955127180321,None,600.1601333547151,None,None,None,None,,33,001,2023_Jan_24_1624,searchDisc5,2021.2.3,59.98641979518043,
images/exp2b_trial_57_colour3_distractors1_l.png,l,1,3,1,0,,,,,0,153,153,153,,,,,,,,,,,,,,,,,,,,,,,,,,,,,,,,,,,,,,,,,,,600.1787167449947,None,2,0.5045346780098043,600.1787167449947,None,,,,,,,,,,,,,,,,None,None,None,,None,None,600.7301063089981,None,1,1,0.8739572149934247,600.7301063089981,None,601.5947746747406,None,None,None,None,,33,001,2023_Jan_24_1624,searchDisc5,2021.2.3,59.98641979518043,
images/exp1a_trial_8_colour2_distractors19_r.png,r,3,2,19,0,,,,,0,154,154,154,,,,,,,,,,,,,,,,,,,,,,,,,,,,,,,,,,,,,,,,,,,601.6104500580113,None,2,0.4202381939976476,601.6104500580113,None,,,,,,,,,,,,,,,,None,None,None,,None,None,602.0794812079985,None,3,1,0.9008519239723682,602.0794812079985,None,602.977172969724,None,None,None,None,,33,001,2023_Jan_24_1624,searchDisc5,2021.2.3,59.98641979518043,
images/exp2b_trial_167_colour2_distractors9_r.png,r,3,2,9,0,,,,,0,155,155,155,,,,,,,,,,,,,,,,,,,,,,,,,,,,,,,,,,,,,,,,,,,602.9945607460104,None,2,0.8237455139751546,602.9945607460104,None,,,,,,,,,,,,,,,,None,None,None,,None,None,603.8621676480398,None,3,1,0.7178651359863579,603.8621676480398,None,604.5768860887038,None,None,None,None,,33,001,2023_Jan_24_1624,searchDisc5,2021.2.3,59.98641979518043,
images/exp2c_trial_139_colour3_distractors4_r.png,r,3,3,4,0,,,,,0,156,156,156,,,,,,,,,,,,,,,,,,,,,,,,,,,,,,,,,,,,,,,,,,,604.5933694380219,None,2,0.6233902989770286,604.5933694380219,None,,,,,,,,,,,,,,,,None,None,None,,None,None,605.2619252700242,None,3,1,0.7881691529764794,605.2619252700242,None,606.0437816767371,None,None,None,None,,33,001,2023_Jan_24_1624,searchDisc5,2021.2.3,59.98641979518043,
images/exp2a_trial_96_colour1_distractors1_r.png,r,3,1,1,0,,,,,0,157,157,157,,,,,,,,,,,,,,,,,,,,,,,,,,,,,,,,,,,,,,,,,,,606.0593920850079,None,2,0.6193501399829984,606.0593920850079,None,,,,,,,,,,,,,,,,None,None,None,,None,None,606.728141997999,None,3,1,0.9727983950288035,606.728141997999,None,607.6936938636936,None,None,None,None,,33,001,2023_Jan_24_1624,searchDisc5,2021.2.3,59.98641979518043,
images/exp2a_trial_207_colour1_distractors1_l.png,l,1,1,1,0,,,,,0,158,158,158,,,,,,,,,,,,,,,,,,,,,,,,,,,,,,,,,,,,,,,,,,,607.7102964650257,None,2,0.7042911669705063,607.7102964650257,None,,,,,,,,,,,,,,,,None,None,None,,None,None,608.4604720310308,None,1,1,0.7064020299585536,608.4604720310308,None,609.1604210807127,None,None,None,None,,33,001,2023_Jan_24_1624,searchDisc5,2021.2.3,59.98641979518043,
images/exp2b_trial_267_colour3_distractors4_r.png,r,3,3,4,0,,,,,0,159,159,159,,,,,,,,,,,,,,,,,,,,,,,,,,,,,,,,,,,,,,,,,,,609.1793920029886,None,2,0.45546039496548474,609.1793920029886,None,,,,,,,,,,,,,,,,None,None,None,,None,None,609.6775732390233,None,3,1,0.8389464019564912,609.6775732390233,None,610.5114016327425,None,None,None,None,,33,001,2023_Jan_24_1624,searchDisc5,2021.2.3,59.98641979518043,
images/exp1a_trial_254_colour0_distractors0_r.png,r,3,0,0,0,,,,,0,160,160,160,,,,,,,,,,,,,,,,,,,,,,,,,,,,,,,,,,,,,,,,,,,610.5264283569995,None,2,0.5566566950292327,610.5264283569995,None,,,,,,,,,,,,,,,,None,None,None,,None,None,611.1304424339905,None,3,1,0.6697954540140927,611.1304424339905,None,611.7938715277123,None,None,None,None,,33,001,2023_Jan_24_1624,searchDisc5,2021.2.3,59.98641979518043,
images/exp1a_trial_30_colour0_distractors0_r.png,r,3,0,0,0,,,,,0,161,161,161,,,,,,,,,,,,,,,,,,,,,,,,,,,,,,,,,,,,,,,,,,,611.8110707740416,None,2,0.5903887220192701,611.8110707740416,None,,,,,,,,,,,,,,,,None,None,None,,None,None,612.4446894880384,None,3,1,1.3364479119773023,612.4446894880384,None,613.7771953936899,None,None,None,None,,33,001,2023_Jan_24_1624,searchDisc5,2021.2.3,59.98641979518043,
images/exp1a_trial_188_colour3_distractors19_l.png,l,1,3,19,0,,,,,0,162,162,162,,,,,,,,,,,,,,,,,,,,,,,,,,,,,,,,,,,,,,,,,,,613.7964304150082,None,2,0.7045130740152672,613.7964304150082,None,,,,,,,,,,,,,,,,None,None,None,,None,None,614.5469174000318,None,1,1,0.8214699840173125,614.5469174000318,None,615.3618435517419,None,None,None,None,,33,001,2023_Jan_24_1624,searchDisc5,2021.2.3,59.98641979518043,
images/exp2a_trial_143_colour1_distractors1_l.png,l,1,1,1,0,,,,,0,163,163,163,,,,,,,,,,,,,,,,,,,,,,,,,,,,,,,,,,,,,,,,,,,615.3774915100075,None,2,0.5877138570067473,615.3774915100075,None,,,,,,,,,,,,,,,,None,None,None,,None,None,616.0113212140277,None,1,1,0.636935360962525,616.0113212140277,None,616.6440600987407,None,None,None,None,,33,001,2023_Jan_24_1624,searchDisc5,2021.2.3,59.98641979518043,
images/exp1a_trial_125_colour3_distractors31_l.png,l,1,3,31,0,,,,,0,164,164,164,,,,,,,,,,,,,,,,,,,,,,,,,,,,,,,,,,,,,,,,,,,616.6614869330078,None,2,0.5898065340006724,616.6614869330078,None,,,,,,,,,,,,,,,,None,None,None,,None,None,617.2961604690063,None,1,1,0.6496545510017313,617.2961604690063,None,617.9438094297075,None,None,None,None,,33,001,2023_Jan_24_1624,searchDisc5,2021.2.3,59.98641979518043,
images/exp2c_trial_17_colour1_distractors9_l.png,l,1,1,9,0,,,,,0,165,165,165,,,,,,,,,,,,,,,,,,,,,,,,,,,,,,,,,,,,,,,,,,,617.9603968299925,None,2,0.5195240569883026,617.9603968299925,None,,,,,,,,,,,,,,,,None,None,None,,None,None,618.5292734830291,None,1,1,0.7221354249631986,618.5292734830291,None,619.2441120417207,None,None,None,None,,33,001,2023_Jan_24_1624,searchDisc5,2021.2.3,59.98641979518043,
images/exp2a_trial_51_colour1_distractors31_l.png,l,1,1,31,0,,,,,0,166,166,166,,,,,,,,,,,,,,,,,,,,,,,,,,,,,,,,,,,,,,,,,,,619.2611728699994,None,2,0.5379016220103949,619.2611728699994,None,,,,,,,,,,,,,,,,None,None,None,,None,None,619.846193609992,None,1,1,0.7891202190076001,619.846193609992,None,620.6274283277453,None,None,None,None,,33,001,2023_Jan_24_1624,searchDisc5,2021.2.3,59.98641979518043,
images/exp2b_trial_128_colour1_distractors1_r.png,r,3,1,1,0,,,,,0,167,167,167,,,,,,,,,,,,,,,,,,,,,,,,,,,,,,,,,,,,,,,,,,,620.6464674610179,None,2,1.302631837024819,620.6464674610179,None,,,,,,,,,,,,,,,,None,None,None,,None,None,621.9944850620232,None,3,1,0.655144268006552,621.9944850620232,None,622.6434574357118,None,None,None,None,,33,001,2023_Jan_24_1624,searchDisc5,2021.2.3,59.98641979518043,
images/exp2a_trial_152_colour2_distractors31_l.png,l,1,2,31,0,,,,,0,168,168,168,,,,,,,,,,,,,,,,,,,,,,,,,,,,,,,,,,,,,,,,,,,622.6615437529981,None,2,0.4912804790074006,622.6615437529981,None,,,,,,,,,,,,,,,,None,None,None,,None,None,623.2015619550366,None,1,1,0.9424237150233239,623.2015619550366,None,624.1438731877133,None,None,None,None,,33,001,2023_Jan_24_1624,searchDisc5,2021.2.3,59.98641979518043,
images/exp2b_trial_275_colour1_distractors31_l.png,l,1,1,31,0,,,,,0,169,169,169,,,,,,,,,,,,,,,,,,,,,,,,,,,,,,,,,,,,,,,,,,,624.1629498730181,None,2,0.48962287104222924,624.1629498730181,None,,,,,,,,,,,,,,,,None,None,None,,None,None,624.6966400649981,None,1,1,0.6686306529445574,624.6966400649981,None,625.3610915247118,None,None,None,None,,33,001,2023_Jan_24_1624,searchDisc5,2021.2.3,59.98641979518043,
images/exp2b_trial_240_colour1_distractors4_l.png,l,1,1,4,0,,,,,0,170,170,170,,,,,,,,,,,,,,,,,,,,,,,,,,,,,,,,,,,,,,,,,,,625.3765911800438,None,2,0.44059537298744544,625.3765911800438,None,,,,,,,,,,,,,,,,None,None,None,,None,None,625.8629997160169,None,1,1,0.6694305089768022,625.8629997160169,None,626.5276026286883,None,None,None,None,,33,001,2023_Jan_24_1624,searchDisc5,2021.2.3,59.98641979518043,
images/exp2c_trial_73_colour2_distractors31_r.png,r,3,2,31,0,,,,,0,171,171,171,,,,,,,,,,,,,,,,,,,,,,,,,,,,,,,,,,,,,,,,,,,626.5440908510354,None,2,0.4877791829640046,626.5440908510354,None,,,,,,,,,,,,,,,,None,None,None,,None,None,627.0786322730128,None,3,1,0.9697665509884246,627.0786322730128,None,628.0443505166913,None,None,None,None,,33,001,2023_Jan_24_1624,searchDisc5,2021.2.3,59.98641979518043,
images/exp1a_trial_138_colour3_distractors1_r.png,r,3,3,1,0,,,,,0,172,172,172,,,,,,,,,,,,,,,,,,,,,,,,,,,,,,,,,,,,,,,,,,,628.0606603560154,None,2,0.48787672398611903,628.0606603560154,None,,,,,,,,,,,,,,,,None,None,None,,None,None,628.594382750045,None,3,1,0.6211822609766386,628.594382750045,None,629.2104312106967,None,None,None,None,,33,001,2023_Jan_24_1624,searchDisc5,2021.2.3,59.98641979518043,
images/exp2b_trial_315_colour3_distractors9_l.png,l,1,3,9,0,,,,,0,173,173,173,,,,,,,,,,,,,,,,,,,,,,,,,,,,,,,,,,,,,,,,,,,629.2281660410226,None,2,0.44064561900449917,629.2281660410226,None,,,,,,,,,,,,,,,,None,None,None,,None,None,629.7111021610326,None,1,1,0.6220154460170306,629.7111021610326,None,630.3300252417102,None,None,None,None,,33,001,2023_Jan_24_1624,searchDisc5,2021.2.3,59.98641979518043,
images/exp2c_trial_206_colour3_distractors31_r.png,r,3,3,31,0,,,,,0,174,174,174,,,,,,,,,,,,,,,,,,,,,,,,,,,,,,,,,,,,,,,,,,,630.3445489919977,None,2,0.46852709096856415,630.3445489919977,None,,,,,,,,,,,,,,,,None,None,None,,None,None,630.8634284129948,None,3,1,0.9028963680029847,630.8634284129948,None,631.7613234487362,None,None,None,None,,33,001,2023_Jan_24_1624,searchDisc5,2021.2.3,59.98641979518043,
images/exp2b_trial_169_colour2_distractors31_r.png,r,3,2,31,0,,,,,0,175,175,175,,,,,,,,,,,,,,,,,,,,,,,,,,,,,,,,,,,,,,,,,,,631.7782767110039,None,2,0.47177064401330426,631.7782767110039,None,,,,,,,,,,,,,,,,None,None,None,,None,None,632.294420551043,None,3,1,0.6873335079872049,632.294420551043,None,632.9778637076961,None,None,None,None,,33,001,2023_Jan_24_1624,searchDisc5,2021.2.3,59.98641979518043,
images/exp2b_trial_66_colour1_distractors9_r.png,r,3,1,9,0,,,,,0,176,176,176,,,,,,,,,,,,,,,,,,,,,,,,,,,,,,,,,,,,,,,,,,,632.994033230003,None,2,0.4378836550167762,632.994033230003,None,,,,,,,,,,,,,,,,None,None,None,,None,None,633.4808089540456,None,3,1,0.6695606239954941,633.4808089540456,None,634.1444197167293,None,None,None,None,,33,001,2023_Jan_24_1624,searchDisc5,2021.2.3,59.98641979518043,
images/exp2a_trial_235_colour3_distractors4_r.png,r,3,3,4,0,,,,,0,177,177,177,,,,,,,,,,,,,,,,,,,,,,,,,,,,,,,,,,,,,,,,,,,634.1614721810329,None,2,0.454351858003065,634.1614721810329,None,,,,,,,,,,,,,,,,None,None,None,,None,None,634.6617116220295,None,3,1,0.6221065180143341,634.6617116220295,None,635.277815037698,None,None,None,None,,33,001,2023_Jan_24_1624,searchDisc5,2021.2.3,59.98641979518043,
images/exp1a_trial_117_colour2_distractors4_l.png,l,1,2,4,0,,,,,0,178,178,178,,,,,,,,,,,,,,,,,,,,,,,,,,,,,,,,,,,,,,,,,,,635.2946550080087,None,2,0.42096411902457476,635.2946550080087,None,,,,,,,,,,,,,,,,None,None,None,,None,None,635.764147954993,None,1,1,0.822743883007206,635.764147954993,None,636.57801120769,None,None,None,None,,33,001,2023_Jan_24_1624,searchDisc5,2021.2.3,59.98641979518043,
images/exp2a_trial_147_colour1_distractors31_l.png,l,1,1,31,0,,,,,0,179,179,179,,,,,,,,,,,,,,,,,,,,,,,,,,,,,,,,,,,,,,,,,,,636.5943135970156,None,2,0.42241241497686133,636.5943135970156,None,,,,,,,,,,,,,,,,None,None,None,,None,None,637.0620851650019,None,1,1,0.6689437269815244,637.0620851650019,None,637.7288056327379,None,None,None,None,,33,001,2023_Jan_24_1624,searchDisc5,2021.2.3,59.98641979518043,
images/exp1a_trial_3_colour1_distractors19_r.png,r,3,1,19,0,,,,,0,180,180,180,,,,,,,,,,,,,,,,,,,,,,,,,,,,,,,,,,,,,,,,,,,637.7442093780264,None,2,0.4878274510265328,637.7442093780264,None,,,,,,,,,,,,,,,,None,None,None,,None,None,638.2788328010356,None,3,1,0.8015008130460046,638.2788328010356,None,639.0780960916891,None,None,None,None,,33,001,2023_Jan_24_1624,searchDisc5,2021.2.3,59.98641979518043,
images/exp2a_trial_271_colour1_distractors1_l.png,l,1,1,1,0,,,,,0,181,181,181,,,,,,,,,,,,,,,,,,,,,,,,,,,,,,,,,,,,,,,,,,,639.0936956480145,None,2,0.38749035802902654,639.0936956480145,None,,,,,,,,,,,,,,,,None,None,None,,None,None,639.5310214160127,None,1,1,0.6573317379807122,639.5310214160127,None,640.1792042307206,None,None,None,None,,33,001,2023_Jan_24_1624,searchDisc5,2021.2.3,59.98641979518043,
images/exp2c_trial_48_colour1_distractors4_l.png,l,1,1,4,0,,,,,0,182,182,182,,,,,,,,,,,,,,,,,,,,,,,,,,,,,,,,,,,,,,,,,,,640.193897426012,None,2,0.753851437009871,640.193897426012,None,,,,,,,,,,,,,,,,None,None,None,,None,None,640.9968617100385,None,1,1,0.7387067090021446,640.9968617100385,None,641.7289640777162,None,None,None,None,,33,001,2023_Jan_24_1624,searchDisc5,2021.2.3,59.98641979518043,
images/exp1a_trial_259_colour1_distractors19_r.png,r,3,1,19,0,,,,,0,183,183,183,,,,,,,,,,,,,,,,,,,,,,,,,,,,,,,,,,,,,,,,,,,641.7470066670212,None,2,0.3370964099885896,641.7470066670212,None,,,,,,,,,,,,,,,,None,None,None,,None,None,642.1306468080147,None,3,1,0.6516143829794601,642.1306468080147,None,642.7780812947312,None,None,None,None,,33,001,2023_Jan_24_1624,searchDisc5,2021.2.3,59.98641979518043,
images/exp2c_trial_231_colour2_distractors9_r.png,r,3,2,9,0,,,,,0,184,184,184,,,,,,,,,,,,,,,,,,,,,,,,,,,,,,,,,,,,,,,,,,,642.794542521995,None,2,0.5222973349737003,642.794542521995,None,,,,,,,,,,,,,,,,None,None,None,,None,None,643.3636111060041,None,3,1,0.720321323024109,643.3636111060041,None,644.0780405027326,None,None,None,None,,33,001,2023_Jan_24_1624,searchDisc5,2021.2.3,59.98641979518043,
images/exp2b_trial_238_colour3_distractors31_r.png,r,3,3,31,0,,,,,0,185,185,185,,,,,,,,,,,,,,,,,,,,,,,,,,,,,,,,,,,,,,,,,,,644.094617727038,None,2,0.3882571579888463,644.094617727038,None,,,,,,,,,,,,,,,,None,None,None,,None,None,644.5312093460234,None,3,1,0.9695926750428043,644.5312093460234,None,645.4948242267128,None,None,None,None,,33,001,2023_Jan_24_1624,searchDisc5,2021.2.3,59.98641979518043,
images/exp2c_trial_311_colour2_distractors19_l.png,l,1,2,19,0,,,,,0,186,186,186,,,,,,,,,,,,,,,,,,,,,,,,,,,,,,,,,,,,,,,,,,,645.5115099120303,None,2,0.4211067399592139,645.5115099120303,None,,,,,,,,,,,,,,,,None,None,None,,None,None,645.9808443420334,None,1,1,0.753787936992012,645.9808443420334,None,646.7282752956962,None,None,None,None,,33,001,2023_Jan_24_1624,searchDisc5,2021.2.3,59.98641979518043,
images/exp2c_trial_175_colour1_distractors1_l.png,l,1,1,1,0,,,,,0,187,187,187,,,,,,,,,,,,,,,,,,,,,,,,,,,,,,,,,,,,,,,,,,,646.7451248090365,None,2,0.3875502580194734,646.7451248090365,None,,,,,,,,,,,,,,,,None,None,None,,None,None,647.1803923330153,None,1,1,0.6899269300047308,647.1803923330153,None,647.8616244607256,None,None,None,None,,33,001,2023_Jan_24_1624,searchDisc5,2021.2.3,59.98641979518043,
images/exp2b_trial_68_colour1_distractors31_r.png,r,3,1,31,0,,,,,0,188,188,188,,,,,,,,,,,,,,,,,,,,,,,,,,,,,,,,,,,,,,,,,,,647.8807020169916,None,2,0.4059783809934743,647.8807020169916,None,,,,,,,,,,,,,,,,None,None,None,,None,None,648.3287609540275,None,3,1,0.9347492349916138,648.3287609540275,None,649.2616094057448,None,None,None,None,,33,001,2023_Jan_24_1624,searchDisc5,2021.2.3,59.98641979518043,
images/exp2a_trial_40_colour2_distractors19_r.png,r,3,2,19,0,,,,,0,189,189,189,,,,,,,,,,,,,,,,,,,,,,,,,,,,,,,,,,,,,,,,,,,649.2780525209964,None,2,0.4048948719864711,649.2780525209964,None,,,,,,,,,,,,,,,,None,None,None,,None,None,649.730825990031,None,3,1,0.7653924089972861,649.730825990031,None,650.4949490076979,None,None,None,None,,33,001,2023_Jan_24_1624,searchDisc5,2021.2.3,59.98641979518043,
images/exp1a_trial_178_colour1_distractors19_l.png,l,1,1,19,0,,,,,0,190,190,190,,,,,,,,,,,,,,,,,,,,,,,,,,,,,,,,,,,,,,,,,,,650.511709708022,None,2,0.42186727200169116,650.511709708022,None,,,,,,,,,,,,,,,,None,None,None,,None,None,650.9783019530005,None,1,1,0.8485333700082265,650.9783019530005,None,651.8282530247234,None,None,None,None,,33,001,2023_Jan_24_1624,searchDisc5,2021.2.3,59.98641979518043,
images/exp1a_trial_297_colour2_distractors31_r.png,r,3,2,31,0,,,,,0,191,191,191,,,,,,,,,,,,,,,,,,,,,,,,,,,,,,,,,,,,,,,,,,,651.8455726079992,None,2,0.40750739502254874,651.8455726079992,None,,,,,,,,,,,,,,,,None,None,None,,None,None,652.298102086992,None,3,1,0.7296701410086825,652.298102086992,None,653.0278640467441,None,None,None,None,,33,001,2023_Jan_24_1624,searchDisc5,2021.2.3,59.98641979518043,
images/exp1a_trial_248_colour2_distractors31_l.png,l,1,2,31,0,,,,,0,192,192,192,,,,,,,,,,,,,,,,,,,,,,,,,,,,,,,,,,,,,,,,,,,653.0458544390276,None,2,0.4053533480037004,653.0458544390276,None,,,,,,,,,,,,,,,,None,None,None,,None,None,653.497963499045,None,1,1,1.0169409570517018,653.497963499045,None,654.5117875747383,None,None,None,None,,33,001,2023_Jan_24_1624,searchDisc5,2021.2.3,59.98641979518043,
images/exp2b_trial_31_colour0_distractors0_l.png,l,1,0,0,0,,,,,0,193,193,193,,,,,,,,,,,,,,,,,,,,,,,,,,,,,,,,,,,,,,,,,,,654.5282212099992,None,2,0.4068107180064544,654.5282212099992,None,,,,,,,,,,,,,,,,None,None,None,,None,None,654.9787096630316,None,1,1,0.7707498230156489,654.9787096630316,None,655.7451794767403,None,None,None,None,,33,001,2023_Jan_24_1624,searchDisc5,2021.2.3,59.98641979518043,
images/exp2b_trial_100_colour1_distractors31_r.png,r,3,1,31,0,,,,,0,194,194,194,,,,,,,,,,,,,,,,,,,,,,,,,,,,,,,,,,,,,,,,,,,655.7623892760021,None,2,0.4563651270000264,655.7623892760021,None,,,,,,,,,,,,,,,,None,None,None,,None,None,656.2617780680303,None,3,1,0.7010993490112014,656.2617780680303,None,656.9618390427204,None,None,None,None,,33,001,2023_Jan_24_1624,searchDisc5,2021.2.3,59.98641979518043,
images/exp2b_trial_237_colour3_distractors19_r.png,r,3,3,19,0,,,,,0,195,195,195,,,,,,,,,,,,,,,,,,,,,,,,,,,,,,,,,,,,,,,,,,,656.9809944060398,None,2,0.47145491000264883,656.9809944060398,None,,,,,,,,,,,,,,,,None,None,None,,None,None,657.4979382490274,None,3,1,0.9033132679760456,657.4979382490274,None,658.39503008069,None,None,None,None,,33,001,2023_Jan_24_1624,searchDisc5,2021.2.3,59.98641979518043,
images/exp2b_trial_75_colour3_distractors4_r.png,r,3,3,4,0,,,,,0,196,196,196,,,,,,,,,,,,,,,,,,,,,,,,,,,,,,,,,,,,,,,,,,,658.4119663370075,None,2,0.35473087697755545,658.4119663370075,None,,,,,,,,,,,,,,,,None,None,None,,None,None,658.8143693290185,None,3,1,0.7552972039557062,658.8143693290185,None,659.5618929297198,None,None,None,None,,33,001,2023_Jan_24_1624,searchDisc5,2021.2.3,59.98641979518043,
images/exp1a_trial_49_colour1_distractors9_l.png,l,1,1,9,0,,,,,0,197,197,197,,,,,,,,,,,,,,,,,,,,,,,,,,,,,,,,,,,,,,,,,,,659.578543709009,None,2,0.4212846400332637,659.578543709009,None,,,,,,,,,,,,,,,,None,None,None,,None,None,660.045797259023,None,1,1,0.5545701920054853,660.045797259023,None,660.5952314627357,None,None,None,None,,33,001,2023_Jan_24_1624,searchDisc5,2021.2.3,59.98641979518043,
images/exp2b_trial_39_colour2_distractors9_r.png,r,3,2,9,0,,,,,0,198,198,198,,,,,,,,,,,,,,,,,,,,,,,,,,,,,,,,,,,,,,,,,,,660.6128342660377,None,2,0.5217340770177543,660.6128342660377,None,,,,,,,,,,,,,,,,None,None,None,,None,None,661.1805462210323,None,3,1,0.6199868919793516,661.1805462210323,None,661.7952595996903,None,None,None,None,,33,001,2023_Jan_24_1624,searchDisc5,2021.2.3,59.98641979518043,
images/exp2b_trial_193_colour1_distractors4_r.png,r,3,1,4,0,,,,,0,199,199,199,,,,,,,,,,,,,,,,,,,,,,,,,,,,,,,,,,,,,,,,,,,661.812413926993,None,2,0.4241194109781645,661.812413926993,None,,,,,,,,,,,,,,,,None,None,None,,None,None,662.279979281011,None,3,1,0.7190424510044977,662.279979281011,None,662.9952617547242,None,None,None,None,,33,001,2023_Jan_24_1624,searchDisc5,2021.2.3,59.98641979518043,
images/exp2c_trial_105_colour2_distractors31_r.png,r,3,2,31,0,,,,,0,200,200,200,,,,,,,,,,,,,,,,,,,,,,,,,,,,,,,,,,,,,,,,,,,663.012479482044,None,2,0.40532085101585835,663.012479482044,None,,,,,,,,,,,,,,,,None,None,None,,None,None,663.4649182120338,None,3,1,0.7023512879968621,663.4649182120338,None,664.1620507496991,None,None,None,None,,33,001,2023_Jan_24_1624,searchDisc5,2021.2.3,59.98641979518043,
images/exp2a_trial_58_colour3_distractors4_l.png,l,1,3,4,0,,,,,0,201,201,201,,,,,,,,,,,,,,,,,,,,,,,,,,,,,,,,,,,,,,,,,,,664.1783401209977,None,2,0.4051805050112307,664.1783401209977,None,,,,,,,,,,,,,,,,None,None,None,,None,None,664.6288243620074,None,1,1,0.6376135069876909,664.6288243620074,None,665.26200907171,None,None,None,None,,33,001,2023_Jan_24_1624,searchDisc5,2021.2.3,59.98641979518043,
images/exp1a_trial_79_colour1_distractors1_l.png,l,1,1,1,0,,,,,0,202,202,202,,,,,,,,,,,,,,,,,,,,,,,,,,,,,,,,,,,,,,,,,,,665.2795348110376,None,2,0.42196020402479917,665.2795348110376,None,,,,,,,,,,,,,,,,None,None,None,,None,None,665.7483595579979,None,1,1,0.7546707720030099,665.7483595579979,None,666.4951758347452,None,None,None,None,,33,001,2023_Jan_24_1624,searchDisc5,2021.2.3,59.98641979518043,
images/exp1a_trial_27_colour3_distractors9_l.png,l,1,3,9,0,,,,,0,203,203,203,,,,,,,,,,,,,,,,,,,,,,,,,,,,,,,,,,,,,,,,,,,666.5118780109915,None,2,0.39114062796579674,666.5118780109915,None,,,,,,,,,,,,,,,,None,None,None,,None,None,666.9475779710338,None,1,1,0.7147667270037346,666.9475779710338,None,667.6622678837157,None,None,None,None,,33,001,2023_Jan_24_1624,searchDisc5,2021.2.3,59.98641979518043,
images/exp1a_trial_300_colour3_distractors9_r.png,r,3,3,9,0,,,,,0,204,204,204,,,,,,,,,,,,,,,,,,,,,,,,,,,,,,,,,,,,,,,,,,,667.6792475660332,None,2,0.3888660650118254,667.6792475660332,None,,,,,,,,,,,,,,,,None,None,None,,None,None,668.1146846319898,None,3,1,0.8858497560140677,668.1146846319898,None,668.9955452257418,None,None,None,None,,33,001,2023_Jan_24_1624,searchDisc5,2021.2.3,59.98641979518043,
images/exp2b_trial_249_colour3_distractors1_l.png,l,1,3,1,0,,,,,0,205,205,205,,,,,,,,,,,,,,,,,,,,,,,,,,,,,,,,,,,,,,,,,,,669.01269761601,None,2,0.4065198839525692,669.01269761601,None,,,,,,,,,,,,,,,,None,None,None,,None,None,669.4646397969918,None,1,1,0.6550309699960053,669.4646397969918,None,670.1132643257151,None,None,None,None,,33,001,2023_Jan_24_1624,searchDisc5,2021.2.3,59.98641979518043,
images/exp2b_trial_158_colour0_distractors0_r.png,r,3,0,0,0,,,,,0,206,206,206,,,,,,,,,,,,,,,,,,,,,,,,,,,,,,,,,,,,,,,,,,,670.1296123130014,None,2,0.4052674760459922,670.1296123130014,None,,,,,,,,,,,,,,,,None,None,None,,None,None,670.5796713060117,None,3,1,0.6077173289959319,670.5796713060117,None,671.1799706277088,None,None,None,None,,33,001,2023_Jan_24_1624,searchDisc5,2021.2.3,59.98641979518043,
images/exp2a_trial_56_colour2_distractors31_l.png,l,1,2,31,0,,,,,0,207,207,207,,,,,,,,,,,,,,,,,,,,,,,,,,,,,,,,,,,,,,,,,,,671.1959506249987,None,2,0.4208720560418442,671.1959506249987,None,,,,,,,,,,,,,,,,None,None,None,,None,None,671.6619072890026,None,1,1,0.5758752080146223,671.6619072890026,None,672.2453224917408,None,None,None,None,,33,001,2023_Jan_24_1624,searchDisc5,2021.2.3,59.98641979518043,
images/exp2b_trial_50_colour1_distractors19_l.png,l,1,1,19,0,,,,,0,208,208,208,,,,,,,,,,,,,,,,,,,,,,,,,,,,,,,,,,,,,,,,,,,672.2620695109945,None,2,0.4391394800040871,672.2620695109945,None,,,,,,,,,,,,,,,,None,None,None,,None,None,672.7461948799901,None,1,1,0.6699431629967876,672.7461948799901,None,673.4123493037187,None,None,None,None,,33,001,2023_Jan_24_1624,searchDisc5,2021.2.3,59.98641979518043,
images/exp2c_trial_283_colour3_distractors9_l.png,l,1,3,9,0,,,,,0,209,209,209,,,,,,,,,,,,,,,,,,,,,,,,,,,,,,,,,,,,,,,,,,,673.4287483970402,None,2,0.3879982430371456,673.4287483970402,None,,,,,,,,,,,,,,,,None,None,None,,None,None,673.8654306140379,None,1,1,0.6049089139560238,673.8654306140379,None,674.4623691987363,None,None,None,None,,33,001,2023_Jan_24_1624,searchDisc5,2021.2.3,59.98641979518043,
images/exp1a_trial_140_colour3_distractors9_r.png,r,3,3,9,0,,,,,0,210,210,210,,,,,,,,,,,,,,,,,,,,,,,,,,,,,,,,,,,,,,,,,,,674.4796827100217,None,2,0.4217285930062644,674.4796827100217,None,,,,,,,,,,,,,,,,None,None,None,,None,None,674.9476437720004,None,3,1,0.6377918639918789,674.9476437720004,None,675.5791460757027,None,None,None,None,,33,001,2023_Jan_24_1624,searchDisc5,2021.2.3,59.98641979518043,
images/exp2c_trial_91_colour3_distractors9_l.png,l,1,3,9,0,,,,,0,211,211,211,,,,,,,,,,,,,,,,,,,,,,,,,,,,,,,,,,,,,,,,,,,675.5953002930037,None,2,0.3692463350016624,675.5953002930037,None,,,,,,,,,,,,,,,,None,None,None,,None,None,676.0123469120008,None,1,1,0.7211953370133415,676.0123469120008,None,676.7290593766957,None,None,None,None,,33,001,2023_Jan_24_1624,searchDisc5,2021.2.3,59.98641979518043,
images/exp2b_trial_177_colour1_distractors9_l.png,l,1,1,9,0,,,,,0,212,212,212,,,,,,,,,,,,,,,,,,,,,,,,,,,,,,,,,,,,,,,,,,,676.7446510840091,None,2,0.3206056909984909,676.7446510840091,None,,,,,,,,,,,,,,,,None,None,None,,None,None,677.1132649549982,None,1,1,0.7049126789788716,677.1132649549982,None,677.8123960607336,None,None,None,None,,33,001,2023_Jan_24_1624,searchDisc5,2021.2.3,59.98641979518043,
images/exp2b_trial_265_colour2_distractors31_r.png,r,3,2,31,0,,,,,0,213,213,213,,,,,,,,,,,,,,,,,,,,,,,,,,,,,,,,,,,,,,,,,,,677.8315076620202,None,2,0.3576747910119593,677.8315076620202,None,,,,,,,,,,,,,,,,None,None,None,,None,None,678.2313463269966,None,3,1,0.6011375079979189,678.2313463269966,None,678.8291383546893,None,None,None,None,,33,001,2023_Jan_24_1624,searchDisc5,2021.2.3,59.98641979518043,
images/exp2a_trial_306_colour1_distractors19_l.png,l,1,1,19,0,,,,,0,214,214,214,,,,,,,,,,,,,,,,,,,,,,,,,,,,,,,,,,,,,,,,,,,678.8446150810341,None,2,0.41996315302094445,678.8446150810341,None,,,,,,,,,,,,,,,,None,None,None,,None,None,679.3149949150393,None,1,1,0.7037128449883312,679.3149949150393,None,680.0125294397003,None,None,None,None,,33,001,2023_Jan_24_1624,searchDisc5,2021.2.3,59.98641979518043,
images/exp1a_trial_12_colour3_distractors9_r.png,r,3,3,9,0,,,,,0,215,215,215,,,,,,,,,,,,,,,,,,,,,,,,,,,,,,,,,,,,,,,,,,,680.0297141350457,None,2,0.47183499799575657,680.0297141350457,None,,,,,,,,,,,,,,,,None,None,None,,None,None,680.5459479269921,None,3,1,0.6848826979985461,680.5459479269921,None,681.229189883743,None,None,None,None,,33,001,2023_Jan_24_1624,searchDisc5,2021.2.3,59.98641979518043,
images/exp2b_trial_16_colour1_distractors4_l.png,l,1,1,4,0,,,,,0,216,216,216,,,,,,,,,,,,,,,,,,,,,,,,,,,,,,,,,,,,,,,,,,,681.245457601035,None,2,0.3084736339515075,681.245457601035,None,,,,,,,,,,,,,,,,None,None,None,,None,None,681.5981449700193,None,1,1,0.7178816320374608,681.5981449700193,None,682.3120788566885,None,None,None,None,,33,001,2023_Jan_24_1624,searchDisc5,2021.2.3,59.98641979518043,
images/exp2b_trial_0_colour1_distractors1_r.png,r,3,1,1,0,,,,,0,217,217,217,,,,,,,,,,,,,,,,,,,,,,,,,,,,,,,,,,,,,,,,,,,682.3290622869972,None,2,0.3054208679823205,682.3290622869972,None,,,,,,,,,,,,,,,,None,None,None,,None,None,682.6795471280348,None,3,1,0.5884234859840944,682.6795471280348,None,683.2619859226979,None,None,None,None,,33,001,2023_Jan_24_1624,searchDisc5,2021.2.3,59.98641979518043,
images/exp2a_trial_183_colour2_distractors19_l.png,l,1,2,19,0,,,,,0,218,218,218,,,,,,,,,,,,,,,,,,,,,,,,,,,,,,,,,,,,,,,,,,,683.2795835370198,None,2,0.32094970397884026,683.2795835370198,None,,,,,,,,,,,,,,,,None,None,None,,None,None,683.6463062090334,None,1,1,0.6162801549653523,683.6463062090334,None,684.2626755287056,None,None,None,None,,33,001,2023_Jan_24_1624,searchDisc5,2021.2.3,59.98641979518043,
images/exp2b_trial_280_colour2_distractors31_l.png,l,1,2,31,0,,,,,0,219,219,219,,,,,,,,,,,,,,,,,,,,,,,,,,,,,,,,,,,,,,,,,,,684.2821035489906,None,2,0.3741303679998964,684.2821035489906,None,,,,,,,,,,,,,,,,None,None,None,,None,None,684.6964780089911,None,1,1,0.701559768000152,684.6964780089911,None,685.3971345807076,None,None,None,None,,33,001,2023_Jan_24_1624,searchDisc5,2021.2.3,59.98641979518043,
images/exp2c_trial_213_colour2_distractors4_l.png,l,1,2,4,0,,,,,0,220,220,220,,,,,,,,,,,,,,,,,,,,,,,,,,,,,,,,,,,,,,,,,,,685.4132602990139,None,2,0.33953076001489535,685.4132602990139,None,,,,,,,,,,,,,,,,None,None,None,,None,None,685.7980863120174,None,1,1,0.6192869290243834,685.7980863120174,None,686.4126338267233,None,None,None,None,,33,001,2023_Jan_24_1624,searchDisc5,2021.2.3,59.98641979518043,
images/exp2c_trial_30_colour0_distractors0_r.png,r,3,0,0,0,,,,,0,221,221,221,,,,,,,,,,,,,,,,,,,,,,,,,,,,,,,,,,,,,,,,,,,686.4296347650234,None,2,0.35512441297760233,686.4296347650234,None,,,,,,,,,,,,,,,,None,None,None,,None,None,686.8295079230447,None,3,1,0.6061652440112084,686.8295079230447,None,687.4296798827127,None,None,None,None,,33,001,2023_Jan_24_1624,searchDisc5,2021.2.3,59.98641979518043,
images/exp2c_trial_119_colour2_distractors19_l.png,l,1,2,19,0,,,,,0,222,222,222,,,,,,,,,,,,,,,,,,,,,,,,,,,,,,,,,,,,,,,,,,,687.4467379249982,None,2,0.407175546977669,687.4467379249982,None,,,,,,,,,,,,,,,,None,None,None,,None,None,687.8985965250176,None,1,1,0.6839513049926609,687.8985965250176,None,688.5793881097343,None,None,None,None,,33,001,2023_Jan_24_1624,searchDisc5,2021.2.3,59.98641979518043,
images/exp2b_trial_29_colour3_distractors31_l.png,l,1,3,31,0,,,,,0,223,223,223,,,,,,,,,,,,,,,,,,,,,,,,,,,,,,,,,,,,,,,,,,,688.5986445390154,None,2,0.38980847399216145,688.5986445390154,None,,,,,,,,,,,,,,,,None,None,None,,None,None,689.0288648960413,None,1,1,0.7012030720361508,689.0288648960413,None,689.7292860526941,None,None,None,None,,33,001,2023_Jan_24_1624,searchDisc5,2021.2.3,59.98641979518043,
images/exp2b_trial_151_colour2_distractors19_l.png,l,1,2,19,0,,,,,0,224,224,224,,,,,,,,,,,,,,,,,,,,,,,,,,,,,,,,,,,,,,,,,,,689.7481490900391,None,2,0.3576341899461113,689.7481490900391,None,,,,,,,,,,,,,,,,None,None,None,,None,None,690.1485134010436,None,1,1,0.6524476900231093,690.1485134010436,None,690.7961113107158,None,None,None,None,,33,001,2023_Jan_24_1624,searchDisc5,2021.2.3,59.98641979518043,
images/exp2b_trial_319_colour0_distractors0_l.png,l,1,0,0,0,,,,,0,225,225,225,,,,,,,,,,,,,,,,,,,,,,,,,,,,,,,,,,,,,,,,,,,690.8122862880118,None,2,0.30365082004573196,690.8122862880118,None,,,,,,,,,,,,,,,,None,None,None,,None,None,691.1623977760319,None,1,1,0.5408578629721887,691.1623977760319,None,691.6982272806927,None,None,None,None,,33,001,2023_Jan_24_1624,searchDisc5,2021.2.3,59.98641979518043,
