ImageFile,targ_side,correctAnswer,colour,distNo,targetType,trials_2.thisRepN,trials_2.thisTrialN,trials_2.thisN,trials_2.thisIndex,trials.thisRepN,trials.thisTrialN,trials.thisN,trials.thisIndex,text_6.started,text_6.stopped,buttonBox.keys,buttonBox.rt,buttonBox.started,buttonBox.stopped,text_7.started,text_7.stopped,buttonBox_3.keys,buttonBox_3.rt,buttonBox_3.started,buttonBox_3.stopped,text_8.started,text_8.stopped,buttonBox_4.keys,buttonBox_4.rt,buttonBox_4.started,buttonBox_4.stopped,text_9.started,text_9.stopped,buttonBox_5.keys,buttonBox_5.rt,buttonBox_5.started,buttonBox_5.stopped,text_2.started,text_2.stopped,buttonBox_6.keys,buttonBox_6.rt,buttonBox_6.started,buttonBox_6.stopped,text_5.started,text_5.stopped,buttonBox_7.keys,buttonBox_7.rt,image_2.started,image_2.stopped,image_3.started,image_3.stopped,buttonBox_8.keys,buttonBox_8.rt,buttonBox_8.started,buttonBox_8.stopped,polygon.started,polygon.stopped,buttonBox_9.keys,buttonBox_9.rt,buttonBox_9.started,buttonBox_9.stopped,image.started,image.stopped,buttonBox_10.keys,buttonBox_10.corr,buttonBox_10.rt,buttonBox_10.started,buttonBox_10.stopped,text_4.started,text_4.stopped,text.started,text.stopped,buttonBox_11.keys,buttonBox_11.rt,buttonBox_11.started,buttonBox_11.stopped,targetTypeInstruction.started,targetTypeInstruction.stopped,buttonBox_2.keys,buttonBox_2.rt,buttonBox_2.started,buttonBox_2.stopped,dispStimuli.started,dispStimuli.stopped,buttonBox_12.keys,buttonBox_12.corr,buttonBox_12.rt,buttonBox_12.started,buttonBox_12.stopped,breakMessage.started,breakMessage.stopped,buttonBox_13.keys,buttonBox_13.started,buttonBox_13.stopped,buttonBox_13.rt,participant,session,date,expName,psychopyVersion,frameRate,
,,,,,,,,,,,,,,20.505159554013517,None,2,35.47881136200158,20.505159554013517,None,,,,,,,,,,,,,,,,,,,,,,,,,,,,,,,,,,,,,,,,,,,,,,,,,,,,,,,,,,,,,,,,,,,,,,,,,,,,,37,001,2023_Jan_30_1419,searchDisc5,2021.2.3,59.964561902684764,
,,,,,,,,,,,,,,,,,,,,55.98613854398718,None,2,2.8313962839893065,55.98613854398718,None,,,,,,,,,,,,,,,,,,,,,,,,,,,,,,,,,,,,,,,,,,,,,,,,,,,,,,,,,,,,,,,,,,,,,,,37,001,2023_Jan_30_1419,searchDisc5,2021.2.3,59.964561902684764,
,,,,,,,,,,,,,,,,,,,,,,,,,,58.821926556993276,None,2,2.147953778039664,58.821926556993276,None,,,,,,,,,,,,,,,,,,,,,,,,,,,,,,,,,,,,,,,,,,,,,,,,,,,,,,,,,,,,,,,,,37,001,2023_Jan_30_1419,searchDisc5,2021.2.3,59.964561902684764,
,,,,,,,,,,,,,,,,,,,,,,,,,,,,,,,,60.96981258399319,None,2,1.880953230021987,60.96981258399319,None,,,,,,,,,,,,,,,,,,,,,,,,,,,,,,,,,,,,,,,,,,,,,,,,,,,,,,,,,,,37,001,2023_Jan_30_1419,searchDisc5,2021.2.3,59.964561902684764,
,,,,,,,,,,,,,,,,,,,,,,,,,,,,,,,,,,,,,,62.85340763599379,None,2,1.8645898329559714,63.83862361696083,None,,,,,,,,,,,,,,,,,,,,,,,,,,,,,,,,,,,,,,,,,,,,,,,,,,,,,37,001,2023_Jan_30_1419,searchDisc5,2021.2.3,59.964561902684764,
,,,,,,,,,,,,,,,,,,,,,,,,,,,,,,,,,,,,,,,,,,,,65.70336120098364,None,2,3.633575930027291,,,,,,,,,,,,,,,,,,,,,,,,,,,,,,,,,,,,,,,,,,,,,,,,,37,001,2023_Jan_30_1419,searchDisc5,2021.2.3,59.964561902684764,
,,,,,,,,,,,,,,,,,,,,,,,,,,,,,,,,,,,,,,,,,,,,,,,,72.33674907498062,None,72.33674907498062,None,2,13.912520946993027,72.33674907498062,None,,,,,,,,,,,,,,,,,,,,,,,,,,,,,,,,,,,,,,,,,37,001,2023_Jan_30_1419,searchDisc5,2021.2.3,59.964561902684764,
Practice arrays/exp1a_trial_25_colour3_distractors1_l.png,l,1,,,,0,0,0,11,,,,,,,,,,,,,,,,,,,,,,,,,,,,,,,,,,,,,,,,,,,,,,,86.28693052998278,None,2,13.603209399036132,86.28693052998278,None,99.93821841198951,None,1,1,1.791193558019586,99.93821841198951,None,101.72061013197526,None,,,,,,,,,,,,,,,,,,,,,,,,,,37,001,2023_Jan_30_1419,searchDisc5,2021.2.3,59.964561902684764,
Practice arrays/exp1a_trial_30_colour0_distractors0_r.png,r,3,,,,0,1,1,14,,,,,,,,,,,,,,,,,,,,,,,,,,,,,,,,,,,,,,,,,,,,,,,103.72303677198943,None,2,1.3469623700366355,103.72303677198943,None,105.12102021899773,None,3,1,0.9739015380037017,105.12102021899773,None,106.08778202696703,None,,,,,,,,,,,,,,,,,,,,,,,,,,37,001,2023_Jan_30_1419,searchDisc5,2021.2.3,59.964561902684764,
Practice arrays/exp1a_trial_14_colour3_distractors31_r.png,r,3,,,,0,2,2,6,,,,,,,,,,,,,,,,,,,,,,,,,,,,,,,,,,,,,,,,,,,,,,,108.08988767600385,None,2,1.3972910420270637,108.08988767600385,None,109.53986327897292,None,3,1,1.014678539999295,109.53986327897292,None,110.55447558895685,None,,,,,,,,,,,,,,,,,,,,,,,,,,37,001,2023_Jan_30_1419,searchDisc5,2021.2.3,59.964561902684764,
Practice arrays/exp1a_trial_7_colour2_distractors9_r.png,r,3,,,,0,3,3,2,,,,,,,,,,,,,,,,,,,,,,,,,,,,,,,,,,,,,,,,,,,,,,,112.55622422200395,None,2,0.980316250002943,112.55622422200395,None,113.58795019000536,None,3,1,0.8539938459871337,113.58795019000536,None,114.43787023297045,None,,,,,,,,,,,,,,,,,,,,,,,,,,37,001,2023_Jan_30_1419,searchDisc5,2021.2.3,59.964561902684764,
Practice arrays/exp1a_trial_12_colour3_distractors9_r.png,r,3,,,,0,4,4,5,,,,,,,,,,,,,,,,,,,,,,,,,,,,,,,,,,,,,,,,,,,,,,,116.4397229529568,None,2,1.263876365032047,116.4397229529568,None,117.7547714629909,None,3,1,0.833740130008664,117.7547714629909,None,118.58806342299795,None,,,,,,,,,,,,,,,,,,,,,,,,,,37,001,2023_Jan_30_1419,searchDisc5,2021.2.3,59.964561902684764,
Practice arrays/exp1a_trial_23_colour2_distractors19_l.png,l,1,,,,0,5,5,10,,,,,,,,,,,,,,,,,,,,,,,,,,,,,,,,,,,,,,,,,,,,,,,120.58980618498754,None,2,0.9303734619752504,120.58980618498754,None,121.57101202296326,None,1,1,1.116273156949319,121.57101202296326,None,122.68809178296942,None,,,,,,,,,,,,,,,,,,,,,,,,,,37,001,2023_Jan_30_1419,searchDisc5,2021.2.3,59.964561902684764,
Practice arrays/exp1a_trial_8_colour2_distractors19_r.png,r,3,,,,0,6,6,3,,,,,,,,,,,,,,,,,,,,,,,,,,,,,,,,,,,,,,,,,,,,,,,124.69038767198799,None,2,0.8805902129970491,124.69038767198799,None,125.62341145699611,None,3,1,0.7347567779943347,125.62341145699611,None,126.35495996801183,None,,,,,,,,,,,,,,,,,,,,,,,,,,37,001,2023_Jan_30_1419,searchDisc5,2021.2.3,59.964561902684764,
Practice arrays/exp1a_trial_0_colour1_distractors1_r.png,r,3,,,,0,7,7,0,,,,,,,,,,,,,,,,,,,,,,,,,,,,,,,,,,,,,,,,,,,,,,,128.35700573399663,None,2,1.5654318099841475,128.35700573399663,None,129.9735712679685,None,3,1,1.4555237999884412,129.9735712679685,None,131.4217869929853,None,,,,,,,,,,,,,,,,,,,,,,,,,,37,001,2023_Jan_30_1419,searchDisc5,2021.2.3,59.964561902684764,
Practice arrays/exp1a_trial_17_colour1_distractors9_l.png,l,1,,,,0,8,8,7,,,,,,,,,,,,,,,,,,,,,,,,,,,,,,,,,,,,,,,,,,,,,,,133.42383630300174,None,2,0.9305388680077158,133.42383630300174,None,134.40531117998762,None,1,1,0.8703425279818475,134.40531117998762,None,135.2718918689643,None,,,,,,,,,,,,,,,,,,,,,,,,,,37,001,2023_Jan_30_1419,searchDisc5,2021.2.3,59.964561902684764,
Practice arrays/exp1a_trial_1_colour1_distractors4_r.png,r,3,,,,0,9,9,1,,,,,,,,,,,,,,,,,,,,,,,,,,,,,,,,,,,,,,,,,,,,,,,137.27406035800232,None,2,0.7973289310466498,137.27406035800232,None,138.1221842970117,None,3,1,0.705074739002157,138.1221842970117,None,138.82189698598813,None,,,,,,,,,,,,,,,,,,,,,,,,,,37,001,2023_Jan_30_1419,searchDisc5,2021.2.3,59.964561902684764,
Practice arrays/exp1a_trial_31_colour0_distractors0_l.png,l,1,,,,0,10,10,15,,,,,,,,,,,,,,,,,,,,,,,,,,,,,,,,,,,,,,,,,,,,,,,140.8240344049991,None,2,0.8826638120226562,140.8240344049991,None,141.75752901600208,None,1,1,0.5704356119967997,141.75752901600208,None,142.3219362120144,None,,,,,,,,,,,,,,,,,,,,,,,,,,37,001,2023_Jan_30_1419,searchDisc5,2021.2.3,59.964561902684764,
Practice arrays/exp1a_trial_18_colour1_distractors19_l.png,l,1,,,,0,11,11,8,,,,,,,,,,,,,,,,,,,,,,,,,,,,,,,,,,,,,,,,,,,,,,,144.32423407101305,None,2,0.8471661770017818,144.32423407101305,None,145.22412654198706,None,1,1,0.8686021079774946,145.22412654198706,None,146.08887363696704,None,,,,,,,,,,,,,,,,,,,,,,,,,,37,001,2023_Jan_30_1419,searchDisc5,2021.2.3,59.964561902684764,
Practice arrays/exp1a_trial_16_colour1_distractors4_l.png,l,1,,,,0,12,12,13,,,,,,,,,,,,,,,,,,,,,,,,,,,,,,,,,,,,,,,,,,,,,,,148.09097299695713,None,2,0.8810083260177635,148.09097299695713,None,149.02446090598824,None,1,1,0.9860234970110469,149.02446090598824,None,150.0056805879576,None,,,,,,,,,,,,,,,,,,,,,,,,,,37,001,2023_Jan_30_1419,searchDisc5,2021.2.3,59.964561902684764,
Practice arrays/exp1a_trial_21_colour2_distractors4_l.png,l,1,,,,0,13,13,9,,,,,,,,,,,,,,,,,,,,,,,,,,,,,,,,,,,,,,,,,,,,,,,152.0071824179613,None,2,1.0302174529642798,152.0071824179613,None,153.09113653399982,None,1,1,0.7218589370022528,153.09113653399982,None,153.80552304297453,None,,,,,,,,,,,,,,,,,,,,,,,,,,37,001,2023_Jan_30_1419,searchDisc5,2021.2.3,59.964561902684764,
Practice arrays/exp1a_trial_10_colour3_distractors1_r.png,r,3,,,,0,14,14,4,,,,,,,,,,,,,,,,,,,,,,,,,,,,,,,,,,,,,,,,,,,,,,,155.80776523100212,None,2,1.0825493860174902,155.80776523100212,None,156.94135232595727,None,3,1,0.7206937649752945,156.94135232595727,None,157.65567661100067,None,,,,,,,,,,,,,,,,,,,,,,,,,,37,001,2023_Jan_30_1419,searchDisc5,2021.2.3,59.964561902684764,
Practice arrays/exp1a_trial_27_colour3_distractors9_l.png,l,1,,,,0,15,15,12,,,,,,,,,,,,,,,,,,,,,,,,,,,,,,,,,,,,,,,,,,,,,,,159.65782748098718,None,2,1.0993232449982315,159.65782748098718,None,160.80796759499935,None,1,1,0.8021025680354796,160.80796759499935,None,161.60585617797915,None,,,,,,,,,,,,,,,,,,,,,,,,,,37,001,2023_Jan_30_1419,searchDisc5,2021.2.3,59.964561902684764,
,,,,,,,,,,,,,,,,,,,,,,,,,,,,,,,,,,,,,,,,,,,,,,,,,,,,,,,,,,,,,,,,,,,,,,,163.69080286397366,None,2,15.616962208005134,164.67459949699696,None,,,,,,,,,,,,,,,,,,,,37,001,2023_Jan_30_1419,searchDisc5,2021.2.3,59.964561902684764,
images/exp2a_trial_164_colour1_distractors31_r.png,r,3,1,31,0,,,,,0,0,0,0,,,,,,,,,,,,,,,,,,,,,,,,,,,,,,,,,,,,,,,,,,,187.7564849400078,None,2,2.878875923983287,187.7564849400078,None,,,,,,,,,,,,,,,,180.8918257249752,None,2,4.88143983198097,182.87507101800293,None,190.69861414795741,None,3,1,0.7973737470456399,190.69861414795741,None,191.50637856115355,None,None,None,None,,37,001,2023_Jan_30_1419,searchDisc5,2021.2.3,59.964561902684764,
images/exp2c_trial_186_colour3_distractors4_l.png,l,1,3,4,0,,,,,0,1,1,1,,,,,,,,,,,,,,,,,,,,,,,,,,,,,,,,,,,,,,,,,,,191.523126037966,None,2,1.504073399992194,191.523126037966,None,,,,,,,,,,,,,,,,None,None,None,,None,None,193.07544027396943,None,1,1,0.6575248609879054,193.07544027396943,None,193.72323922010256,None,None,None,None,,37,001,2023_Jan_30_1419,searchDisc5,2021.2.3,59.964561902684764,
images/exp2c_trial_304_colour1_distractors4_l.png,l,1,1,4,0,,,,,0,2,2,2,,,,,,,,,,,,,,,,,,,,,,,,,,,,,,,,,,,,,,,,,,,193.74032948800595,None,2,2.51775210298365,193.74032948800595,None,,,,,,,,,,,,,,,,None,None,None,,None,None,196.30682840500958,None,1,1,0.7850534769822843,196.30682840500958,None,197.0895067880687,None,None,None,None,,37,001,2023_Jan_30_1419,searchDisc5,2021.2.3,59.964561902684764,
images/exp2b_trial_186_colour3_distractors4_l.png,l,1,3,4,0,,,,,0,3,3,3,,,,,,,,,,,,,,,,,,,,,,,,,,,,,,,,,,,,,,,,,,,197.10885433701333,None,2,2.2558669589925557,197.10885433701333,None,,,,,,,,,,,,,,,,None,None,None,,None,None,199.40918105398305,None,1,1,0.7203404789906926,199.40918105398305,None,200.1234991240839,None,None,None,None,,37,001,2023_Jan_30_1419,searchDisc5,2021.2.3,59.964561902684764,
images/exp1a_trial_36_colour1_distractors31_r.png,r,3,1,31,0,,,,,0,4,4,4,,,,,,,,,,,,,,,,,,,,,,,,,,,,,,,,,,,,,,,,,,,200.13982953497907,None,2,1.4368917669635266,200.13982953497907,None,,,,,,,,,,,,,,,,None,None,None,,None,None,201.62371845595771,None,3,1,4.5334957969607785,201.62371845595771,None,206.15699778206763,None,None,None,None,,37,001,2023_Jan_30_1419,searchDisc5,2021.2.3,59.964561902684764,
images/exp1a_trial_105_colour2_distractors31_r.png,r,3,2,31,0,,,,,0,5,5,5,,,,,,,,,,,,,,,,,,,,,,,,,,,,,,,,,,,,,,,,,,,206.17556506296387,None,2,1.6228766710264608,206.17556506296387,None,,,,,,,,,,,,,,,,None,None,None,,None,None,207.84273492801003,None,3,1,1.0143578500137664,207.84273492801003,None,208.85671715409845,None,None,None,None,,37,001,2023_Jan_30_1419,searchDisc5,2021.2.3,59.964561902684764,
images/exp2c_trial_223_colour0_distractors0_l.png,l,1,0,0,0,,,,,0,6,6,6,,,,,,,,,,,,,,,,,,,,,,,,,,,,,,,,,,,,,,,,,,,208.87538719095755,None,2,1.0213673189864494,208.87538719095755,None,,,,,,,,,,,,,,,,None,None,None,,None,None,209.9402531099622,None,1,1,0.7915805109660141,209.9402531099622,None,210.72378790606163,None,None,None,None,,37,001,2023_Jan_30_1419,searchDisc5,2021.2.3,59.964561902684764,
images/exp2b_trial_207_colour1_distractors1_l.png,l,1,1,1,0,,,,,0,7,7,7,,,,,,,,,,,,,,,,,,,,,,,,,,,,,,,,,,,,,,,,,,,210.74027076899074,None,2,1.1536120510427281,210.74027076899074,None,,,,,,,,,,,,,,,,None,None,None,,None,None,211.9422174229985,None,1,1,0.8697327809641138,211.9422174229985,None,212.8074451820634,None,None,None,None,,37,001,2023_Jan_30_1419,searchDisc5,2021.2.3,59.964561902684764,
images/exp2c_trial_165_colour2_distractors1_r.png,r,3,2,1,0,,,,,0,8,8,8,,,,,,,,,,,,,,,,,,,,,,,,,,,,,,,,,,,,,,,,,,,212.82395162596367,None,2,1.1378325969562866,212.82395162596367,None,,,,,,,,,,,,,,,,None,None,None,,None,None,214.00960970896995,None,3,1,0.771915283985436,214.00960970896995,None,214.77406733506942,None,None,None,None,,37,001,2023_Jan_30_1419,searchDisc5,2021.2.3,59.964561902684764,
images/exp2a_trial_32_colour1_distractors1_r.png,r,3,1,1,0,,,,,0,9,9,9,,,,,,,,,,,,,,,,,,,,,,,,,,,,,,,,,,,,,,,,,,,214.79025679000188,None,2,1.0036386919673532,214.79025679000188,None,,,,,,,,,,,,,,,,None,None,None,,None,None,215.84100486297393,None,3,1,0.7723861649865285,215.84100486297393,None,216.6074694070907,None,None,None,None,,37,001,2023_Jan_30_1419,searchDisc5,2021.2.3,59.964561902684764,
images/exp2c_trial_13_colour3_distractors19_r.png,r,3,3,19,0,,,,,0,10,10,10,,,,,,,,,,,,,,,,,,,,,,,,,,,,,,,,,,,,,,,,,,,216.62404863297706,None,2,0.8376402159919962,216.62404863297706,None,,,,,,,,,,,,,,,,None,None,None,,None,None,217.50763693999033,None,3,1,0.8857225080137141,217.50763693999033,None,218.3907848580915,None,None,None,None,,37,001,2023_Jan_30_1419,searchDisc5,2021.2.3,59.964561902684764,
images/exp2c_trial_239_colour1_distractors1_l.png,l,1,1,1,0,,,,,0,11,11,11,,,,,,,,,,,,,,,,,,,,,,,,,,,,,,,,,,,,,,,,,,,218.40690808498766,None,2,0.7045671379892156,218.40690808498766,None,,,,,,,,,,,,,,,,None,None,None,,None,None,219.15805219695903,None,1,1,0.8725706760305911,219.15805219695903,None,220.02403419808834,None,None,None,None,,37,001,2023_Jan_30_1419,searchDisc5,2021.2.3,59.964561902684764,
images/exp2a_trial_263_colour2_distractors9_r.png,r,3,2,9,0,,,,,0,12,12,12,,,,,,,,,,,,,,,,,,,,,,,,,,,,,,,,,,,,,,,,,,,220.04079005500535,None,2,0.6881665490218438,220.04079005500535,None,,,,,,,,,,,,,,,,None,None,None,,None,None,220.77442072395934,None,3,1,0.783684320980683,220.77442072395934,None,221.55753298808705,None,None,None,None,,37,001,2023_Jan_30_1419,searchDisc5,2021.2.3,59.964561902684764,
images/exp1a_trial_128_colour1_distractors1_r.png,r,3,1,1,0,,,,,0,13,13,13,,,,,,,,,,,,,,,,,,,,,,,,,,,,,,,,,,,,,,,,,,,221.57575819996418,None,2,0.5718375369906425,221.57575819996418,None,,,,,,,,,,,,,,,,None,None,None,,None,None,222.19076170498738,None,3,1,0.9032689210143872,222.19076170498738,None,223.0906442171021,None,None,None,None,,37,001,2023_Jan_30_1419,searchDisc5,2021.2.3,59.964561902684764,
images/exp2c_trial_313_colour3_distractors1_l.png,l,1,3,1,0,,,,,0,14,14,14,,,,,,,,,,,,,,,,,,,,,,,,,,,,,,,,,,,,,,,,,,,223.10744332900504,None,2,0.5206851830007508,223.10744332900504,None,,,,,,,,,,,,,,,,None,None,None,,None,None,223.67661960300757,None,1,1,0.7056830740184523,223.67661960300757,None,224.37399476307328,None,None,None,None,,37,001,2023_Jan_30_1419,searchDisc5,2021.2.3,59.964561902684764,
images/exp2a_trial_229_colour2_distractors1_r.png,r,3,2,1,0,,,,,0,15,15,15,,,,,,,,,,,,,,,,,,,,,,,,,,,,,,,,,,,,,,,,,,,224.39234056300484,None,2,0.5237950939917937,224.39234056300484,None,,,,,,,,,,,,,,,,None,None,None,,None,None,224.9600502270041,None,3,1,0.71890702995006,224.9600502270041,None,225.67446139606764,None,None,None,None,,37,001,2023_Jan_30_1419,searchDisc5,2021.2.3,59.964561902684764,
images/exp2b_trial_271_colour1_distractors1_l.png,l,1,1,1,0,,,,,0,16,16,16,,,,,,,,,,,,,,,,,,,,,,,,,,,,,,,,,,,,,,,,,,,225.69073773099808,None,2,0.5230609599966556,225.69073773099808,None,,,,,,,,,,,,,,,,None,None,None,,None,None,226.25997417297913,None,1,1,1.0349394719814882,226.25997417297913,None,227.29143218708342,None,None,None,None,,37,001,2023_Jan_30_1419,searchDisc5,2021.2.3,59.964561902684764,
images/exp2c_trial_177_colour1_distractors9_l.png,l,1,1,9,0,,,,,0,17,17,17,,,,,,,,,,,,,,,,,,,,,,,,,,,,,,,,,,,,,,,,,,,227.30981051700655,None,2,0.6541730719618499,227.30981051700655,None,,,,,,,,,,,,,,,,None,None,None,,None,None,228.00796533300309,None,1,1,0.7716149940388277,228.00796533300309,None,228.77441745205434,None,None,None,None,,37,001,2023_Jan_30_1419,searchDisc5,2021.2.3,59.964561902684764,
images/exp2a_trial_296_colour2_distractors19_r.png,r,3,2,19,0,,,,,0,18,18,18,,,,,,,,,,,,,,,,,,,,,,,,,,,,,,,,,,,,,,,,,,,228.7907843309804,None,2,0.48760774004040286,228.7907843309804,None,,,,,,,,,,,,,,,,None,None,None,,None,None,229.3246053669718,None,3,1,0.9647511139628477,229.3246053669718,None,230.29106447205996,None,None,None,None,,37,001,2023_Jan_30_1419,searchDisc5,2021.2.3,59.964561902684764,
images/exp2b_trial_39_colour2_distractors9_r.png,r,3,2,9,0,,,,,0,19,19,19,,,,,,,,,,,,,,,,,,,,,,,,,,,,,,,,,,,,,,,,,,,230.3071797779994,None,2,0.5379404510022141,230.3071797779994,None,,,,,,,,,,,,,,,,None,None,None,,None,None,230.89283841697033,None,3,1,0.8030528820236214,230.89283841697033,None,231.6905365730694,None,None,None,None,,37,001,2023_Jan_30_1419,searchDisc5,2021.2.3,59.964561902684764,
images/exp1a_trial_13_colour3_distractors19_r.png,r,3,3,19,0,,,,,0,20,20,20,,,,,,,,,,,,,,,,,,,,,,,,,,,,,,,,,,,,,,,,,,,231.707796002971,None,2,0.406476759002544,231.707796002971,None,,,,,,,,,,,,,,,,None,None,None,,None,None,232.15999561198987,None,3,1,0.7831080220057629,232.15999561198987,None,232.94109005906503,None,None,None,None,,37,001,2023_Jan_30_1419,searchDisc5,2021.2.3,59.964561902684764,
images/exp2b_trial_195_colour1_distractors19_r.png,r,3,1,19,0,,,,,0,21,21,21,,,,,,,,,,,,,,,,,,,,,,,,,,,,,,,,,,,,,,,,,,,232.9576235860004,None,2,0.38778640201780945,232.9576235860004,None,,,,,,,,,,,,,,,,None,None,None,,None,None,233.3907387019717,None,3,1,0.9032264709821902,233.3907387019717,None,234.29057583807153,None,None,None,None,,37,001,2023_Jan_30_1419,searchDisc5,2021.2.3,59.964561902684764,
images/exp2a_trial_204_colour3_distractors9_r.png,r,3,3,9,0,,,,,0,22,22,22,,,,,,,,,,,,,,,,,,,,,,,,,,,,,,,,,,,,,,,,,,,234.30790530896047,None,2,0.33787035098066553,234.30790530896047,None,,,,,,,,,,,,,,,,None,None,None,,None,None,234.69141892896732,None,3,1,0.8218418820179068,234.69141892896732,None,235.50782647810993,None,None,None,None,,37,001,2023_Jan_30_1419,searchDisc5,2021.2.3,59.964561902684764,
images/exp1a_trial_311_colour2_distractors19_l.png,l,1,2,19,0,,,,,0,23,23,23,,,,,,,,,,,,,,,,,,,,,,,,,,,,,,,,,,,,,,,,,,,235.52396355598466,None,2,0.2875888179987669,235.52396355598466,None,,,,,,,,,,,,,,,,None,None,None,,None,None,235.85753619699972,None,1,1,0.8682509930222295,235.85753619699972,None,236.7245237270894,None,None,None,None,,37,001,2023_Jan_30_1419,searchDisc5,2021.2.3,59.964561902684764,
images/exp2c_trial_204_colour3_distractors9_r.png,r,3,3,9,0,,,,,0,24,24,24,,,,,,,,,,,,,,,,,,,,,,,,,,,,,,,,,,,,,,,,,,,236.74075265199644,None,2,0.32138662395300344,236.74075265199644,None,,,,,,,,,,,,,,,,None,None,None,,None,None,237.10807475296315,None,3,1,0.8542546189855784,237.10807475296315,None,237.95782623609412,None,None,None,None,,37,001,2023_Jan_30_1419,searchDisc5,2021.2.3,59.964561902684764,
images/exp2a_trial_88_colour2_distractors31_l.png,l,1,2,31,0,,,,,0,25,25,25,,,,,,,,,,,,,,,,,,,,,,,,,,,,,,,,,,,,,,,,,,,237.9744868199923,None,2,0.3713758459780365,237.9744868199923,None,,,,,,,,,,,,,,,,None,None,None,,None,None,238.3908379309578,None,1,1,1.5120091930148192,238.3908379309578,None,239.90798988706084,None,None,None,None,,37,001,2023_Jan_30_1419,searchDisc5,2021.2.3,59.964561902684764,
images/exp2a_trial_189_colour3_distractors31_l.png,l,1,3,31,0,,,,,0,26,26,26,,,,,,,,,,,,,,,,,,,,,,,,,,,,,,,,,,,,,,,,,,,239.92681787296897,None,2,0.3897197630139999,239.92681787296897,None,,,,,,,,,,,,,,,,None,None,None,,None,None,240.3597084339708,None,1,1,1.0840794440009631,240.3597084339708,None,241.44148282608367,None,None,None,None,,37,001,2023_Jan_30_1419,searchDisc5,2021.2.3,59.964561902684764,
images/exp1a_trial_57_colour3_distractors1_l.png,l,1,3,1,0,,,,,0,27,27,27,,,,,,,,,,,,,,,,,,,,,,,,,,,,,,,,,,,,,,,,,,,241.45811881299596,None,2,0.38789832004113123,241.45811881299596,None,,,,,,,,,,,,,,,,None,None,None,,None,None,241.8930191799882,None,1,1,0.8411568829906173,241.8930191799882,None,242.72476911009872,None,None,None,None,,37,001,2023_Jan_30_1419,searchDisc5,2021.2.3,59.964561902684764,
images/exp2a_trial_73_colour2_distractors31_r.png,r,3,2,31,0,,,,,0,28,28,28,,,,,,,,,,,,,,,,,,,,,,,,,,,,,,,,,,,,,,,,,,,242.74093752499903,None,2,0.3861348520149477,242.74093752499903,None,,,,,,,,,,,,,,,,None,None,None,,None,None,243.17944940400776,None,3,1,0.8781463920022361,243.17944940400776,None,244.05737258907757,None,None,None,None,,37,001,2023_Jan_30_1419,searchDisc5,2021.2.3,59.964561902684764,
images/exp2c_trial_242_colour1_distractors19_l.png,l,1,1,19,0,,,,,0,29,29,29,,,,,,,,,,,,,,,,,,,,,,,,,,,,,,,,,,,,,,,,,,,244.0746204549796,None,2,0.38865152501966804,244.0746204549796,None,,,,,,,,,,,,,,,,None,None,None,,None,None,244.5104671479785,None,1,1,1.1717152479686774,244.5104671479785,None,245.6748416880786,None,None,None,None,,37,001,2023_Jan_30_1419,searchDisc5,2021.2.3,59.964561902684764,
images/exp2b_trial_278_colour2_distractors9_l.png,l,1,2,9,0,,,,,0,30,30,30,,,,,,,,,,,,,,,,,,,,,,,,,,,,,,,,,,,,,,,,,,,245.69080050499178,None,2,0.40526997699635103,245.69080050499178,None,,,,,,,,,,,,,,,,None,None,None,,None,None,246.1439001300023,None,1,1,0.9365840430255048,246.1439001300023,None,247.07489816210582,None,None,None,None,,37,001,2023_Jan_30_1419,searchDisc5,2021.2.3,59.964561902684764,
images/exp2a_trial_41_colour2_distractors31_r.png,r,3,2,31,0,,,,,0,31,31,31,,,,,,,,,,,,,,,,,,,,,,,,,,,,,,,,,,,,,,,,,,,247.09304351900937,None,2,0.3891487880027853,247.09304351900937,None,,,,,,,,,,,,,,,,None,None,None,,None,None,247.53157439199276,None,3,1,1.5789069490274414,247.53157439199276,None,249.10817391210585,None,None,None,None,,37,001,2023_Jan_30_1419,searchDisc5,2021.2.3,59.964561902684764,
images/exp2c_trial_134_colour2_distractors4_r.png,r,3,2,4,0,,,,,0,32,32,32,,,,,,,,,,,,,,,,,,,,,,,,,,,,,,,,,,,,,,,,,,,249.12457281100797,None,2,0.30263662699144334,249.12457281100797,None,,,,,,,,,,,,,,,,None,None,None,,None,None,249.47526251297677,None,3,1,0.7051604469888844,249.47526251297677,None,250.17495288508363,None,None,None,None,,37,001,2023_Jan_30_1419,searchDisc5,2021.2.3,59.964561902684764,
images/exp2c_trial_308_colour2_distractors1_l.png,l,1,2,1,0,,,,,0,33,33,33,,,,,,,,,,,,,,,,,,,,,,,,,,,,,,,,,,,,,,,,,,,250.19110132200876,None,2,0.5213745459914207,250.19110132200876,None,,,,,,,,,,,,,,,,None,None,None,,None,None,250.7605712239747,None,1,1,0.8721360630006529,250.7605712239747,None,251.62480536109652,None,None,None,None,,37,001,2023_Jan_30_1419,searchDisc5,2021.2.3,59.964561902684764,
images/exp2c_trial_37_colour2_distractors1_r.png,r,3,2,1,0,,,,,0,34,34,34,,,,,,,,,,,,,,,,,,,,,,,,,,,,,,,,,,,,,,,,,,,251.64340563298902,None,2,0.4397882170160301,251.64340563298902,None,,,,,,,,,,,,,,,,None,None,None,,None,None,252.12526277499273,None,3,1,0.8367799819679931,252.12526277499273,None,252.95832849707804,None,None,None,None,,37,001,2023_Jan_30_1419,searchDisc5,2021.2.3,59.964561902684764,
images/exp2a_trial_195_colour1_distractors19_r.png,r,3,1,19,0,,,,,0,35,35,35,,,,,,,,,,,,,,,,,,,,,,,,,,,,,,,,,,,,,,,,,,,252.97456681897165,None,2,2.7733066030195914,252.97456681897165,None,,,,,,,,,,,,,,,,None,None,None,,None,None,255.7939568280126,None,3,1,0.7181119879824109,255.7939568280126,None,256.50856162410344,None,None,None,None,,37,001,2023_Jan_30_1419,searchDisc5,2021.2.3,59.964561902684764,
images/exp2a_trial_124_colour3_distractors19_l.png,l,1,3,19,0,,,,,0,36,36,36,,,,,,,,,,,,,,,,,,,,,,,,,,,,,,,,,,,,,,,,,,,256.5251183239743,None,2,1.254452001012396,256.5251183239743,None,,,,,,,,,,,,,,,,None,None,None,,None,None,257.8252346399822,None,1,1,0.7369381680036895,257.8252346399822,None,258.5586170470982,None,None,None,None,,37,001,2023_Jan_30_1419,searchDisc5,2021.2.3,59.964561902684764,
images/exp2a_trial_203_colour3_distractors4_r.png,r,3,3,4,0,,,,,0,37,37,37,,,,,,,,,,,,,,,,,,,,,,,,,,,,,,,,,,,,,,,,,,,258.57517217699206,None,2,0.5045332480221987,258.57517217699206,None,,,,,,,,,,,,,,,,None,None,None,,None,None,259.12533400399843,None,3,1,0.9046681320178322,259.12533400399843,None,260.0246321820945,None,None,None,None,,37,001,2023_Jan_30_1419,searchDisc5,2021.2.3,59.964561902684764,
images/exp2c_trial_21_colour2_distractors4_l.png,l,1,2,4,0,,,,,0,38,38,38,,,,,,,,,,,,,,,,,,,,,,,,,,,,,,,,,,,,,,,,,,,260.0413742259843,None,2,0.48767745902296156,260.0413742259843,None,,,,,,,,,,,,,,,,None,None,None,,None,None,260.5755097299698,None,1,1,0.7056519229663536,260.5755097299698,None,261.27478331607415,None,None,None,None,,37,001,2023_Jan_30_1419,searchDisc5,2021.2.3,59.964561902684764,
images/exp2a_trial_281_colour3_distractors1_l.png,l,1,3,1,0,,,,,0,39,39,39,,,,,,,,,,,,,,,,,,,,,,,,,,,,,,,,,,,,,,,,,,,261.2912636040128,None,2,0.4053195610176772,261.2912636040128,None,,,,,,,,,,,,,,,,None,None,None,,None,None,261.74429885996506,None,1,1,0.8392232559854165,261.74429885996506,None,262.57550325105547,None,None,None,None,,37,001,2023_Jan_30_1419,searchDisc5,2021.2.3,59.964561902684764,
images/exp1a_trial_38_colour2_distractors4_r.png,r,3,2,4,0,,,,,0,40,40,40,,,,,,,,,,,,,,,,,,,,,,,,,,,,,,,,,,,,,,,,,,,262.5917542990064,None,2,0.37105070700636134,262.5917542990064,None,,,,,,,,,,,,,,,,None,None,None,,None,None,263.01073576998897,None,3,1,0.7043474639649503,263.01073576998897,None,263.70871535508775,None,None,None,None,,37,001,2023_Jan_30_1419,searchDisc5,2021.2.3,59.964561902684764,
images/exp2a_trial_291_colour1_distractors19_r.png,r,3,1,19,0,,,,,0,41,41,41,,,,,,,,,,,,,,,,,,,,,,,,,,,,,,,,,,,,,,,,,,,263.7252937039593,None,2,0.3713554340065457,263.7252937039593,None,,,,,,,,,,,,,,,,None,None,None,,None,None,264.14231040200684,None,3,1,0.836425777990371,264.14231040200684,None,264.97545301606294,None,None,None,None,,37,001,2023_Jan_30_1419,searchDisc5,2021.2.3,59.964561902684764,
images/exp1a_trial_230_colour2_distractors4_r.png,r,3,2,4,0,,,,,0,42,42,42,,,,,,,,,,,,,,,,,,,,,,,,,,,,,,,,,,,,,,,,,,,264.99205674999394,None,2,0.3042305930284783,264.99205674999394,None,,,,,,,,,,,,,,,,None,None,None,,None,None,265.34244710596977,None,3,1,1.1048042720067315,265.34244710596977,None,266.44206761511157,None,None,None,None,,37,001,2023_Jan_30_1419,searchDisc5,2021.2.3,59.964561902684764,
images/exp1a_trial_50_colour1_distractors19_l.png,l,1,1,19,0,,,,,0,43,43,43,,,,,,,,,,,,,,,,,,,,,,,,,,,,,,,,,,,,,,,,,,,266.4583539189771,None,2,0.35658222303027287,266.4583539189771,None,,,,,,,,,,,,,,,,None,None,None,,None,None,266.8589011479635,None,1,1,1.0017437770147808,266.8589011479635,None,267.8588811350695,None,None,None,None,,37,001,2023_Jan_30_1419,searchDisc5,2021.2.3,59.964561902684764,
images/exp2b_trial_163_colour1_distractors19_r.png,r,3,1,19,0,,,,,0,44,44,44,,,,,,,,,,,,,,,,,,,,,,,,,,,,,,,,,,,,,,,,,,,267.87714302999666,None,2,0.36925256403628737,267.87714302999666,None,,,,,,,,,,,,,,,,None,None,None,,None,None,268.2944235309842,None,3,1,0.9031767229898833,268.2944235309842,None,269.19217542006515,None,None,None,None,,37,001,2023_Jan_30_1419,searchDisc5,2021.2.3,59.964561902684764,
images/exp2c_trial_206_colour3_distractors31_r.png,r,3,3,31,0,,,,,0,45,45,45,,,,,,,,,,,,,,,,,,,,,,,,,,,,,,,,,,,,,,,,,,,269.20876393897925,None,2,0.37119837902719155,269.20876393897925,None,,,,,,,,,,,,,,,,None,None,None,,None,None,269.6272441140027,None,3,1,0.8373183130170219,269.6272441140027,None,270.4587984730664,None,None,None,None,,37,001,2023_Jan_30_1419,searchDisc5,2021.2.3,59.964561902684764,
images/exp2c_trial_19_colour1_distractors31_l.png,l,1,1,31,0,,,,,0,46,46,46,,,,,,,,,,,,,,,,,,,,,,,,,,,,,,,,,,,,,,,,,,,270.47587568697054,None,2,0.38754558097571135,270.47587568697054,None,,,,,,,,,,,,,,,,None,None,None,,None,None,270.9111706499825,None,1,1,1.134590013010893,270.9111706499825,None,272.04211208510094,None,None,None,None,,37,001,2023_Jan_30_1419,searchDisc5,2021.2.3,59.964561902684764,
images/exp2a_trial_157_colour3_distractors31_l.png,l,1,3,31,0,,,,,0,47,47,47,,,,,,,,,,,,,,,,,,,,,,,,,,,,,,,,,,,,,,,,,,,272.058410216996,None,2,0.38811021303990856,272.058410216996,None,,,,,,,,,,,,,,,,None,None,None,,None,None,272.4945458800066,None,1,1,1.3195013729855418,272.4945458800066,None,273.8089711860579,None,None,None,None,,37,001,2023_Jan_30_1419,searchDisc5,2021.2.3,59.964561902684764,
images/exp2b_trial_200_colour2_distractors19_r.png,r,3,2,19,0,,,,,0,48,48,48,,,,,,,,,,,,,,,,,,,,,,,,,,,,,,,,,,,,,,,,,,,273.82496637798613,None,2,0.40402745903702453,273.82496637798613,None,,,,,,,,,,,,,,,,None,None,None,,None,None,274.2773974050069,None,3,1,1.0363972390186973,274.2773974050069,None,275.3091002620698,None,None,None,None,,37,001,2023_Jan_30_1419,searchDisc5,2021.2.3,59.964561902684764,
images/exp2b_trial_153_colour3_distractors1_l.png,l,1,3,1,0,,,,,0,49,49,49,,,,,,,,,,,,,,,,,,,,,,,,,,,,,,,,,,,,,,,,,,,275.3252913239994,None,2,0.3711116330232471,275.3252913239994,None,,,,,,,,,,,,,,,,None,None,None,,None,None,275.74235687498003,None,1,1,1.0560642079799436,275.74235687498003,None,276.79233915306975,None,None,None,None,,37,001,2023_Jan_30_1419,searchDisc5,2021.2.3,59.964561902684764,
images/exp2c_trial_224_colour1_distractors1_r.png,r,3,1,1,0,,,,,0,50,50,50,,,,,,,,,,,,,,,,,,,,,,,,,,,,,,,,,,,,,,,,,,,276.8108929969603,None,2,0.3538799139787443,276.8108929969603,None,,,,,,,,,,,,,,,,None,None,None,,None,None,277.2112695929827,None,3,1,0.9895163140026852,277.2112695929827,None,278.1923679810774,None,None,None,None,,37,001,2023_Jan_30_1419,searchDisc5,2021.2.3,59.964561902684764,
images/exp2a_trial_137_colour2_distractors31_r.png,r,3,2,31,0,,,,,0,51,51,51,,,,,,,,,,,,,,,,,,,,,,,,,,,,,,,,,,,,,,,,,,,278.20864569797413,None,2,0.3880196089739911,278.20864569797413,None,,,,,,,,,,,,,,,,None,None,None,,None,None,278.64631845697295,None,3,1,1.063035249011591,278.64631845697295,None,279.70911475405444,None,None,None,None,,37,001,2023_Jan_30_1419,searchDisc5,2021.2.3,59.964561902684764,
images/exp2b_trial_75_colour3_distractors4_r.png,r,3,3,4,0,,,,,0,52,52,52,,,,,,,,,,,,,,,,,,,,,,,,,,,,,,,,,,,,,,,,,,,279.72620253497735,None,2,0.38990741403540596,279.72620253497735,None,,,,,,,,,,,,,,,,None,None,None,,None,None,280.1613534159842,None,3,1,0.9720959769911133,280.1613534159842,None,281.12593087007406,None,None,None,None,,37,001,2023_Jan_30_1419,searchDisc5,2021.2.3,59.964561902684764,
images/exp2c_trial_53_colour2_distractors4_l.png,l,1,2,4,0,,,,,0,53,53,53,,,,,,,,,,,,,,,,,,,,,,,,,,,,,,,,,,,,,,,,,,,281.1423133839853,None,2,0.3692587749683298,281.1423133839853,None,,,,,,,,,,,,,,,,None,None,None,,None,None,281.5590965989977,None,1,1,0.9890950960107148,281.5590965989977,None,282.54262355709795,None,None,None,None,,37,001,2023_Jan_30_1419,searchDisc5,2021.2.3,59.964561902684764,
images/exp2b_trial_18_colour1_distractors19_l.png,l,1,1,19,0,,,,,0,54,54,54,,,,,,,,,,,,,,,,,,,,,,,,,,,,,,,,,,,,,,,,,,,282.5591509579681,None,2,0.4042609600001015,282.5591509579681,None,,,,,,,,,,,,,,,,None,None,None,,None,None,283.01157515496016,None,1,1,1.1718490660423413,283.01157515496016,None,284.17589725810683,None,None,None,None,,37,001,2023_Jan_30_1419,searchDisc5,2021.2.3,59.964561902684764,
images/exp1a_trial_132_colour1_distractors31_r.png,r,3,1,31,0,,,,,0,55,55,55,,,,,,,,,,,,,,,,,,,,,,,,,,,,,,,,,,,,,,,,,,,284.19263724196935,None,2,0.4220877199550159,284.19263724196935,None,,,,,,,,,,,,,,,,None,None,None,,None,None,284.66311190498527,None,3,1,1.3295358920004219,284.66311190498527,None,285.99249190610715,None,None,None,None,,37,001,2023_Jan_30_1419,searchDisc5,2021.2.3,59.964561902684764,
images/exp2a_trial_2_colour1_distractors9_r.png,r,3,1,9,0,,,,,0,56,56,56,,,,,,,,,,,,,,,,,,,,,,,,,,,,,,,,,,,,,,,,,,,286.0092927219812,None,2,0.4417991840164177,286.0092927219812,None,,,,,,,,,,,,,,,,None,None,None,,None,None,286.4923538939911,None,3,1,0.9675751400063746,286.4923538939911,None,287.45937899308626,None,None,None,None,,37,001,2023_Jan_30_1419,searchDisc5,2021.2.3,59.964561902684764,
images/exp1a_trial_294_colour2_distractors4_r.png,r,3,2,4,0,,,,,0,57,57,57,,,,,,,,,,,,,,,,,,,,,,,,,,,,,,,,,,,,,,,,,,,287.4759548319853,None,2,0.4732425439869985,287.4759548319853,None,,,,,,,,,,,,,,,,None,None,None,,None,None,287.994445807999,None,3,1,0.8528376610483974,287.994445807999,None,288.84283907007773,None,None,None,None,,37,001,2023_Jan_30_1419,searchDisc5,2021.2.3,59.964561902684764,
images/exp1a_trial_40_colour2_distractors19_r.png,r,3,2,19,0,,,,,0,58,58,58,,,,,,,,,,,,,,,,,,,,,,,,,,,,,,,,,,,,,,,,,,,288.8614588099881,None,2,0.37063555599888787,288.8614588099881,None,,,,,,,,,,,,,,,,None,None,None,,None,None,289.27815873600775,None,3,1,0.7347477299626917,289.27815873600775,None,290.0094620640797,None,None,None,None,,37,001,2023_Jan_30_1419,searchDisc5,2021.2.3,59.964561902684764,
images/exp2c_trial_294_colour2_distractors4_r.png,r,3,2,4,0,,,,,0,59,59,59,,,,,,,,,,,,,,,,,,,,,,,,,,,,,,,,,,,,,,,,,,,290.02609096100787,None,2,0.3209686510381289,290.02609096100787,None,,,,,,,,,,,,,,,,None,None,None,,None,None,290.3925397779676,None,3,1,0.8552302549942397,290.3925397779676,None,291.24280198605845,None,None,None,None,,37,001,2023_Jan_30_1419,searchDisc5,2021.2.3,59.964561902684764,
images/exp2a_trial_234_colour3_distractors1_r.png,r,3,3,1,0,,,,,0,60,60,60,,,,,,,,,,,,,,,,,,,,,,,,,,,,,,,,,,,,,,,,,,,291.25900346098933,None,2,0.27115194901125506,291.25900346098933,None,,,,,,,,,,,,,,,,None,None,None,,None,None,291.57631969900103,None,3,1,0.5890861540101469,291.57631969900103,None,292.1593066090776,None,None,None,None,,37,001,2023_Jan_30_1419,searchDisc5,2021.2.3,59.964561902684764,
images/exp1a_trial_82_colour1_distractors19_l.png,l,1,1,19,0,,,,,0,61,61,61,,,,,,,,,,,,,,,,,,,,,,,,,,,,,,,,,,,,,,,,,,,292.1760949239833,None,2,0.30461774504510686,292.1760949239833,None,,,,,,,,,,,,,,,,None,None,None,,None,None,292.5264325059834,None,1,1,0.7182871389668435,292.5264325059834,None,293.24277945806386,None,None,None,None,,37,001,2023_Jan_30_1419,searchDisc5,2021.2.3,59.964561902684764,
images/exp2a_trial_173_colour3_distractors19_r.png,r,3,3,19,0,,,,,0,62,62,62,,,,,,,,,,,,,,,,,,,,,,,,,,,,,,,,,,,,,,,,,,,293.25916865997715,None,2,0.2730771820060909,293.25916865997715,None,,,,,,,,,,,,,,,,None,None,None,,None,None,293.57618230197113,None,3,1,0.6847243019728921,293.57618230197113,None,294.25974802306735,None,None,None,None,,37,001,2023_Jan_30_1419,searchDisc5,2021.2.3,59.964561902684764,
images/exp2c_trial_4_colour1_distractors31_r.png,r,3,1,31,0,,,,,0,63,63,63,,,,,,,,,,,,,,,,,,,,,,,,,,,,,,,,,,,,,,,,,,,294.2778071530047,None,2,0.2722116240183823,294.2778071530047,None,,,,,,,,,,,,,,,,None,None,None,,None,None,294.59309271199163,None,3,1,0.7014200969715603,294.59309271199163,None,295.2925342390721,None,None,None,None,,37,001,2023_Jan_30_1419,searchDisc5,2021.2.3,59.964561902684764,
images/exp1a_trial_242_colour1_distractors19_l.png,l,1,1,19,0,,,,,0,64,64,64,,,,,,,,,,,,,,,,,,,,,,,,,,,,,,,,,,,,,,,,,,,295.3088055829867,None,2,0.3197125840233639,295.3088055829867,None,,,,,,,,,,,,,,,,None,None,None,,None,None,295.67636793799466,None,1,1,0.7347668880247511,295.67636793799466,None,296.409525360103,None,None,None,None,,37,001,2023_Jan_30_1419,searchDisc5,2021.2.3,59.964561902684764,
images/exp2c_trial_136_colour2_distractors19_r.png,r,3,2,19,0,,,,,0,65,65,65,,,,,,,,,,,,,,,,,,,,,,,,,,,,,,,,,,,,,,,,,,,296.4258259200142,None,2,0.33784660598030314,296.4258259200142,None,,,,,,,,,,,,,,,,None,None,None,,None,None,296.8100180379697,None,3,1,0.6699480229872279,296.8100180379697,None,297.4760800671123,None,None,None,None,,37,001,2023_Jan_30_1419,searchDisc5,2021.2.3,59.964561902684764,
images/exp2b_trial_273_colour1_distractors9_l.png,l,1,1,9,0,,,,,0,66,66,66,,,,,,,,,,,,,,,,,,,,,,,,,,,,,,,,,,,,,,,,,,,297.4929047090118,None,2,0.32139599503716454,297.4929047090118,None,,,,,,,,,,,,,,,,None,None,None,,None,None,297.85939730895916,None,1,1,0.9045059129712172,297.85939730895916,None,298.75961246708755,None,None,None,None,,37,001,2023_Jan_30_1419,searchDisc5,2021.2.3,59.964561902684764,
images/exp2b_trial_313_colour3_distractors1_l.png,l,1,3,1,0,,,,,0,67,67,67,,,,,,,,,,,,,,,,,,,,,,,,,,,,,,,,,,,,,,,,,,,298.7783515389892,None,2,0.32123291300376877,298.7783515389892,None,,,,,,,,,,,,,,,,None,None,None,,None,None,299.14319477800746,None,1,1,1.1245832619606517,299.14319477800746,None,300.25972299511193,None,None,None,None,,37,001,2023_Jan_30_1419,searchDisc5,2021.2.3,59.964561902684764,
images/exp1a_trial_120_colour2_distractors31_l.png,l,1,2,31,0,,,,,0,68,68,68,,,,,,,,,,,,,,,,,,,,,,,,,,,,,,,,,,,,,,,,,,,300.2784958629636,None,2,0.35421342705376446,300.2784958629636,None,,,,,,,,,,,,,,,,None,None,None,,None,None,300.6784985039849,None,1,1,0.9482558909803629,300.6784985039849,None,301.62646365207036,None,None,None,None,,37,001,2023_Jan_30_1419,searchDisc5,2021.2.3,59.964561902684764,
images/exp2a_trial_44_colour3_distractors9_r.png,r,3,3,9,0,,,,,0,69,69,69,,,,,,,,,,,,,,,,,,,,,,,,,,,,,,,,,,,,,,,,,,,301.6430582139874,None,2,0.337786347954534,301.6430582139874,None,,,,,,,,,,,,,,,,None,None,None,,None,None,302.026585339976,None,3,1,0.8222337960032746,302.026585339976,None,302.84308814810936,None,None,None,None,,37,001,2023_Jan_30_1419,searchDisc5,2021.2.3,59.964561902684764,
images/exp1a_trial_225_colour1_distractors4_r.png,r,3,1,4,0,,,,,0,70,70,70,,,,,,,,,,,,,,,,,,,,,,,,,,,,,,,,,,,,,,,,,,,302.8593208139646,None,2,0.3692573240259662,302.8593208139646,None,,,,,,,,,,,,,,,,None,None,None,,None,None,303.2767513070139,None,3,1,0.9218074249802157,303.2767513070139,None,304.1930429210828,None,None,None,None,,37,001,2023_Jan_30_1419,searchDisc5,2021.2.3,59.964561902684764,
images/exp2c_trial_297_colour2_distractors31_r.png,r,3,2,31,0,,,,,0,71,71,71,,,,,,,,,,,,,,,,,,,,,,,,,,,,,,,,,,,,,,,,,,,304.2097594239749,None,2,0.3380130059667863,304.2097594239749,None,,,,,,,,,,,,,,,,None,None,None,,None,None,304.592788836977,None,3,1,0.8195233279839158,304.592788836977,None,305.40994580905533,None,None,None,None,,37,001,2023_Jan_30_1419,searchDisc5,2021.2.3,59.964561902684764,
images/exp1a_trial_282_colour3_distractors4_l.png,l,1,3,4,0,,,,,0,72,72,72,,,,,,,,,,,,,,,,,,,,,,,,,,,,,,,,,,,,,,,,,,,305.42635546799283,None,2,0.3709142549778335,305.42635546799283,None,,,,,,,,,,,,,,,,None,None,None,,None,None,305.8434049789794,None,1,1,0.8548299979884177,305.8434049789794,None,306.69279715809387,None,None,None,None,,37,001,2023_Jan_30_1419,searchDisc5,2021.2.3,59.964561902684764,
images/exp2b_trial_118_colour2_distractors9_l.png,l,1,2,9,0,,,,,0,73,73,73,,,,,,,,,,,,,,,,,,,,,,,,,,,,,,,,,,,,,,,,,,,306.709803559992,None,2,0.356481007009279,306.709803559992,None,,,,,,,,,,,,,,,,None,None,None,,None,None,307.1120343809598,None,1,1,0.7361257669981569,307.1120343809598,None,307.84325036308144,None,None,None,None,,37,001,2023_Jan_30_1419,searchDisc5,2021.2.3,59.964561902684764,
images/exp2b_trial_268_colour3_distractors9_r.png,r,3,3,9,0,,,,,0,74,74,74,,,,,,,,,,,,,,,,,,,,,,,,,,,,,,,,,,,,,,,,,,,307.8598472949816,None,2,0.3879204689874314,307.8598472949816,None,,,,,,,,,,,,,,,,None,None,None,,None,None,308.2951532659936,None,3,1,0.8716881970176473,308.2951532659936,None,309.15988317109293,None,None,None,None,,37,001,2023_Jan_30_1419,searchDisc5,2021.2.3,59.964561902684764,
images/exp1a_trial_135_colour2_distractors9_r.png,r,3,2,9,0,,,,,0,75,75,75,,,,,,,,,,,,,,,,,,,,,,,,,,,,,,,,,,,,,,,,,,,309.17677268898115,None,2,0.3884934340021573,309.17677268898115,None,,,,,,,,,,,,,,,,None,None,None,,None,None,309.6097203149693,None,3,1,0.9855888710008003,309.6097203149693,None,310.59296483710057,None,None,None,None,,37,001,2023_Jan_30_1419,searchDisc5,2021.2.3,59.964561902684764,
images/exp2b_trial_198_colour2_distractors4_r.png,r,3,2,4,0,,,,,0,76,76,76,,,,,,,,,,,,,,,,,,,,,,,,,,,,,,,,,,,,,,,,,,,310.6096884320141,None,2,0.3045977779547684,310.6096884320141,None,,,,,,,,,,,,,,,,None,None,None,,None,None,310.9602466719807,None,3,1,1.0053446050151251,310.9602466719807,None,311.9600388140592,None,None,None,None,,37,001,2023_Jan_30_1419,searchDisc5,2021.2.3,59.964561902684764,
images/exp2a_trial_108_colour3_distractors9_r.png,r,3,3,9,0,,,,,0,77,77,77,,,,,,,,,,,,,,,,,,,,,,,,,,,,,,,,,,,,,,,,,,,311.9767757990048,None,2,0.2882390449522063,311.9767757990048,None,,,,,,,,,,,,,,,,None,None,None,,None,None,312.31015252601355,None,3,1,0.9202229300281033,312.31015252601355,None,313.22659143509225,None,None,None,None,,37,001,2023_Jan_30_1419,searchDisc5,2021.2.3,59.964561902684764,
images/exp2b_trial_292_colour1_distractors31_r.png,r,3,1,31,0,,,,,0,78,78,78,,,,,,,,,,,,,,,,,,,,,,,,,,,,,,,,,,,,,,,,,,,313.2452325319755,None,2,0.32109096099156886,313.2452325319755,None,,,,,,,,,,,,,,,,None,None,None,,None,None,313.60968157701427,None,3,1,1.002937134995591,313.60968157701427,None,314.6101218460884,None,None,None,None,,37,001,2023_Jan_30_1419,searchDisc5,2021.2.3,59.964561902684764,
images/exp1a_trial_56_colour2_distractors31_l.png,l,1,2,31,0,,,,,0,79,79,79,,,,,,,,,,,,,,,,,,,,,,,,,,,,,,,,,,,,,,,,,,,314.62839717400493,None,2,0.30461509397719055,314.62839717400493,None,,,,,,,,,,,,,,,,None,None,None,,None,None,314.9769749189727,None,1,1,0.9666774569777772,314.9769749189727,None,315.9436420140613,None,None,None,None,,37,001,2023_Jan_30_1419,searchDisc5,2021.2.3,59.964561902684764,
images/exp1a_trial_315_colour3_distractors9_l.png,l,1,3,9,0,,,,,0,80,80,80,,,,,,,,,,,,,,,,,,,,,,,,,,,,,,,,,,,,,,,,,,,315.96010685298825,None,2,0.3368154299678281,315.96010685298825,None,,,,,,,,,,,,,,,,None,None,None,,None,None,316.3433910519816,None,1,1,0.9515118940034881,316.3433910519816,None,317.2935543930565,None,None,None,None,,37,001,2023_Jan_30_1419,searchDisc5,2021.2.3,59.964561902684764,
images/exp2b_trial_294_colour2_distractors4_r.png,r,3,2,4,0,,,,,0,81,81,81,,,,,,,,,,,,,,,,,,,,,,,,,,,,,,,,,,,,,,,,,,,317.310181267967,None,2,0.4038926940411329,317.310181267967,None,,,,,,,,,,,,,,,,None,None,None,,None,None,317.76249558397103,None,3,1,1.0057089990004897,317.76249558397103,None,318.75997818506437,None,None,None,None,,37,001,2023_Jan_30_1419,searchDisc5,2021.2.3,59.964561902684764,
images/exp2b_trial_167_colour2_distractors9_r.png,r,3,2,9,0,,,,,0,82,82,82,,,,,,,,,,,,,,,,,,,,,,,,,,,,,,,,,,,,,,,,,,,318.77642355597345,None,2,0.30666063801618293,318.77642355597345,None,,,,,,,,,,,,,,,,None,None,None,,None,None,319.1273609699565,None,3,1,1.1363995089777745,319.1273609699565,None,320.2602952380606,None,None,None,None,,37,001,2023_Jan_30_1419,searchDisc5,2021.2.3,59.964561902684764,
images/exp1a_trial_287_colour0_distractors0_l.png,l,1,0,0,0,,,,,0,83,83,83,,,,,,,,,,,,,,,,,,,,,,,,,,,,,,,,,,,,,,,,,,,320.27665714896284,None,2,0.3376798810204491,320.27665714896284,None,,,,,,,,,,,,,,,,None,None,None,,None,None,320.66052820096957,None,1,1,0.8896698630414903,320.66052820096957,None,321.5437370711064,None,None,None,None,,37,001,2023_Jan_30_1419,searchDisc5,2021.2.3,59.964561902684764,
images/exp2b_trial_319_colour0_distractors0_l.png,l,1,0,0,0,,,,,0,84,84,84,,,,,,,,,,,,,,,,,,,,,,,,,,,,,,,,,,,,,,,,,,,321.5595914699952,None,2,0.35401075199479237,321.5595914699952,None,,,,,,,,,,,,,,,,None,None,None,,None,None,321.9626103309565,None,1,1,0.8737605700152926,321.9626103309565,None,322.8268775330565,None,None,None,None,,37,001,2023_Jan_30_1419,searchDisc5,2021.2.3,59.964561902684764,
images/exp2b_trial_211_colour1_distractors31_l.png,l,1,1,31,0,,,,,0,85,85,85,,,,,,,,,,,,,,,,,,,,,,,,,,,,,,,,,,,,,,,,,,,322.8456082929624,None,2,0.3704978759633377,322.8456082929624,None,,,,,,,,,,,,,,,,None,None,None,,None,None,323.2625856169616,None,1,1,0.9214851630385965,323.2625856169616,None,324.17700522608936,None,None,None,None,,37,001,2023_Jan_30_1419,searchDisc5,2021.2.3,59.964561902684764,
images/exp2a_trial_93_colour3_distractors31_l.png,l,1,3,31,0,,,,,0,86,86,86,,,,,,,,,,,,,,,,,,,,,,,,,,,,,,,,,,,,,,,,,,,324.1930350380135,None,2,0.31979414698434994,324.1930350380135,None,,,,,,,,,,,,,,,,None,None,None,,None,None,324.56062954099616,None,1,1,0.7374844299629331,324.56062954099616,None,325.2936909601034,None,None,None,None,,37,001,2023_Jan_30_1419,searchDisc5,2021.2.3,59.964561902684764,
images/exp2b_trial_119_colour2_distractors19_l.png,l,1,2,19,0,,,,,0,87,87,87,,,,,,,,,,,,,,,,,,,,,,,,,,,,,,,,,,,,,,,,,,,325.31025266001234,None,2,0.37126923695905134,325.31025266001234,None,,,,,,,,,,,,,,,,None,None,None,,None,None,325.72723738400964,None,1,1,0.8056993500213139,325.72723738400964,None,326.526409712102,None,None,None,None,,37,001,2023_Jan_30_1419,searchDisc5,2021.2.3,59.964561902684764,
images/exp2a_trial_39_colour2_distractors9_r.png,r,3,2,9,0,,,,,0,88,88,88,,,,,,,,,,,,,,,,,,,,,,,,,,,,,,,,,,,,,,,,,,,326.54364481999073,None,2,0.303216642991174,326.54364481999073,None,,,,,,,,,,,,,,,,None,None,None,,None,None,326.89411481196294,None,3,1,0.851960564032197,326.89411481196294,None,327.7437168181117,None,None,None,None,,37,001,2023_Jan_30_1419,searchDisc5,2021.2.3,59.964561902684764,
images/exp1a_trial_146_colour1_distractors19_l.png,l,1,1,19,0,,,,,0,89,89,89,,,,,,,,,,,,,,,,,,,,,,,,,,,,,,,,,,,,,,,,,,,327.76019226398785,None,2,0.3710823589935899,327.76019226398785,None,,,,,,,,,,,,,,,,None,None,None,,None,None,328.1786124620121,None,1,1,2.3353323560440913,328.1786124620121,None,330.51058929408316,None,None,None,None,,37,001,2023_Jan_30_1419,searchDisc5,2021.2.3,59.964561902684764,
images/exp2a_trial_7_colour2_distractors9_r.png,r,3,2,9,0,,,,,0,90,90,90,,,,,,,,,,,,,,,,,,,,,,,,,,,,,,,,,,,,,,,,,,,330.5272392889601,None,2,0.3897414170205593,330.5272392889601,None,,,,,,,,,,,,,,,,None,None,None,,None,None,330.96276824898086,None,3,1,0.9345683489809744,330.96276824898086,None,331.89385535708277,None,None,None,None,,37,001,2023_Jan_30_1419,searchDisc5,2021.2.3,59.964561902684764,
images/exp2a_trial_156_colour3_distractors19_l.png,l,1,3,19,0,,,,,0,91,91,91,,,,,,,,,,,,,,,,,,,,,,,,,,,,,,,,,,,,,,,,,,,331.9120630910038,None,2,0.3692304019932635,331.9120630910038,None,,,,,,,,,,,,,,,,None,None,None,,None,None,332.32894019497326,None,1,1,1.0230350730125792,332.32894019497326,None,333.34392825805696,None,None,None,None,,37,001,2023_Jan_30_1419,searchDisc5,2021.2.3,59.964561902684764,
images/exp2a_trial_14_colour3_distractors31_r.png,r,3,3,31,0,,,,,0,92,92,92,,,,,,,,,,,,,,,,,,,,,,,,,,,,,,,,,,,,,,,,,,,333.36205132998293,None,2,0.3029642319888808,333.36205132998293,None,,,,,,,,,,,,,,,,None,None,None,,None,None,333.71027076698374,None,3,1,0.8199804660398513,333.71027076698374,None,334.5271812781051,None,None,None,None,,37,001,2023_Jan_30_1419,searchDisc5,2021.2.3,59.964561902684764,
images/exp2b_trial_13_colour3_distractors19_r.png,r,3,3,19,0,,,,,0,93,93,93,,,,,,,,,,,,,,,,,,,,,,,,,,,,,,,,,,,,,,,,,,,334.54391423997004,None,2,0.30558443104382604,334.54391423997004,None,,,,,,,,,,,,,,,,None,None,None,,None,None,334.894386697968,None,3,1,0.8861472230055369,334.894386697968,None,335.777041208063,None,None,None,None,,37,001,2023_Jan_30_1419,searchDisc5,2021.2.3,59.964561902684764,
images/exp1a_trial_201_colour2_distractors31_r.png,r,3,2,31,0,,,,,0,94,94,94,,,,,,,,,,,,,,,,,,,,,,,,,,,,,,,,,,,,,,,,,,,335.7936933559831,None,2,0.3880192610085942,335.7936933559831,None,,,,,,,,,,,,,,,,None,None,None,,None,None,336.22962711699074,None,3,1,0.8162294899811968,336.22962711699074,None,337.0440143501095,None,None,None,None,,37,001,2023_Jan_30_1419,searchDisc5,2021.2.3,59.964561902684764,
images/exp1a_trial_277_colour2_distractors4_l.png,l,1,2,4,0,,,,,0,95,95,95,,,,,,,,,,,,,,,,,,,,,,,,,,,,,,,,,,,,,,,,,,,337.060549937014,None,2,0.3544262939831242,337.060549937014,None,,,,,,,,,,,,,,,,None,None,None,,None,None,337.4607887970051,None,1,1,0.839194594998844,337.4607887970051,None,338.29401856009497,None,None,None,None,,37,001,2023_Jan_30_1419,searchDisc5,2021.2.3,59.964561902684764,
images/exp2a_trial_131_colour1_distractors19_r.png,r,3,1,19,0,,,,,0,96,96,96,,,,,,,,,,,,,,,,,,,,,,,,,,,,,,,,,,,,,,,,,,,338.31058067298727,None,2,0.3376092339749448,338.31058067298727,None,,,,,,,,,,,,,,,,None,None,None,,None,None,338.69451338099316,None,3,1,0.8540091650211252,338.69451338099316,None,339.5441409701074,None,None,None,None,,37,001,2023_Jan_30_1419,searchDisc5,2021.2.3,59.964561902684764,
images/exp2c_trial_305_colour1_distractors9_l.png,l,1,1,9,0,,,,,0,97,97,97,,,,,,,,,,,,,,,,,,,,,,,,,,,,,,,,,,,,,,,,,,,339.5604670429602,None,2,0.35388421901734546,339.5604670429602,None,,,,,,,,,,,,,,,,None,None,None,,None,None,339.96114039595705,None,1,1,0.87277933297446,339.96114039595705,None,340.82766151609246,None,None,None,None,,37,001,2023_Jan_30_1419,searchDisc5,2021.2.3,59.964561902684764,
images/exp2a_trial_225_colour1_distractors4_r.png,r,3,1,4,0,,,,,0,98,98,98,,,,,,,,,,,,,,,,,,,,,,,,,,,,,,,,,,,,,,,,,,,340.84614851296647,None,2,0.3375989839551039,340.84614851296647,None,,,,,,,,,,,,,,,,None,None,None,,None,None,341.22915812797146,None,3,1,0.9228564180084504,341.22915812797146,None,342.1442559521005,None,None,None,None,,37,001,2023_Jan_30_1419,searchDisc5,2021.2.3,59.964561902684764,
images/exp2b_trial_63_colour0_distractors0_l.png,l,1,0,0,0,,,,,0,99,99,99,,,,,,,,,,,,,,,,,,,,,,,,,,,,,,,,,,,,,,,,,,,342.1608738299692,None,2,0.40444521501194686,342.1608738299692,None,,,,,,,,,,,,,,,,None,None,None,,None,None,342.61242842598585,None,1,1,0.9401185829774477,342.61242842598585,None,343.5441276040568,None,None,None,None,,37,001,2023_Jan_30_1419,searchDisc5,2021.2.3,59.964561902684764,
images/exp2c_trial_1_colour1_distractors4_r.png,r,3,1,4,0,,,,,0,100,100,100,,,,,,,,,,,,,,,,,,,,,,,,,,,,,,,,,,,,,,,,,,,343.560757550993,None,2,0.3375889949966222,343.560757550993,None,,,,,,,,,,,,,,,,None,None,None,,None,None,343.94442080898443,None,3,1,0.8733469999860972,343.94442080898443,None,344.8109246940643,None,None,None,None,,37,001,2023_Jan_30_1419,searchDisc5,2021.2.3,59.964561902684764,
images/exp2b_trial_57_colour3_distractors1_l.png,l,1,3,1,0,,,,,0,101,101,101,,,,,,,,,,,,,,,,,,,,,,,,,,,,,,,,,,,,,,,,,,,344.8293284319807,None,2,0.3541769770090468,344.8293284319807,None,,,,,,,,,,,,,,,,None,None,None,,None,None,345.22983518999536,None,1,1,0.8738531990093179,345.22983518999536,None,346.0946068750985,None,None,None,None,,37,001,2023_Jan_30_1419,searchDisc5,2021.2.3,59.964561902684764,
images/exp2a_trial_140_colour3_distractors9_r.png,r,3,3,9,0,,,,,0,102,102,102,,,,,,,,,,,,,,,,,,,,,,,,,,,,,,,,,,,,,,,,,,,346.11295635299757,None,2,0.4062776580103673,346.11295635299757,None,,,,,,,,,,,,,,,,None,None,None,,None,None,346.56321519298945,None,3,1,0.9034857350052334,346.56321519298945,None,347.4610380920989,None,None,None,None,,37,001,2023_Jan_30_1419,searchDisc5,2021.2.3,59.964561902684764,
images/exp2a_trial_196_colour1_distractors31_r.png,r,3,1,31,0,,,,,0,103,103,103,,,,,,,,,,,,,,,,,,,,,,,,,,,,,,,,,,,,,,,,,,,347.4775894259801,None,2,0.3889183379942551,347.4775894259801,None,,,,,,,,,,,,,,,,None,None,None,,None,None,347.9132326800027,None,3,1,0.9033976439968683,347.9132326800027,None,348.81098200707345,None,None,None,None,,37,001,2023_Jan_30_1419,searchDisc5,2021.2.3,59.964561902684764,
images/exp1a_trial_313_colour3_distractors1_l.png,l,1,3,1,0,,,,,0,104,104,104,,,,,,,,,,,,,,,,,,,,,,,,,,,,,,,,,,,,,,,,,,,348.82760615396546,None,2,0.4557058290229179,348.82760615396546,None,,,,,,,,,,,,,,,,None,None,None,,None,None,349.32962503901217,None,1,1,0.8704869829816744,349.32962503901217,None,350.1937853550829,None,None,None,None,,37,001,2023_Jan_30_1419,searchDisc5,2021.2.3,59.964561902684764,
images/exp2b_trial_129_colour1_distractors4_r.png,r,3,1,4,0,,,,,0,105,105,105,,,,,,,,,,,,,,,,,,,,,,,,,,,,,,,,,,,,,,,,,,,350.2109531799797,None,2,0.4379925740067847,350.2109531799797,None,,,,,,,,,,,,,,,,None,None,None,,None,None,350.69586320599774,None,3,1,1.5031250430038199,350.69586320599774,None,352.1944893330859,None,None,None,None,,37,001,2023_Jan_30_1419,searchDisc5,2021.2.3,59.964561902684764,
images/exp2a_trial_218_colour3_distractors4_l.png,l,1,3,4,0,,,,,0,106,106,106,,,,,,,,,,,,,,,,,,,,,,,,,,,,,,,,,,,,,,,,,,,352.21092414396117,None,2,0.45432901999447495,352.21092414396117,None,,,,,,,,,,,,,,,,None,None,None,,None,None,352.7112377329613,None,1,1,2.7725497920182534,352.7112377329613,None,355.47789369908276,None,None,None,None,,37,001,2023_Jan_30_1419,searchDisc5,2021.2.3,59.964561902684764,
images/exp2a_trial_160_colour1_distractors1_r.png,r,3,1,1,0,,,,,0,107,107,107,,,,,,,,,,,,,,,,,,,,,,,,,,,,,,,,,,,,,,,,,,,355.49654159898637,None,2,0.3712516769883223,355.49654159898637,None,,,,,,,,,,,,,,,,None,None,None,,None,None,355.9135313499719,None,3,1,0.9399193599820137,355.9135313499719,None,356.84458277607916,None,None,None,None,,37,001,2023_Jan_30_1419,searchDisc5,2021.2.3,59.964561902684764,
images/exp1a_trial_264_colour2_distractors19_r.png,r,3,2,19,0,,,,,0,108,108,108,,,,,,,,,,,,,,,,,,,,,,,,,,,,,,,,,,,,,,,,,,,356.86099018598907,None,2,0.40627480699913576,356.86099018598907,None,,,,,,,,,,,,,,,,None,None,None,,None,None,357.31327542400686,None,3,1,0.8672099130344577,357.31327542400686,None,358.17796826706615,None,None,None,None,,37,001,2023_Jan_30_1419,searchDisc5,2021.2.3,59.964561902684764,
images/exp2b_trial_190_colour0_distractors0_r.png,r,3,0,0,0,,,,,0,109,109,109,,,,,,,,,,,,,,,,,,,,,,,,,,,,,,,,,,,,,,,,,,,358.1944398600026,None,2,0.37119656399590895,358.1944398600026,None,,,,,,,,,,,,,,,,None,None,None,,None,None,358.6114802369848,None,3,1,0.8397227710229345,358.6114802369848,None,359.4448378760775,None,None,None,None,,37,001,2023_Jan_30_1419,searchDisc5,2021.2.3,59.964561902684764,
images/exp2a_trial_316_colour3_distractors19_l.png,l,1,3,19,0,,,,,0,110,110,110,,,,,,,,,,,,,,,,,,,,,,,,,,,,,,,,,,,,,,,,,,,359.4610390859889,None,2,0.37101799197262153,359.4610390859889,None,,,,,,,,,,,,,,,,None,None,None,,None,None,359.8781757460092,None,1,1,0.904801050957758,359.8781757460092,None,360.778027546074,None,None,None,None,,37,001,2023_Jan_30_1419,searchDisc5,2021.2.3,59.964561902684764,
images/exp2a_trial_35_colour1_distractors19_r.png,r,3,1,19,0,,,,,0,111,111,111,,,,,,,,,,,,,,,,,,,,,,,,,,,,,,,,,,,,,,,,,,,360.79465505096596,None,2,0.3535802449914627,360.79465505096596,None,,,,,,,,,,,,,,,,None,None,None,,None,None,361.1970851139631,None,3,1,0.9702180000022054,361.1970851139631,None,362.1608159260999,None,None,None,None,,37,001,2023_Jan_30_1419,searchDisc5,2021.2.3,59.964561902684764,
images/exp2b_trial_279_colour2_distractors19_l.png,l,1,2,19,0,,,,,0,112,112,112,,,,,,,,,,,,,,,,,,,,,,,,,,,,,,,,,,,,,,,,,,,362.17820397601463,None,2,0.4399989789817482,362.17820397601463,None,,,,,,,,,,,,,,,,None,None,None,,None,None,362.66291775897844,None,1,1,0.8668266519671306,362.66291775897844,None,363.52809120109885,None,None,None,None,,37,001,2023_Jan_30_1419,searchDisc5,2021.2.3,59.964561902684764,
images/exp1a_trial_279_colour2_distractors19_l.png,l,1,2,19,0,,,,,0,113,113,113,,,,,,,,,,,,,,,,,,,,,,,,,,,,,,,,,,,,,,,,,,,363.54497698298655,None,2,0.3873318640398793,363.54497698298655,None,,,,,,,,,,,,,,,,None,None,None,,None,None,363.9781794679584,None,1,1,0.871136658010073,363.9781794679584,None,364.844988967065,None,None,None,None,,37,001,2023_Jan_30_1419,searchDisc5,2021.2.3,59.964561902684764,
images/exp2a_trial_85_colour2_distractors4_l.png,l,1,2,4,0,,,,,0,114,114,114,,,,,,,,,,,,,,,,,,,,,,,,,,,,,,,,,,,,,,,,,,,364.8612869940116,None,2,0.402197734976653,364.8612869940116,None,,,,,,,,,,,,,,,,None,None,None,,None,None,365.313848271966,None,1,1,1.0384738389984705,365.313848271966,None,366.34496014909234,None,None,None,None,,37,001,2023_Jan_30_1419,searchDisc5,2021.2.3,59.964561902684764,
images/exp2a_trial_270_colour3_distractors31_r.png,r,3,3,31,0,,,,,0,115,115,115,,,,,,,,,,,,,,,,,,,,,,,,,,,,,,,,,,,,,,,,,,,366.3615535199642,None,2,0.37130048900144175,366.3615535199642,None,,,,,,,,,,,,,,,,None,None,None,,None,None,366.7779160469654,None,3,1,1.1860364459571429,366.7779160469654,None,367.9615320430661,None,None,None,None,,37,001,2023_Jan_30_1419,searchDisc5,2021.2.3,59.964561902684764,
images/exp2b_trial_288_colour1_distractors1_r.png,r,3,1,1,0,,,,,0,116,116,116,,,,,,,,,,,,,,,,,,,,,,,,,,,,,,,,,,,,,,,,,,,367.98034152796026,None,2,0.4065871530328877,367.98034152796026,None,,,,,,,,,,,,,,,,None,None,None,,None,None,368.43059740698664,None,3,1,1.4230197810102254,368.43059740698664,None,369.84498604608814,None,None,None,None,,37,001,2023_Jan_30_1419,searchDisc5,2021.2.3,59.964561902684764,
images/exp2c_trial_118_colour2_distractors9_l.png,l,1,2,9,0,,,,,0,117,117,117,,,,,,,,,,,,,,,,,,,,,,,,,,,,,,,,,,,,,,,,,,,369.86148815997876,None,2,0.38740306498948485,369.86148815997876,None,,,,,,,,,,,,,,,,None,None,None,,None,None,370.29720559198176,None,1,1,0.9535008969833143,370.29720559198176,None,371.24489275110534,None,None,None,None,,37,001,2023_Jan_30_1419,searchDisc5,2021.2.3,59.964561902684764,
images/exp2b_trial_172_colour3_distractors9_r.png,r,3,3,9,0,,,,,0,118,118,118,,,,,,,,,,,,,,,,,,,,,,,,,,,,,,,,,,,,,,,,,,,371.26143523299834,None,2,0.37120949901873246,371.26143523299834,None,,,,,,,,,,,,,,,,None,None,None,,None,None,371.67818605696084,None,3,1,0.9389615920372307,371.67818605696084,None,372.6116795041074,None,None,None,None,,37,001,2023_Jan_30_1419,searchDisc5,2021.2.3,59.964561902684764,
images/exp2c_trial_278_colour2_distractors9_l.png,l,1,2,9,0,,,,,0,119,119,119,,,,,,,,,,,,,,,,,,,,,,,,,,,,,,,,,,,,,,,,,,,372.6285082239774,None,2,0.38970908301416785,372.6285082239774,None,,,,,,,,,,,,,,,,None,None,None,,None,None,373.06398376700236,None,1,1,0.8868165950407274,373.06398376700236,None,373.94515053305656,None,None,None,None,,37,001,2023_Jan_30_1419,searchDisc5,2021.2.3,59.964561902684764,
images/exp2c_trial_99_colour1_distractors19_r.png,r,3,1,19,0,,,,,0,120,120,120,,,,,,,,,,,,,,,,,,,,,,,,,,,,,,,,,,,,,,,,,,,373.96155062201433,None,2,0.37110313097946346,373.96155062201433,None,,,,,,,,,,,,,,,,None,None,None,,None,None,374.3786143959733,None,3,1,0.8376355979708023,374.3786143959733,None,375.211782029079,None,None,None,None,,37,001,2023_Jan_30_1419,searchDisc5,2021.2.3,59.964561902684764,
images/exp1a_trial_7_colour2_distractors9_r.png,r,3,2,9,0,,,,,0,121,121,121,,,,,,,,,,,,,,,,,,,,,,,,,,,,,,,,,,,,,,,,,,,375.2283850039821,None,2,0.3714654050418176,375.2283850039821,None,,,,,,,,,,,,,,,,None,None,None,,None,None,375.647085745004,None,3,1,0.9872631999896839,375.647085745004,None,376.62782128406104,None,None,None,None,,37,001,2023_Jan_30_1419,searchDisc5,2021.2.3,59.964561902684764,
images/exp2c_trial_199_colour2_distractors9_r.png,r,3,2,9,0,,,,,0,122,122,122,,,,,,,,,,,,,,,,,,,,,,,,,,,,,,,,,,,,,,,,,,,376.64529075595783,None,2,0.32162013195920736,376.64529075595783,None,,,,,,,,,,,,,,,,None,None,None,,None,None,377.0118328380049,None,3,1,0.8718920400133356,377.0118328380049,None,377.87856185110866,None,None,None,None,,37,001,2023_Jan_30_1419,searchDisc5,2021.2.3,59.964561902684764,
images/exp2c_trial_84_colour2_distractors1_l.png,l,1,2,1,0,,,,,0,123,123,123,,,,,,,,,,,,,,,,,,,,,,,,,,,,,,,,,,,,,,,,,,,377.8951097269892,None,2,0.3877743990160525,377.8951097269892,None,,,,,,,,,,,,,,,,None,None,None,,None,None,378.3300982340006,None,1,1,0.9569457639590837,378.3300982340006,None,379.27850792807874,None,None,None,None,,37,001,2023_Jan_30_1419,searchDisc5,2021.2.3,59.964561902684764,
images/exp2b_trial_29_colour3_distractors31_l.png,l,1,3,31,0,,,,,0,124,124,124,,,,,,,,,,,,,,,,,,,,,,,,,,,,,,,,,,,,,,,,,,,379.29689604596933,None,2,0.38800267199985683,379.29689604596933,None,,,,,,,,,,,,,,,,None,None,None,,None,None,379.73099057597574,None,1,1,1.5034855210105889,379.73099057597574,None,381.2285172561009,None,None,None,None,,37,001,2023_Jan_30_1419,searchDisc5,2021.2.3,59.964561902684764,
images/exp2b_trial_56_colour2_distractors31_l.png,l,1,2,31,0,,,,,0,125,125,125,,,,,,,,,,,,,,,,,,,,,,,,,,,,,,,,,,,,,,,,,,,381.2450891089975,None,2,0.3377603539847769,381.2450891089975,None,,,,,,,,,,,,,,,,None,None,None,,None,None,381.63090765400557,None,1,1,0.8032967160106637,381.63090765400557,None,382.42874479905583,None,None,None,None,,37,001,2023_Jan_30_1419,searchDisc5,2021.2.3,59.964561902684764,
images/exp2c_trial_25_colour3_distractors1_l.png,l,1,3,1,0,,,,,0,126,126,126,,,,,,,,,,,,,,,,,,,,,,,,,,,,,,,,,,,,,,,,,,,382.4450624620076,None,2,0.320985988015309,382.4450624620076,None,,,,,,,,,,,,,,,,None,None,None,,None,None,382.81211041199276,None,1,1,0.8568238519947045,382.81211041199276,None,383.66197250405673,None,None,None,None,,37,001,2023_Jan_30_1419,searchDisc5,2021.2.3,59.964561902684764,
images/exp2b_trial_43_colour3_distractors4_r.png,r,3,3,4,0,,,,,0,127,127,127,,,,,,,,,,,,,,,,,,,,,,,,,,,,,,,,,,,,,,,,,,,383.67847176798386,None,2,0.289421123045031,383.67847176798386,None,,,,,,,,,,,,,,,,None,None,None,,None,None,384.01217271300266,None,3,1,0.9059860529960133,384.01217271300266,None,384.9119487761112,None,None,None,None,,37,001,2023_Jan_30_1419,searchDisc5,2021.2.3,59.964561902684764,
images/exp2c_trial_209_colour1_distractors9_l.png,l,1,1,9,0,,,,,0,128,128,128,,,,,,,,,,,,,,,,,,,,,,,,,,,,,,,,,,,,,,,,,,,384.92888144997414,None,2,0.35308003099635243,384.92888144997414,None,,,,,,,,,,,,,,,,None,None,None,,None,None,385.3291650249739,None,1,1,0.740437144995667,385.3291650249739,None,386.0622533970803,None,None,None,None,,37,001,2023_Jan_30_1419,searchDisc5,2021.2.3,59.964561902684764,
images/exp2c_trial_142_colour3_distractors31_r.png,r,3,3,31,0,,,,,0,129,129,129,,,,,,,,,,,,,,,,,,,,,,,,,,,,,,,,,,,,,,,,,,,386.07867904100567,None,2,0.27224949101218954,386.07867904100567,None,,,,,,,,,,,,,,,,None,None,None,,None,None,386.39556792896474,None,3,1,0.96872991300188,386.39556792896474,None,387.36205038510377,None,None,None,None,,37,001,2023_Jan_30_1419,searchDisc5,2021.2.3,59.964561902684764,
images/exp2a_trial_15_colour1_distractors1_l.png,l,1,1,1,0,,,,,0,130,130,130,,,,,,,,,,,,,,,,,,,,,,,,,,,,,,,,,,,,,,,,,,,387.37867192196427,None,2,0.2699432310182601,387.37867192196427,None,,,,,,,,,,,,,,,,None,None,None,,None,None,387.69561125995824,None,1,1,0.8739188669715077,387.69561125995824,None,388.5620310710568,None,None,None,None,,37,001,2023_Jan_30_1419,searchDisc5,2021.2.3,59.964561902684764,
images/exp2b_trial_22_colour2_distractors9_l.png,l,1,2,9,0,,,,,0,131,131,131,,,,,,,,,,,,,,,,,,,,,,,,,,,,,,,,,,,,,,,,,,,388.5789118949906,None,2,0.28768795798532665,388.5789118949906,None,,,,,,,,,,,,,,,,None,None,None,,None,None,388.9145620299969,None,1,1,0.854909265995957,388.9145620299969,None,389.76218503306734,None,None,None,None,,37,001,2023_Jan_30_1419,searchDisc5,2021.2.3,59.964561902684764,
images/exp1a_trial_23_colour2_distractors19_l.png,l,1,2,19,0,,,,,0,132,132,132,,,,,,,,,,,,,,,,,,,,,,,,,,,,,,,,,,,,,,,,,,,389.7808214459801,None,2,0.2544838030007668,389.7808214459801,None,,,,,,,,,,,,,,,,None,None,None,,None,None,390.0785521409707,None,1,1,0.8687865020474419,390.0785521409707,None,390.94596292009226,None,None,None,None,,37,001,2023_Jan_30_1419,searchDisc5,2021.2.3,59.964561902684764,
images/exp2b_trial_82_colour1_distractors19_l.png,l,1,1,19,0,,,,,0,133,133,133,,,,,,,,,,,,,,,,,,,,,,,,,,,,,,,,,,,,,,,,,,,390.96224200801225,None,2,0.2397955899941735,390.96224200801225,None,,,,,,,,,,,,,,,,None,None,None,,None,None,391.2471671300009,None,1,1,0.7852733780164272,391.2471671300009,None,392.02883490309466,None,None,None,None,,37,001,2023_Jan_30_1419,searchDisc5,2021.2.3,59.964561902684764,
images/exp2c_trial_113_colour1_distractors9_l.png,l,1,1,9,0,,,,,0,134,134,134,,,,,,,,,,,,,,,,,,,,,,,,,,,,,,,,,,,,,,,,,,,392.0455619400018,None,2,0.2733602650114335,392.0455619400018,None,,,,,,,,,,,,,,,,None,None,None,,None,None,392.3619157799985,None,1,1,0.8870265069999732,392.3619157799985,None,393.24572318810385,None,None,None,None,,37,001,2023_Jan_30_1419,searchDisc5,2021.2.3,59.964561902684764,
images/exp1a_trial_134_colour2_distractors4_r.png,r,3,2,4,0,,,,,0,135,135,135,,,,,,,,,,,,,,,,,,,,,,,,,,,,,,,,,,,,,,,,,,,393.2624793939758,None,2,0.23917428002459928,393.2624793939758,None,,,,,,,,,,,,,,,,None,None,None,,None,None,393.54799150896724,None,3,1,0.8865087130106986,393.54799150896724,None,394.4290018060768,None,None,None,None,,37,001,2023_Jan_30_1419,searchDisc5,2021.2.3,59.964561902684764,
images/exp2b_trial_255_colour0_distractors0_l.png,l,1,0,0,0,,,,,0,136,136,136,,,,,,,,,,,,,,,,,,,,,,,,,,,,,,,,,,,,,,,,,,,394.4458558689803,None,2,0.3210640239994973,394.4458558689803,None,,,,,,,,,,,,,,,,None,None,None,,None,None,394.8126086649718,None,1,1,1.3070589020499028,394.8126086649718,None,396.11232069007235,None,None,None,None,,37,001,2023_Jan_30_1419,searchDisc5,2021.2.3,59.964561902684764,
images/exp1a_trial_220_colour3_distractors19_l.png,l,1,3,19,0,,,,,0,137,137,137,,,,,,,,,,,,,,,,,,,,,,,,,,,,,,,,,,,,,,,,,,,396.13093873200705,None,2,0.2712114049936645,396.13093873200705,None,,,,,,,,,,,,,,,,None,None,None,,None,None,396.4457089600037,None,1,1,0.7182524660020135,396.4457089600037,None,397.16145573108804,None,None,None,None,,37,001,2023_Jan_30_1419,searchDisc5,2021.2.3,59.964561902684764,
images/exp2b_trial_156_colour3_distractors19_l.png,l,1,3,19,0,,,,,0,138,138,138,,,,,,,,,,,,,,,,,,,,,,,,,,,,,,,,,,,,,,,,,,,397.18077597400406,None,2,0.2889244509860873,397.18077597400406,None,,,,,,,,,,,,,,,,None,None,None,,None,None,397.51254638296086,None,1,1,0.870999053993728,397.51254638296086,None,398.3790427731059,None,None,None,None,,37,001,2023_Jan_30_1419,searchDisc5,2021.2.3,59.964561902684764,
images/exp2a_trial_67_colour1_distractors19_r.png,r,3,1,19,0,,,,,0,139,139,139,,,,,,,,,,,,,,,,,,,,,,,,,,,,,,,,,,,,,,,,,,,398.39592785795685,None,2,0.23730011098086834,398.39592785795685,None,,,,,,,,,,,,,,,,None,None,None,,None,None,398.67906577297254,None,3,1,0.9366265370044857,398.67906577297254,None,399.61203508108736,None,None,None,None,,37,001,2023_Jan_30_1419,searchDisc5,2021.2.3,59.964561902684764,
images/exp2c_trial_175_colour1_distractors1_l.png,l,1,1,1,0,,,,,0,140,140,140,,,,,,,,,,,,,,,,,,,,,,,,,,,,,,,,,,,,,,,,,,,399.6309961859952,None,2,0.3211591859580949,399.6309961859952,None,,,,,,,,,,,,,,,,None,None,None,,None,None,399.9958514199825,None,1,1,1.2404126219917089,399.9958514199825,None,401.2292653010867,None,None,None,None,,37,001,2023_Jan_30_1419,searchDisc5,2021.2.3,59.964561902684764,
images/exp2a_trial_27_colour3_distractors9_l.png,l,1,3,9,0,,,,,0,141,141,141,,,,,,,,,,,,,,,,,,,,,,,,,,,,,,,,,,,,,,,,,,,401.2459593579988,None,2,0.33768291398882866,401.2459593579988,None,,,,,,,,,,,,,,,,None,None,None,,None,None,401.6292676560115,None,1,1,1.0553623219602741,401.6292676560115,None,402.67915418506016,None,None,None,None,,37,001,2023_Jan_30_1419,searchDisc5,2021.2.3,59.964561902684764,
images/exp2c_trial_296_colour2_distractors19_r.png,r,3,2,19,0,,,,,0,142,142,142,,,,,,,,,,,,,,,,,,,,,,,,,,,,,,,,,,,,,,,,,,,402.6958348299959,None,2,0.28778901300393045,402.6958348299959,None,,,,,,,,,,,,,,,,None,None,None,,None,None,403.0294706959976,None,3,1,0.954380010953173,403.0294706959976,None,403.9792323290661,None,None,None,None,,37,001,2023_Jan_30_1419,searchDisc5,2021.2.3,59.964561902684764,
images/exp2c_trial_248_colour2_distractors31_l.png,l,1,2,31,0,,,,,0,143,143,143,,,,,,,,,,,,,,,,,,,,,,,,,,,,,,,,,,,,,,,,,,,403.99751537595876,None,2,0.38994553801603615,403.99751537595876,None,,,,,,,,,,,,,,,,None,None,None,,None,None,404.4315188539913,None,1,1,1.3848813999793492,404.4315188539913,None,405.8125373280549,None,None,None,None,,37,001,2023_Jan_30_1419,searchDisc5,2021.2.3,59.964561902684764,
images/exp2a_trial_10_colour3_distractors1_r.png,r,3,3,1,0,,,,,0,144,144,144,,,,,,,,,,,,,,,,,,,,,,,,,,,,,,,,,,,,,,,,,,,405.82899436500156,None,2,0.35489268897799775,405.82899436500156,None,,,,,,,,,,,,,,,,None,None,None,,None,None,406.229525903007,None,1,0,0.9397332970402204,406.229525903007,None,407.1625755620829,None,None,None,None,,37,001,2023_Jan_30_1419,searchDisc5,2021.2.3,59.964561902684764,
images/exp2b_trial_223_colour0_distractors0_l.png,l,1,0,0,0,,,,,0,145,145,145,,,,,,,,,,,,,,,,,,,,,,,,,,,,,,,,,,,,,,,,,,,407.1790747339837,None,2,1.5728196519776247,407.1790747339837,None,,,,,,,,,,,,,,,,None,None,None,,None,None,408.7984367759782,None,1,1,0.7566258509759791,408.7984367759782,None,409.54631621810256,None,None,None,None,,37,001,2023_Jan_30_1419,searchDisc5,2021.2.3,59.964561902684764,
images/exp1a_trial_75_colour3_distractors4_r.png,r,3,3,4,0,,,,,0,146,146,146,,,,,,,,,,,,,,,,,,,,,,,,,,,,,,,,,,,,,,,,,,,409.56258701498155,None,2,0.3029265669756569,409.56258701498155,None,,,,,,,,,,,,,,,,None,None,None,,None,None,409.9121721810079,None,3,1,0.6903074469882995,409.9121721810079,None,410.596149400057,None,None,None,None,,37,001,2023_Jan_30_1419,searchDisc5,2021.2.3,59.964561902684764,
images/exp2b_trial_133_colour2_distractors1_r.png,r,3,2,1,0,,,,,0,147,147,147,,,,,,,,,,,,,,,,,,,,,,,,,,,,,,,,,,,,,,,,,,,410.61278620397206,None,2,0.36998012696858495,410.61278620397206,None,,,,,,,,,,,,,,,,None,None,None,,None,None,411.0318765490083,None,3,1,0.7064128780039027,411.0318765490083,None,411.72969045409116,None,None,None,None,,37,001,2023_Jan_30_1419,searchDisc5,2021.2.3,59.964561902684764,
images/exp1a_trial_16_colour1_distractors4_l.png,l,1,1,4,0,,,,,0,148,148,148,,,,,,,,,,,,,,,,,,,,,,,,,,,,,,,,,,,,,,,,,,,411.7453308789991,None,2,0.28754748398205265,411.7453308789991,None,,,,,,,,,,,,,,,,None,None,None,,None,None,412.0791249150061,None,1,1,1.1728009969810955,412.0791249150061,None,413.2460450430575,None,None,None,None,,37,001,2023_Jan_30_1419,searchDisc5,2021.2.3,59.964561902684764,
images/exp2b_trial_312_colour2_distractors31_l.png,l,1,2,31,0,,,,,0,149,149,149,,,,,,,,,,,,,,,,,,,,,,,,,,,,,,,,,,,,,,,,,,,413.26437046797946,None,2,0.31988053600071,413.26437046797946,None,,,,,,,,,,,,,,,,None,None,None,,None,None,413.629667125002,None,1,1,0.7213095889892429,413.629667125002,None,414.34614711709435,None,None,None,None,,37,001,2023_Jan_30_1419,searchDisc5,2021.2.3,59.964561902684764,
images/exp2c_trial_152_colour2_distractors31_l.png,l,1,2,31,0,,,,,0,150,150,150,,,,,,,,,,,,,,,,,,,,,,,,,,,,,,,,,,,,,,,,,,,414.3623624899774,None,2,0.2578102629631758,414.3623624899774,None,,,,,,,,,,,,,,,,None,None,None,,None,None,414.6651831829804,None,1,1,0.7833770559518598,414.6651831829804,None,415.44636501407365,None,None,None,None,,37,001,2023_Jan_30_1419,searchDisc5,2021.2.3,59.964561902684764,
images/exp2c_trial_133_colour2_distractors1_r.png,r,3,2,1,0,,,,,0,151,151,151,,,,,,,,,,,,,,,,,,,,,,,,,,,,,,,,,,,,,,,,,,,415.46247099299217,None,2,0.23970556299900636,415.46247099299217,None,,,,,,,,,,,,,,,,None,None,None,,None,None,415.7485416479758,None,3,1,0.7378140210057609,415.7485416479758,None,416.4795454730687,None,None,None,None,,37,001,2023_Jan_30_1419,searchDisc5,2021.2.3,59.964561902684764,
images/exp2c_trial_190_colour0_distractors0_r.png,r,3,0,0,0,,,,,0,152,152,152,,,,,,,,,,,,,,,,,,,,,,,,,,,,,,,,,,,,,,,,,,,416.49591780098854,None,2,0.23997528495965526,416.49591780098854,None,,,,,,,,,,,,,,,,None,None,None,,None,None,416.7792907169787,None,3,1,0.6714957630028948,416.7792907169787,None,417.44640459906657,None,None,None,None,,37,001,2023_Jan_30_1419,searchDisc5,2021.2.3,59.964561902684764,
images/exp2b_trial_4_colour1_distractors31_r.png,r,3,1,31,0,,,,,0,153,153,153,,,,,,,,,,,,,,,,,,,,,,,,,,,,,,,,,,,,,,,,,,,417.4630139959627,None,2,0.2708854270167649,417.4630139959627,None,,,,,,,,,,,,,,,,None,None,None,,None,None,417.7799278679886,None,3,1,0.9032759749679826,417.7799278679886,None,418.67954084609516,None,None,None,None,,37,001,2023_Jan_30_1419,searchDisc5,2021.2.3,59.964561902684764,
images/exp2a_trial_126_colour0_distractors0_r.png,r,3,0,0,0,,,,,0,154,154,154,,,,,,,,,,,,,,,,,,,,,,,,,,,,,,,,,,,,,,,,,,,418.69594784697983,None,2,0.28780021698912606,418.69594784697983,None,,,,,,,,,,,,,,,,None,None,None,,None,None,419.03013539197855,None,3,1,0.706539899983909,419.03013539197855,None,419.7296467180771,None,None,None,None,,37,001,2023_Jan_30_1419,searchDisc5,2021.2.3,59.964561902684764,
images/exp1a_trial_198_colour2_distractors4_r.png,r,3,2,4,0,,,,,0,155,155,155,,,,,,,,,,,,,,,,,,,,,,,,,,,,,,,,,,,,,,,,,,,419.745876817964,None,2,0.2546131090493873,419.745876817964,None,,,,,,,,,,,,,,,,None,None,None,,None,None,420.0465496130055,None,3,1,0.6566279910039157,420.0465496130055,None,420.6961823880614,None,None,None,None,,37,001,2023_Jan_30_1419,searchDisc5,2021.2.3,59.964561902684764,
images/exp2a_trial_31_colour0_distractors0_l.png,l,1,0,0,0,,,,,0,156,156,156,,,,,,,,,,,,,,,,,,,,,,,,,,,,,,,,,,,,,,,,,,,420.71287075598957,None,2,0.2374768169829622,420.71287075598957,None,,,,,,,,,,,,,,,,None,None,None,,None,None,420.9961897309986,None,1,1,0.7053512419806793,420.9961897309986,None,421.6963768150948,None,None,None,None,,37,001,2023_Jan_30_1419,searchDisc5,2021.2.3,59.964561902684764,
images/exp2b_trial_260_colour1_distractors31_r.png,r,3,1,31,0,,,,,0,157,157,157,,,,,,,,,,,,,,,,,,,,,,,,,,,,,,,,,,,,,,,,,,,421.715034488996,None,2,0.28776461200322956,421.715034488996,None,,,,,,,,,,,,,,,,None,None,None,,None,None,422.04632752598263,None,3,1,0.7867117149871774,422.04632752598263,None,422.8297485400748,None,None,None,None,,37,001,2023_Jan_30_1419,searchDisc5,2021.2.3,59.964561902684764,
images/exp2c_trial_267_colour3_distractors4_r.png,r,3,3,4,0,,,,,0,158,158,158,,,,,,,,,,,,,,,,,,,,,,,,,,,,,,,,,,,,,,,,,,,422.8463990459568,None,2,0.2721063740318641,422.8463990459568,None,,,,,,,,,,,,,,,,None,None,None,,None,None,423.16326990700327,None,3,1,0.9059602629859,423.16326990700327,None,424.06309764809555,None,None,None,None,,37,001,2023_Jan_30_1419,searchDisc5,2021.2.3,59.964561902684764,
images/exp1a_trial_174_colour3_distractors31_r.png,r,3,3,31,0,,,,,0,159,159,159,,,,,,,,,,,,,,,,,,,,,,,,,,,,,,,,,,,,,,,,,,,424.0798360419576,None,2,0.3054865070153028,424.0798360419576,None,,,,,,,,,,,,,,,,None,None,None,,None,None,424.4315472849994,None,3,1,1.2331234620069154,424.4315472849994,None,425.6630711770907,None,None,None,None,,37,001,2023_Jan_30_1419,searchDisc5,2021.2.3,59.964561902684764,
images/exp1a_trial_239_colour1_distractors1_l.png,l,1,1,1,0,,,,,0,160,160,160,,,,,,,,,,,,,,,,,,,,,,,,,,,,,,,,,,,,,,,,,,,425.68007286300417,None,2,0.27053025597706437,425.68007286300417,None,,,,,,,,,,,,,,,,None,None,None,,None,None,425.99625738395844,None,1,1,0.9561249040416442,425.99625738395844,None,426.94592033309743,None,None,None,None,,37,001,2023_Jan_30_1419,searchDisc5,2021.2.3,59.964561902684764,
images/exp1a_trial_49_colour1_distractors9_l.png,l,1,1,9,0,,,,,0,161,161,161,,,,,,,,,,,,,,,,,,,,,,,,,,,,,,,,,,,,,,,,,,,426.96309928101255,None,2,0.30510652594966814,426.96309928101255,None,,,,,,,,,,,,,,,,None,None,None,,None,None,427.31271015899256,None,1,1,0.838347512006294,427.31271015899256,None,428.146537669067,None,None,None,None,,37,001,2023_Jan_30_1419,searchDisc5,2021.2.3,59.964561902684764,
images/exp2a_trial_69_colour2_distractors1_r.png,r,3,2,1,0,,,,,0,162,162,162,,,,,,,,,,,,,,,,,,,,,,,,,,,,,,,,,,,,,,,,,,,428.1629121999722,None,2,0.2745455630356446,428.1629121999722,None,,,,,,,,,,,,,,,,None,None,None,,None,None,428.47927411599085,None,3,1,0.9029616420157254,428.47927411599085,None,429.38017343206445,None,None,None,None,,37,001,2023_Jan_30_1419,searchDisc5,2021.2.3,59.964561902684764,
images/exp2c_trial_66_colour1_distractors9_r.png,r,3,1,9,0,,,,,0,163,163,163,,,,,,,,,,,,,,,,,,,,,,,,,,,,,,,,,,,,,,,,,,,429.3966866469709,None,2,0.2708546959911473,429.3966866469709,None,,,,,,,,,,,,,,,,None,None,None,,None,None,429.7134403529926,None,3,1,0.7201324530178681,429.7134403529926,None,430.4299079281103,None,None,None,None,,37,001,2023_Jan_30_1419,searchDisc5,2021.2.3,59.964561902684764,
images/exp2c_trial_251_colour3_distractors9_l.png,l,1,3,9,0,,,,,0,164,164,164,,,,,,,,,,,,,,,,,,,,,,,,,,,,,,,,,,,,,,,,,,,430.4466229339596,None,2,0.30468111898517236,430.4466229339596,None,,,,,,,,,,,,,,,,None,None,None,,None,None,430.7969083840144,None,1,1,0.7854409349965863,430.7969083840144,None,431.57991340809383,None,None,None,None,,37,001,2023_Jan_30_1419,searchDisc5,2021.2.3,59.964561902684764,
images/exp2c_trial_316_colour3_distractors19_l.png,l,1,3,19,0,,,,,0,165,165,165,,,,,,,,,,,,,,,,,,,,,,,,,,,,,,,,,,,,,,,,,,,431.59606943797553,None,2,0.3046096970210783,431.59606943797553,None,,,,,,,,,,,,,,,,None,None,None,,None,None,431.9469654329587,None,1,1,1.0370130150113255,431.9469654329587,None,432.9801592870557,None,None,None,None,,37,001,2023_Jan_30_1419,searchDisc5,2021.2.3,59.964561902684764,
images/exp2a_trial_153_colour3_distractors1_l.png,l,1,3,1,0,,,,,0,166,166,166,,,,,,,,,,,,,,,,,,,,,,,,,,,,,,,,,,,,,,,,,,,432.99619049200555,None,2,0.28792071499628946,432.99619049200555,None,,,,,,,,,,,,,,,,None,None,None,,None,None,433.3301968179876,None,1,1,1.106479698966723,433.3301968179876,None,434.4301713371009,None,None,None,None,,37,001,2023_Jan_30_1419,searchDisc5,2021.2.3,59.964561902684764,
images/exp2a_trial_258_colour1_distractors9_r.png,r,3,1,9,0,,,,,0,167,167,167,,,,,,,,,,,,,,,,,,,,,,,,,,,,,,,,,,,,,,,,,,,434.44624268601183,None,2,0.23942542501026765,434.44624268601183,None,,,,,,,,,,,,,,,,None,None,None,,None,None,434.73032435798086,None,3,1,1.1557621419779025,434.73032435798086,None,435.88008652610586,None,None,None,None,,37,001,2023_Jan_30_1419,searchDisc5,2021.2.3,59.964561902684764,
images/exp2b_trial_60_colour3_distractors19_l.png,l,1,3,19,0,,,,,0,168,168,168,,,,,,,,,,,,,,,,,,,,,,,,,,,,,,,,,,,,,,,,,,,435.8969115379732,None,2,0.2687650229781866,435.8969115379732,None,,,,,,,,,,,,,,,,None,None,None,,None,None,436.2135791819892,None,1,1,1.1200792160234414,436.2135791819892,None,437.33011518308774,None,None,None,None,,37,001,2023_Jan_30_1419,searchDisc5,2021.2.3,59.964561902684764,
images/exp2c_trial_225_colour1_distractors4_r.png,r,3,1,4,0,,,,,0,169,169,169,,,,,,,,,,,,,,,,,,,,,,,,,,,,,,,,,,,,,,,,,,,437.3463972779573,None,2,0.27140301204053685,437.3463972779573,None,,,,,,,,,,,,,,,,None,None,None,,None,None,437.66346073598834,None,3,1,0.9357692250050604,437.66346073598834,None,438.5969777421036,None,None,None,None,,37,001,2023_Jan_30_1419,searchDisc5,2021.2.3,59.964561902684764,
images/exp2c_trial_201_colour2_distractors31_r.png,r,3,2,31,0,,,,,0,170,170,170,,,,,,,,,,,,,,,,,,,,,,,,,,,,,,,,,,,,,,,,,,,438.6155745660071,None,2,0.32127431797562167,438.6155745660071,None,,,,,,,,,,,,,,,,None,None,None,,None,None,438.9803740049829,None,3,1,0.7861304340185598,438.9803740049829,None,439.76293385006136,None,None,None,None,,37,001,2023_Jan_30_1419,searchDisc5,2021.2.3,59.964561902684764,
images/exp2b_trial_303_colour1_distractors1_l.png,l,1,1,1,0,,,,,0,171,171,171,,,,,,,,,,,,,,,,,,,,,,,,,,,,,,,,,,,,,,,,,,,439.7796352820005,None,2,0.2884856620221399,439.7796352820005,None,,,,,,,,,,,,,,,,None,None,None,,None,None,440.1157316020108,None,1,1,0.7895859869895503,440.1157316020108,None,440.8969469940697,None,None,None,None,,37,001,2023_Jan_30_1419,searchDisc5,2021.2.3,59.964561902684764,
images/exp2b_trial_127_colour0_distractors0_l.png,l,1,0,0,0,,,,,0,172,172,172,,,,,,,,,,,,,,,,,,,,,,,,,,,,,,,,,,,,,,,,,,,440.91307317698374,None,2,0.3207590790116228,440.91307317698374,None,,,,,,,,,,,,,,,,None,None,None,,None,None,441.28049632697366,None,1,1,0.7896446399972774,441.28049632697366,None,442.0637876270979,None,None,None,None,,37,001,2023_Jan_30_1419,searchDisc5,2021.2.3,59.964561902684764,
images/exp2c_trial_49_colour1_distractors9_l.png,l,1,1,9,0,,,,,0,173,173,173,,,,,,,,,,,,,,,,,,,,,,,,,,,,,,,,,,,,,,,,,,,442.08029879798414,None,2,0.2541566059808247,442.08029879798414,None,,,,,,,,,,,,,,,,None,None,None,,None,None,442.380532605981,None,1,1,0.6382323779980652,442.380532605981,None,443.01368891605523,None,None,None,None,,37,001,2023_Jan_30_1419,searchDisc5,2021.2.3,59.964561902684764,
images/exp2b_trial_205_colour3_distractors19_r.png,r,3,3,19,0,,,,,0,174,174,174,,,,,,,,,,,,,,,,,,,,,,,,,,,,,,,,,,,,,,,,,,,443.0299687689985,None,2,0.2566746050142683,443.0299687689985,None,,,,,,,,,,,,,,,,None,None,None,,None,None,443.3306797819678,None,3,1,0.6519930659560487,443.3306797819678,None,443.98058298807007,None,None,None,None,,37,001,2023_Jan_30_1419,searchDisc5,2021.2.3,59.964561902684764,
images/exp2c_trial_184_colour2_distractors31_l.png,l,1,2,31,0,,,,,0,175,175,175,,,,,,,,,,,,,,,,,,,,,,,,,,,,,,,,,,,,,,,,,,,443.9971934329951,None,2,0.27108303597196937,443.9971934329951,None,,,,,,,,,,,,,,,,None,None,None,,None,None,444.31398780597374,None,1,1,0.6525943060405552,444.31398780597374,None,444.9636538091057,None,None,None,None,,37,001,2023_Jan_30_1419,searchDisc5,2021.2.3,59.964561902684764,
images/exp2c_trial_318_colour0_distractors0_r.png,r,3,0,0,0,,,,,0,176,176,176,,,,,,,,,,,,,,,,,,,,,,,,,,,,,,,,,,,,,,,,,,,444.9808303199825,None,2,0.2545269699767232,444.9808303199825,None,,,,,,,,,,,,,,,,None,None,None,,None,None,445.28073470597155,None,3,1,0.6063830429920927,445.28073470597155,None,445.8802826170635,None,None,None,None,,37,001,2023_Jan_30_1419,searchDisc5,2021.2.3,59.964561902684764,
images/exp1a_trial_64_colour1_distractors1_r.png,r,3,1,1,0,,,,,0,177,177,177,,,,,,,,,,,,,,,,,,,,,,,,,,,,,,,,,,,,,,,,,,,445.8965376269771,None,2,0.240031382010784,445.8965376269771,None,,,,,,,,,,,,,,,,None,None,None,,None,None,446.1805270879995,None,3,1,1.0040012559620664,446.1805270879995,None,447.18048522709284,None,None,None,None,,37,001,2023_Jan_30_1419,searchDisc5,2021.2.3,59.964561902684764,
images/exp2b_trial_264_colour2_distractors19_r.png,r,3,2,19,0,,,,,0,178,178,178,,,,,,,,,,,,,,,,,,,,,,,,,,,,,,,,,,,,,,,,,,,447.197010474978,None,2,0.25628994102589786,447.197010474978,None,,,,,,,,,,,,,,,,None,None,None,,None,None,447.49906168296,None,3,1,0.7348030339926481,447.49906168296,None,448.23043688206815,None,None,None,None,,37,001,2023_Jan_30_1419,searchDisc5,2021.2.3,59.964561902684764,
images/exp2b_trial_289_colour1_distractors4_r.png,r,3,1,4,0,,,,,0,179,179,179,,,,,,,,,,,,,,,,,,,,,,,,,,,,,,,,,,,,,,,,,,,448.2470377399586,None,2,0.22324327600654215,448.2470377399586,None,,,,,,,,,,,,,,,,None,None,None,,None,None,448.5159692270099,None,3,1,0.6388006759807467,448.5159692270099,None,449.14741881006046,None,None,None,None,,37,001,2023_Jan_30_1419,searchDisc5,2021.2.3,59.964561902684764,
images/exp2a_trial_312_colour2_distractors31_l.png,l,1,2,31,0,,,,,0,180,180,180,,,,,,,,,,,,,,,,,,,,,,,,,,,,,,,,,,,,,,,,,,,449.1636956029688,None,2,0.1855698649887927,449.1636956029688,None,,,,,,,,,,,,,,,,None,None,None,,None,None,449.40335198899265,None,1,1,1.1773732610163279,449.40335198899265,None,450.58065496507913,None,None,None,None,,37,001,2023_Jan_30_1419,searchDisc5,2021.2.3,59.964561902684764,
images/exp1a_trial_26_colour3_distractors4_l.png,l,1,3,4,0,,,,,0,181,181,181,,,,,,,,,,,,,,,,,,,,,,,,,,,,,,,,,,,,,,,,,,,450.5994498319924,None,2,0.22107210999820381,450.5994498319924,None,,,,,,,,,,,,,,,,None,None,None,,None,None,450.86345496895956,None,1,1,0.8550336650223471,450.86345496895956,None,451.7140305491106,None,None,None,None,,37,001,2023_Jan_30_1419,searchDisc5,2021.2.3,59.964561902684764,
images/exp2a_trial_122_colour3_distractors4_l.png,l,1,3,4,0,,,,,0,182,182,182,,,,,,,,,,,,,,,,,,,,,,,,,,,,,,,,,,,,,,,,,,,451.73055624001427,None,2,0.22321918298257515,451.73055624001427,None,,,,,,,,,,,,,,,,None,None,None,,None,None,451.999073065992,None,1,1,0.8369911879999563,451.999073065992,None,452.83074719808644,None,None,None,None,,37,001,2023_Jan_30_1419,searchDisc5,2021.2.3,59.964561902684764,
images/exp2b_trial_15_colour1_distractors1_l.png,l,1,1,1,0,,,,,0,183,183,183,,,,,,,,,,,,,,,,,,,,,,,,,,,,,,,,,,,,,,,,,,,452.8471930559608,None,2,0.18956349103245884,452.8471930559608,None,,,,,,,,,,,,,,,,None,None,None,,None,None,453.08276788698277,None,1,1,0.7703776700072922,453.08276788698277,None,453.84740537405594,None,None,None,None,,37,001,2023_Jan_30_1419,searchDisc5,2021.2.3,59.964561902684764,
images/exp2a_trial_90_colour3_distractors4_l.png,l,1,3,4,0,,,,,0,184,184,184,,,,,,,,,,,,,,,,,,,,,,,,,,,,,,,,,,,,,,,,,,,453.86575802997686,None,2,0.17291492997901514,453.86575802997686,None,,,,,,,,,,,,,,,,None,None,None,,None,None,454.08310594799696,None,1,1,0.9704459640197456,454.08310594799696,None,455.0473125670745,None,None,None,None,,37,001,2023_Jan_30_1419,searchDisc5,2021.2.3,59.964561902684764,
images/exp2b_trial_62_colour0_distractors0_r.png,r,3,0,0,0,,,,,0,185,185,185,,,,,,,,,,,,,,,,,,,,,,,,,,,,,,,,,,,,,,,,,,,455.0636394909816,None,2,0.13797841098858044,455.0636394909816,None,,,,,,,,,,,,,,,,None,None,None,,None,None,455.2470511109568,None,3,1,0.7908696610247716,455.2470511109568,None,456.03068729508084,None,None,None,None,,37,001,2023_Jan_30_1419,searchDisc5,2021.2.3,59.964561902684764,
images/exp2c_trial_188_colour3_distractors19_l.png,l,1,3,19,0,,,,,0,186,186,186,,,,,,,,,,,,,,,,,,,,,,,,,,,,,,,,,,,,,,,,,,,456.0473500909866,None,2,0.24007025494938716,456.0473500909866,None,,,,,,,,,,,,,,,,None,None,None,,None,None,456.3329187919735,None,1,1,1.3015528420219198,456.3329187919735,None,457.63076077006406,None,None,None,None,,37,001,2023_Jan_30_1419,searchDisc5,2021.2.3,59.964561902684764,
images/exp2c_trial_315_colour3_distractors9_l.png,l,1,3,9,0,,,,,0,187,187,187,,,,,,,,,,,,,,,,,,,,,,,,,,,,,,,,,,,,,,,,,,,457.64755992096616,None,2,0.1879658040124923,457.64755992096616,None,,,,,,,,,,,,,,,,None,None,None,,None,None,457.8830339569831,None,1,1,0.8711550279986113,457.8830339569831,None,458.74706231611196,None,None,None,None,,37,001,2023_Jan_30_1419,searchDisc5,2021.2.3,59.964561902684764,
images/exp2b_trial_201_colour2_distractors31_r.png,r,3,2,31,0,,,,,0,188,188,188,,,,,,,,,,,,,,,,,,,,,,,,,,,,,,,,,,,,,,,,,,,458.7641763020074,None,2,0.20685254700947553,458.7641763020074,None,,,,,,,,,,,,,,,,None,None,None,,None,None,459.0160499379854,None,3,1,0.9176009169896133,459.0160499379854,None,459.93062157108795,None,None,None,None,,37,001,2023_Jan_30_1419,searchDisc5,2021.2.3,59.964561902684764,
images/exp2c_trial_22_colour2_distractors9_l.png,l,1,2,9,0,,,,,0,189,189,189,,,,,,,,,,,,,,,,,,,,,,,,,,,,,,,,,,,,,,,,,,,459.94737259100657,None,2,0.27265071199508384,459.94737259100657,None,,,,,,,,,,,,,,,,None,None,None,,None,None,460.2642988580046,None,1,1,0.8870851039537229,460.2642988580046,None,461.1475745010597,None,None,None,None,,37,001,2023_Jan_30_1419,searchDisc5,2021.2.3,59.964561902684764,
images/exp2a_trial_177_colour1_distractors9_l.png,l,1,1,9,0,,,,,0,190,190,190,,,,,,,,,,,,,,,,,,,,,,,,,,,,,,,,,,,,,,,,,,,461.16395477799233,None,2,0.2376340819755569,461.16395477799233,None,,,,,,,,,,,,,,,,None,None,None,,None,None,461.4472520509735,None,1,1,0.7716463480028324,461.4472520509735,None,462.21432171110644,None,None,None,None,,37,001,2023_Jan_30_1419,searchDisc5,2021.2.3,59.964561902684764,
images/exp2b_trial_217_colour3_distractors1_l.png,l,1,3,1,0,,,,,0,191,191,191,,,,,,,,,,,,,,,,,,,,,,,,,,,,,,,,,,,,,,,,,,,462.2329324409948,None,2,0.23770749900722876,462.2329324409948,None,,,,,,,,,,,,,,,,None,None,None,,None,None,462.51432943699183,None,1,1,0.7889793270151131,462.51432943699183,None,463.29718230409196,None,None,None,None,,37,001,2023_Jan_30_1419,searchDisc5,2021.2.3,59.964561902684764,
images/exp2a_trial_197_colour2_distractors1_r.png,r,3,2,1,0,,,,,0,192,192,192,,,,,,,,,,,,,,,,,,,,,,,,,,,,,,,,,,,,,,,,,,,463.3134083370096,None,2,0.1712357910000719,463.3134083370096,None,,,,,,,,,,,,,,,,None,None,None,,None,None,463.53095801500604,None,3,1,0.9227386229904369,463.53095801500604,None,464.44774427707887,None,None,None,None,,37,001,2023_Jan_30_1419,searchDisc5,2021.2.3,59.964561902684764,
images/exp2b_trial_58_colour3_distractors4_l.png,l,1,3,4,0,,,,,0,193,193,193,,,,,,,,,,,,,,,,,,,,,,,,,,,,,,,,,,,,,,,,,,,464.4641981939785,None,2,0.32116274698637426,464.4641981939785,None,,,,,,,,,,,,,,,,None,None,None,,None,None,464.83124854497146,None,1,1,1.238974331994541,464.83124854497146,None,466.0643840680772,None,None,None,None,,37,001,2023_Jan_30_1419,searchDisc5,2021.2.3,59.964561902684764,
images/exp1a_trial_21_colour2_distractors4_l.png,l,1,2,4,0,,,,,0,194,194,194,,,,,,,,,,,,,,,,,,,,,,,,,,,,,,,,,,,,,,,,,,,466.0826069439645,None,2,0.3212582870037295,466.0826069439645,None,,,,,,,,,,,,,,,,None,None,None,,None,None,466.4479273739853,None,1,1,1.6050556459813379,466.4479273739853,None,468.0476156860881,None,None,None,None,,37,001,2023_Jan_30_1419,searchDisc5,2021.2.3,59.964561902684764,
images/exp2a_trial_103_colour2_distractors9_r.png,r,3,2,9,0,,,,,0,195,195,195,,,,,,,,,,,,,,,,,,,,,,,,,,,,,,,,,,,,,,,,,,,468.06427424697904,None,2,0.2732209140085615,468.06427424697904,None,,,,,,,,,,,,,,,,None,None,None,,None,None,468.38150247896556,None,3,1,1.0322937419987284,468.38150247896556,None,469.41442040808613,None,None,None,None,,37,001,2023_Jan_30_1419,searchDisc5,2021.2.3,59.964561902684764,
images/exp2c_trial_281_colour3_distractors1_l.png,l,1,3,1,0,,,,,0,196,196,196,,,,,,,,,,,,,,,,,,,,,,,,,,,,,,,,,,,,,,,,,,,469.4310836509685,None,2,0.2882285990053788,469.4310836509685,None,,,,,,,,,,,,,,,,None,None,None,,None,None,469.7646232119878,None,1,1,0.6388270590105094,469.7646232119878,None,470.39761275507624,None,None,None,None,,37,001,2023_Jan_30_1419,searchDisc5,2021.2.3,59.964561902684764,
images/exp2c_trial_128_colour1_distractors1_r.png,r,3,1,1,0,,,,,0,197,197,197,,,,,,,,,,,,,,,,,,,,,,,,,,,,,,,,,,,,,,,,,,,470.41399129200727,None,2,0.30460916296578944,470.41399129200727,None,,,,,,,,,,,,,,,,None,None,None,,None,None,470.76480408298085,None,3,1,0.6224845349788666,470.76480408298085,None,471.3811219781113,None,None,None,None,,37,001,2023_Jan_30_1419,searchDisc5,2021.2.3,59.964561902684764,
images/exp1a_trial_166_colour2_distractors4_r.png,r,3,2,4,0,,,,,0,198,198,198,,,,,,,,,,,,,,,,,,,,,,,,,,,,,,,,,,,,,,,,,,,471.39702529698843,None,2,0.23975582799175754,471.39702529698843,None,,,,,,,,,,,,,,,,None,None,None,,None,None,471.68130137899425,None,3,1,0.736070211045444,471.68130137899425,None,472.41400407709295,None,None,None,None,,37,001,2023_Jan_30_1419,searchDisc5,2021.2.3,59.964561902684764,
images/exp2a_trial_94_colour0_distractors0_r.png,r,3,0,0,0,,,,,0,199,199,199,,,,,,,,,,,,,,,,,,,,,,,,,,,,,,,,,,,,,,,,,,,472.4304260989884,None,2,0.23962288798065856,472.4304260989884,None,,,,,,,,,,,,,,,,None,None,None,,None,None,472.7148735789815,None,3,1,0.5540046219830401,472.7148735789815,None,473.2637240390817,None,None,None,None,,37,001,2023_Jan_30_1419,searchDisc5,2021.2.3,59.964561902684764,
images/exp2b_trial_92_colour3_distractors19_l.png,l,1,3,19,0,,,,,0,200,200,200,,,,,,,,,,,,,,,,,,,,,,,,,,,,,,,,,,,,,,,,,,,473.2811904329574,None,2,0.20658039499539882,473.2811904329574,None,,,,,,,,,,,,,,,,None,None,None,,None,None,473.5333417619695,None,1,1,0.5539245409891009,473.5333417619695,None,474.0813186781073,None,None,None,None,,37,001,2023_Jan_30_1419,searchDisc5,2021.2.3,59.964561902684764,
images/exp1a_trial_293_colour2_distractors1_r.png,r,3,2,1,0,,,,,0,201,201,201,,,,,,,,,,,,,,,,,,,,,,,,,,,,,,,,,,,,,,,,,,,474.09791525499895,None,2,0.1863363140146248,474.09791525499895,None,,,,,,,,,,,,,,,,None,None,None,,None,None,474.3336251889705,None,3,1,0.5901137809851207,474.3336251889705,None,474.9146040190884,None,None,None,None,,37,001,2023_Jan_30_1419,searchDisc5,2021.2.3,59.964561902684764,
images/exp2b_trial_317_colour3_distractors31_l.png,l,1,3,31,0,,,,,0,202,202,202,,,,,,,,,,,,,,,,,,,,,,,,,,,,,,,,,,,,,,,,,,,474.9312219339772,None,2,0.20649782294640318,474.9312219339772,None,,,,,,,,,,,,,,,,None,None,None,,None,None,475.1836292190128,None,1,1,0.7016572899883613,475.1836292190128,None,475.88121216907746,None,None,None,None,,37,001,2023_Jan_30_1419,searchDisc5,2021.2.3,59.964561902684764,
images/exp2c_trial_298_colour3_distractors1_r.png,r,3,3,1,0,,,,,0,203,203,203,,,,,,,,,,,,,,,,,,,,,,,,,,,,,,,,,,,,,,,,,,,475.89780120400246,None,2,0.23914120002882555,475.89780120400246,None,,,,,,,,,,,,,,,,None,None,None,,None,None,476.182947090012,None,3,1,0.7865023229969665,476.182947090012,None,476.96398958709904,None,None,None,None,,37,001,2023_Jan_30_1419,searchDisc5,2021.2.3,59.964561902684764,
images/exp2a_trial_247_colour2_distractors19_l.png,l,1,2,19,0,,,,,0,204,204,204,,,,,,,,,,,,,,,,,,,,,,,,,,,,,,,,,,,,,,,,,,,476.9813085809583,None,2,0.2406116159982048,476.9813085809583,None,,,,,,,,,,,,,,,,None,None,None,,None,None,477.26892564696027,None,1,1,1.1460753460414708,477.26892564696027,None,478.4148696271062,None,None,None,None,,37,001,2023_Jan_30_1419,searchDisc5,2021.2.3,59.964561902684764,
images/exp1a_trial_185_colour3_distractors1_l.png,l,1,3,1,0,,,,,0,205,205,205,,,,,,,,,,,,,,,,,,,,,,,,,,,,,,,,,,,,,,,,,,,478.4313849179889,None,2,0.2874353569932282,478.4313849179889,None,,,,,,,,,,,,,,,,None,None,None,,None,None,478.7648390409886,None,1,1,0.7061448710155673,478.7648390409886,None,479.4649149130622,None,None,None,None,,37,001,2023_Jan_30_1419,searchDisc5,2021.2.3,59.964561902684764,
images/exp1a_trial_194_colour1_distractors9_r.png,r,3,1,9,0,,,,,0,206,206,206,,,,,,,,,,,,,,,,,,,,,,,,,,,,,,,,,,,,,,,,,,,479.4807158969925,None,2,0.2873742379597388,479.4807158969925,None,,,,,,,,,,,,,,,,None,None,None,,None,None,479.8149946439662,None,3,1,0.8039168179966509,479.8149946439662,None,480.6147598180745,None,None,None,None,,37,001,2023_Jan_30_1419,searchDisc5,2021.2.3,59.964561902684764,
images/exp2a_trial_187_colour3_distractors9_l.png,l,1,3,9,0,,,,,0,207,207,207,,,,,,,,,,,,,,,,,,,,,,,,,,,,,,,,,,,,,,,,,,,480.63331602700055,None,2,0.27125833701575175,480.63331602700055,None,,,,,,,,,,,,,,,,None,None,None,,None,None,480.94804910797393,None,1,1,0.7212989630061202,480.94804910797393,None,481.66488602007155,None,None,None,None,,37,001,2023_Jan_30_1419,searchDisc5,2021.2.3,59.964561902684764,
images/exp1a_trial_276_colour2_distractors1_l.png,l,1,2,1,0,,,,,0,208,208,208,,,,,,,,,,,,,,,,,,,,,,,,,,,,,,,,,,,,,,,,,,,481.6834289749968,None,2,0.3065220220014453,481.6834289749968,None,,,,,,,,,,,,,,,,None,None,None,,None,None,482.03146740898956,None,1,1,0.5873440449940972,482.03146740898956,None,482.61470825307185,None,None,None,None,,37,001,2023_Jan_30_1419,searchDisc5,2021.2.3,59.964561902684764,
images/exp2c_trial_287_colour0_distractors0_l.png,l,1,0,0,0,,,,,0,209,209,209,,,,,,,,,,,,,,,,,,,,,,,,,,,,,,,,,,,,,,,,,,,482.6314507609932,None,2,0.23993764800252393,482.6314507609932,None,,,,,,,,,,,,,,,,None,None,None,,None,None,482.91510625596857,None,1,1,0.6377986060106196,482.91510625596857,None,483.54828884109736,None,None,None,None,,37,001,2023_Jan_30_1419,searchDisc5,2021.2.3,59.964561902684764,
images/exp2a_trial_182_colour2_distractors9_l.png,l,1,2,9,0,,,,,0,210,210,210,,,,,,,,,,,,,,,,,,,,,,,,,,,,,,,,,,,,,,,,,,,483.5648748879903,None,2,0.15438404196174815,483.5648748879903,None,,,,,,,,,,,,,,,,None,None,None,,None,None,483.7649096309906,None,1,1,0.7858346110442653,483.7649096309906,None,484.54829843209006,None,None,None,None,,37,001,2023_Jan_30_1419,searchDisc5,2021.2.3,59.964561902684764,
images/exp2b_trial_316_colour3_distractors19_l.png,l,1,3,19,0,,,,,0,211,211,211,,,,,,,,,,,,,,,,,,,,,,,,,,,,,,,,,,,,,,,,,,,484.56452451396035,None,2,0.1876021360512823,484.56452451396035,None,,,,,,,,,,,,,,,,None,None,None,,None,None,484.800432930002,None,1,1,0.80357108800672,484.800432930002,None,485.59810492105896,None,None,None,None,,37,001,2023_Jan_30_1419,searchDisc5,2021.2.3,59.964561902684764,
images/exp2a_trial_300_colour3_distractors9_r.png,r,3,3,9,0,,,,,0,212,212,212,,,,,,,,,,,,,,,,,,,,,,,,,,,,,,,,,,,,,,,,,,,485.6141823529615,None,2,0.16953491396270692,485.6141823529615,None,,,,,,,,,,,,,,,,None,None,None,,None,None,485.83369791699806,None,3,1,0.9050344990100712,485.83369791699806,None,486.7316596140794,None,None,None,None,,37,001,2023_Jan_30_1419,searchDisc5,2021.2.3,59.964561902684764,
images/exp2a_trial_202_colour3_distractors1_r.png,r,3,3,1,0,,,,,0,213,213,213,,,,,,,,,,,,,,,,,,,,,,,,,,,,,,,,,,,,,,,,,,,486.7480963189737,None,2,0.2900057790102437,486.7480963189737,None,,,,,,,,,,,,,,,,None,None,None,,None,None,487.0819829829852,None,3,1,1.121223468973767,487.0819829829852,None,488.1984222260711,None,None,None,None,,37,001,2023_Jan_30_1419,searchDisc5,2021.2.3,59.964561902684764,
images/exp2a_trial_56_colour2_distractors31_l.png,l,1,2,31,0,,,,,0,214,214,214,,,,,,,,,,,,,,,,,,,,,,,,,,,,,,,,,,,,,,,,,,,488.2148685500142,None,2,0.23899140604771674,488.2148685500142,None,,,,,,,,,,,,,,,,None,None,None,,None,None,488.50531704799505,None,1,1,0.8260640830267221,488.50531704799505,None,489.331043962104,None,None,None,None,,37,001,2023_Jan_30_1419,searchDisc5,2021.2.3,59.964561902684764,
images/exp2c_trial_26_colour3_distractors4_l.png,l,1,3,4,0,,,,,0,215,215,215,,,,,,,,,,,,,,,,,,,,,,,,,,,,,,,,,,,,,,,,,,,489.34826557000633,None,2,0.15566045604646206,489.34826557000633,None,,,,,,,,,,,,,,,,None,None,None,,None,None,489.55021157697774,None,1,1,0.7552605749806389,489.55021157697774,None,490.2982905280718,None,None,None,None,,37,001,2023_Jan_30_1419,searchDisc5,2021.2.3,59.964561902684764,
images/exp2b_trial_48_colour1_distractors4_l.png,l,1,1,4,0,,,,,0,216,216,216,,,,,,,,,,,,,,,,,,,,,,,,,,,,,,,,,,,,,,,,,,,490.3148688939982,None,2,0.15416419605026022,490.3148688939982,None,,,,,,,,,,,,,,,,None,None,None,,None,None,490.5169478839962,None,1,1,0.872575132001657,490.5169478839962,None,491.38181449409456,None,None,None,None,,37,001,2023_Jan_30_1419,searchDisc5,2021.2.3,59.964561902684764,
images/exp1a_trial_175_colour1_distractors1_l.png,l,1,1,1,0,,,,,0,217,217,217,,,,,,,,,,,,,,,,,,,,,,,,,,,,,,,,,,,,,,,,,,,491.3984206849709,None,2,0.10633462097030133,491.3984206849709,None,,,,,,,,,,,,,,,,None,None,None,,None,None,491.5505027420004,None,1,1,0.6037956940126605,491.5505027420004,None,492.1483714421105,None,None,None,None,,37,001,2023_Jan_30_1419,searchDisc5,2021.2.3,59.964561902684764,
images/exp1a_trial_241_colour1_distractors9_l.png,l,1,1,9,0,,,,,0,218,218,218,,,,,,,,,,,,,,,,,,,,,,,,,,,,,,,,,,,,,,,,,,,492.1669922089786,None,2,0.10454572201706469,492.1669922089786,None,,,,,,,,,,,,,,,,None,None,None,,None,None,492.31721278995974,None,1,1,0.769801924994681,492.31721278995974,None,493.081623480079,None,None,None,None,,37,001,2023_Jan_30_1419,searchDisc5,2021.2.3,59.964561902684764,
images/exp2b_trial_17_colour1_distractors9_l.png,l,1,1,9,0,,,,,0,219,219,219,,,,,,,,,,,,,,,,,,,,,,,,,,,,,,,,,,,,,,,,,,,493.0984313850058,None,2,0.10457979998318478,493.0984313850058,None,,,,,,,,,,,,,,,,None,None,None,,None,None,493.2482288799947,None,1,1,1.4397868210216984,493.2482288799947,None,494.6817487560969,None,None,None,None,,37,001,2023_Jan_30_1419,searchDisc5,2021.2.3,59.964561902684764,
images/exp1a_trial_19_colour1_distractors31_l.png,l,1,1,31,0,,,,,0,220,220,220,,,,,,,,,,,,,,,,,,,,,,,,,,,,,,,,,,,,,,,,,,,494.6983240569825,None,2,0.17112629901384935,494.6983240569825,None,,,,,,,,,,,,,,,,None,None,None,,None,None,494.91736338299233,None,1,1,1.0337868059868924,494.91736338299233,None,495.9485171500768,None,None,None,None,,37,001,2023_Jan_30_1419,searchDisc5,2021.2.3,59.964561902684764,
images/exp2c_trial_295_colour2_distractors9_r.png,r,3,2,9,0,,,,,0,221,221,221,,,,,,,,,,,,,,,,,,,,,,,,,,,,,,,,,,,,,,,,,,,495.96725331799826,None,2,0.22106833098223433,495.96725331799826,None,,,,,,,,,,,,,,,,None,None,None,,None,None,496.2320038820035,None,3,1,1.0880868750391528,496.2320038820035,None,497.3151719601068,None,None,None,None,,37,001,2023_Jan_30_1419,searchDisc5,2021.2.3,59.964561902684764,
images/exp1a_trial_301_colour3_distractors19_r.png,r,3,3,19,0,,,,,0,222,222,222,,,,,,,,,,,,,,,,,,,,,,,,,,,,,,,,,,,,,,,,,,,497.3336591979605,None,2,0.2710721039911732,497.3336591979605,None,,,,,,,,,,,,,,,,None,None,None,,None,None,497.64885048998985,None,3,1,0.719120766967535,497.64885048998985,None,498.3651251390751,None,None,None,None,,37,001,2023_Jan_30_1419,searchDisc5,2021.2.3,59.964561902684764,
images/exp2a_trial_184_colour2_distractors31_l.png,l,1,2,31,0,,,,,0,223,223,223,,,,,,,,,,,,,,,,,,,,,,,,,,,,,,,,,,,,,,,,,,,498.3833247029688,None,2,0.2523344510118477,498.3833247029688,None,,,,,,,,,,,,,,,,None,None,None,,None,None,498.68191777996253,None,1,1,1.3625728560145944,498.68191777996253,None,500.04878933606085,None,None,None,None,,37,001,2023_Jan_30_1419,searchDisc5,2021.2.3,59.964561902684764,
