ImageFile,targ_side,correctAnswer,colour,distNo,targetType,trials_2.thisRepN,trials_2.thisTrialN,trials_2.thisN,trials_2.thisIndex,trials.thisRepN,trials.thisTrialN,trials.thisN,trials.thisIndex,text_6.started,text_6.stopped,buttonBox.keys,buttonBox.rt,buttonBox.started,buttonBox.stopped,text_7.started,text_7.stopped,buttonBox_3.keys,buttonBox_3.rt,buttonBox_3.started,buttonBox_3.stopped,text_8.started,text_8.stopped,buttonBox_4.keys,buttonBox_4.rt,buttonBox_4.started,buttonBox_4.stopped,text_9.started,text_9.stopped,buttonBox_5.keys,buttonBox_5.rt,buttonBox_5.started,buttonBox_5.stopped,text_2.started,text_2.stopped,buttonBox_6.keys,buttonBox_6.rt,buttonBox_6.started,buttonBox_6.stopped,text_5.started,text_5.stopped,buttonBox_7.keys,buttonBox_7.rt,image_2.started,image_2.stopped,image_3.started,image_3.stopped,buttonBox_8.keys,buttonBox_8.rt,buttonBox_8.started,buttonBox_8.stopped,polygon.started,polygon.stopped,buttonBox_9.keys,buttonBox_9.rt,buttonBox_9.started,buttonBox_9.stopped,image.started,image.stopped,buttonBox_10.keys,buttonBox_10.corr,buttonBox_10.rt,buttonBox_10.started,buttonBox_10.stopped,text_4.started,text_4.stopped,text.started,text.stopped,buttonBox_11.keys,buttonBox_11.rt,buttonBox_11.started,buttonBox_11.stopped,targetTypeInstruction.started,targetTypeInstruction.stopped,buttonBox_2.keys,buttonBox_2.rt,buttonBox_2.started,buttonBox_2.stopped,dispStimuli.started,dispStimuli.stopped,buttonBox_12.keys,buttonBox_12.corr,buttonBox_12.rt,buttonBox_12.started,buttonBox_12.stopped,breakMessage.started,breakMessage.stopped,buttonBox_13.keys,buttonBox_13.started,buttonBox_13.stopped,buttonBox_13.rt,participant,session,date,expName,psychopyVersion,frameRate,
,,,,,,,,,,,,,,50.351647672010586,None,2,55.4031448859605,50.351647672010586,None,,,,,,,,,,,,,,,,,,,,,,,,,,,,,,,,,,,,,,,,,,,,,,,,,,,,,,,,,,,,,,,,,,,,,,,,,,,,,38,001,2023_Jan_30_1516,searchDisc5,2021.2.3,60.033127713215116,
,,,,,,,,,,,,,,,,,,,,105.7532255660044,None,2,29.133081966021564,105.7532255660044,None,,,,,,,,,,,,,,,,,,,,,,,,,,,,,,,,,,,,,,,,,,,,,,,,,,,,,,,,,,,,,,,,,,,,,,,38,001,2023_Jan_30_1516,searchDisc5,2021.2.3,60.033127713215116,
,,,,,,,,,,,,,,,,,,,,,,,,,,134.8873264680151,None,2,4.331869572983123,134.8873264680151,None,,,,,,,,,,,,,,,,,,,,,,,,,,,,,,,,,,,,,,,,,,,,,,,,,,,,,,,,,,,,,,,,,38,001,2023_Jan_30_1516,searchDisc5,2021.2.3,60.033127713215116,
,,,,,,,,,,,,,,,,,,,,,,,,,,,,,,,,139.21871579997241,None,2,9.329348021012265,139.21871579997241,None,,,,,,,,,,,,,,,,,,,,,,,,,,,,,,,,,,,,,,,,,,,,,,,,,,,,,,,,,,,38,001,2023_Jan_30_1516,searchDisc5,2021.2.3,60.033127713215116,
,,,,,,,,,,,,,,,,,,,,,,,,,,,,,,,,,,,,,,148.55220880999696,None,2,4.798184164974373,149.5377553930157,None,,,,,,,,,,,,,,,,,,,,,,,,,,,,,,,,,,,,,,,,,,,,,,,,,,,,,38,001,2023_Jan_30_1516,searchDisc5,2021.2.3,60.033127713215116,
,,,,,,,,,,,,,,,,,,,,,,,,,,,,,,,,,,,,,,,,,,,,154.3357728080009,None,2,13.665100855985656,,,,,,,,,,,,,,,,,,,,,,,,,,,,,,,,,,,,,,,,,,,,,,,,,38,001,2023_Jan_30_1516,searchDisc5,2021.2.3,60.033127713215116,
,,,,,,,,,,,,,,,,,,,,,,,,,,,,,,,,,,,,,,,,,,,,,,,,171.003111248021,None,171.003111248021,None,2,6.1497686030343175,171.003111248021,None,,,,,,,,,,,,,,,,,,,,,,,,,,,,,,,,,,,,,,,,,38,001,2023_Jan_30_1516,searchDisc5,2021.2.3,60.033127713215116,
Practice arrays/exp1a_trial_0_colour1_distractors1_r.png,r,3,,,,0,0,0,0,,,,,,,,,,,,,,,,,,,,,,,,,,,,,,,,,,,,,,,,,,,,,,,177.1885126659763,None,2,14.484192533011083,177.1885126659763,None,191.7223086609738,None,3,1,3.6734426240436733,191.7223086609738,None,195.3863412209903,None,,,,,,,,,,,,,,,,,,,,,,,,,,38,001,2023_Jan_30_1516,searchDisc5,2021.2.3,60.033127713215116,
Practice arrays/exp1a_trial_17_colour1_distractors9_l.png,l,1,,,,0,1,1,7,,,,,,,,,,,,,,,,,,,,,,,,,,,,,,,,,,,,,,,,,,,,,,,197.38886489899596,None,2,0.9297168100019917,197.38886489899596,None,198.36986078700284,None,1,1,2.3351074079982936,198.36986078700284,None,200.70376994798426,None,,,,,,,,,,,,,,,,,,,,,,,,,,38,001,2023_Jan_30_1516,searchDisc5,2021.2.3,60.033127713215116,
Practice arrays/exp1a_trial_18_colour1_distractors19_l.png,l,1,,,,0,2,2,8,,,,,,,,,,,,,,,,,,,,,,,,,,,,,,,,,,,,,,,,,,,,,,,202.70531311200466,None,2,1.98238326999126,202.70531311200466,None,204.73903742799303,None,1,1,2.0326386929955333,204.73903742799303,None,206.77065138000762,None,,,,,,,,,,,,,,,,,,,,,,,,,,38,001,2023_Jan_30_1516,searchDisc5,2021.2.3,60.033127713215116,
Practice arrays/exp1a_trial_7_colour2_distractors9_r.png,r,3,,,,0,3,3,2,,,,,,,,,,,,,,,,,,,,,,,,,,,,,,,,,,,,,,,,,,,,,,,208.7723745990079,None,2,0.9803129089996219,208.7723745990079,None,209.8033589529805,None,3,1,1.2187380400137044,209.8033589529805,None,211.02023148199078,None,,,,,,,,,,,,,,,,,,,,,,,,,,38,001,2023_Jan_30_1516,searchDisc5,2021.2.3,60.033127713215116,
Practice arrays/exp1a_trial_23_colour2_distractors19_l.png,l,1,,,,0,4,4,10,,,,,,,,,,,,,,,,,,,,,,,,,,,,,,,,,,,,,,,,,,,,,,,213.02283821598394,None,2,0.9137828620150685,213.02283821598394,None,213.98759529402014,None,1,1,1.668192540993914,213.98759529402014,None,215.65427845402155,None,,,,,,,,,,,,,,,,,,,,,,,,,,38,001,2023_Jan_30_1516,searchDisc5,2021.2.3,60.033127713215116,
Practice arrays/exp1a_trial_1_colour1_distractors4_r.png,r,3,,,,0,5,5,1,,,,,,,,,,,,,,,,,,,,,,,,,,,,,,,,,,,,,,,,,,,,,,,217.65583404101199,None,2,0.880480082007125,217.65583404101199,None,218.58934726699954,None,3,1,1.4044745049905032,218.58934726699954,None,219.9876153920195,None,,,,,,,,,,,,,,,,,,,,,,,,,,38,001,2023_Jan_30_1516,searchDisc5,2021.2.3,60.033127713215116,
Practice arrays/exp1a_trial_10_colour3_distractors1_r.png,r,3,,,,0,6,6,4,,,,,,,,,,,,,,,,,,,,,,,,,,,,,,,,,,,,,,,,,,,,,,,221.9893078780151,None,2,0.9637746840016916,221.9893078780151,None,223.00451738201082,None,3,1,1.7050393900135532,223.00451738201082,None,224.704442835995,None,,,,,,,,,,,,,,,,,,,,,,,,,,38,001,2023_Jan_30_1516,searchDisc5,2021.2.3,60.033127713215116,
Practice arrays/exp1a_trial_8_colour2_distractors19_r.png,r,3,,,,0,7,7,3,,,,,,,,,,,,,,,,,,,,,,,,,,,,,,,,,,,,,,,,,,,,,,,226.70632756798295,None,2,1.0462069989880547,226.70632756798295,None,227.80671402602457,None,3,1,1.1515117620001547,227.80671402602457,None,228.95454706798773,None,,,,,,,,,,,,,,,,,,,,,,,,,,38,001,2023_Jan_30_1516,searchDisc5,2021.2.3,60.033127713215116,
Practice arrays/exp1a_trial_25_colour3_distractors1_l.png,l,1,,,,0,8,8,11,,,,,,,,,,,,,,,,,,,,,,,,,,,,,,,,,,,,,,,,,,,,,,,230.95668289001333,None,2,0.8326829680008814,230.95668289001333,None,231.84025147202192,None,1,1,1.1011340380064212,231.84025147202192,None,232.9379062569933,None,,,,,,,,,,,,,,,,,,,,,,,,,,38,001,2023_Jan_30_1516,searchDisc5,2021.2.3,60.033127713215116,
Practice arrays/exp1a_trial_12_colour3_distractors9_r.png,r,3,,,,0,9,9,5,,,,,,,,,,,,,,,,,,,,,,,,,,,,,,,,,,,,,,,,,,,,,,,234.93961267499253,None,2,0.8658157450263388,234.93961267499253,None,235.85687974997563,None,3,1,1.5181939480244182,235.85687974997563,None,237.37138815800427,None,,,,,,,,,,,,,,,,,,,,,,,,,,38,001,2023_Jan_30_1516,searchDisc5,2021.2.3,60.033127713215116,
Practice arrays/exp1a_trial_27_colour3_distractors9_l.png,l,1,,,,0,10,10,12,,,,,,,,,,,,,,,,,,,,,,,,,,,,,,,,,,,,,,,,,,,,,,,239.3732292209752,None,2,0.8823715969920158,239.3732292209752,None,240.30669177498203,None,1,1,1.3335331729613245,240.30669177498203,None,241.63829078699928,None,,,,,,,,,,,,,,,,,,,,,,,,,,38,001,2023_Jan_30_1516,searchDisc5,2021.2.3,60.033127713215116,
Practice arrays/exp1a_trial_21_colour2_distractors4_l.png,l,1,,,,0,11,11,9,,,,,,,,,,,,,,,,,,,,,,,,,,,,,,,,,,,,,,,,,,,,,,,243.6403651359724,None,2,0.8993262010044418,243.6403651359724,None,244.58847817900823,None,1,1,1.3527485160157084,244.58847817900823,None,245.93825483002,None,,,,,,,,,,,,,,,,,,,,,,,,,,38,001,2023_Jan_30_1516,searchDisc5,2021.2.3,60.033127713215116,
Practice arrays/exp1a_trial_31_colour0_distractors0_l.png,l,1,,,,0,12,12,15,,,,,,,,,,,,,,,,,,,,,,,,,,,,,,,,,,,,,,,,,,,,,,,247.94046975899255,None,2,0.8659904000232928,247.94046975899255,None,248.8568616770208,None,1,1,1.3043887310195714,248.8568616770208,None,250.15497327200137,None,,,,,,,,,,,,,,,,,,,,,,,,,,38,001,2023_Jan_30_1516,searchDisc5,2021.2.3,60.033127713215116,
Practice arrays/exp1a_trial_16_colour1_distractors4_l.png,l,1,,,,0,13,13,13,,,,,,,,,,,,,,,,,,,,,,,,,,,,,,,,,,,,,,,,,,,,,,,252.1571413350175,None,2,0.9301873639924452,252.1571413350175,None,253.13848816300742,None,1,1,1.0726443940075114,253.13848816300742,None,254.2051222070004,None,,,,,,,,,,,,,,,,,,,,,,,,,,38,001,2023_Jan_30_1516,searchDisc5,2021.2.3,60.033127713215116,
Practice arrays/exp1a_trial_30_colour0_distractors0_r.png,r,3,,,,0,14,14,14,,,,,,,,,,,,,,,,,,,,,,,,,,,,,,,,,,,,,,,,,,,,,,,256.2073427159921,None,2,1.5805610649986193,256.2073427159921,None,257.8386938769836,None,3,1,0.9560693849925883,257.8386938769836,None,258.78868960699765,None,,,,,,,,,,,,,,,,,,,,,,,,,,38,001,2023_Jan_30_1516,searchDisc5,2021.2.3,60.033127713215116,
Practice arrays/exp1a_trial_14_colour3_distractors31_r.png,r,3,,,,0,15,15,6,,,,,,,,,,,,,,,,,,,,,,,,,,,,,,,,,,,,,,,,,,,,,,,260.79059512302047,None,2,0.8303155329776928,260.79059512302047,None,261.67450797202764,None,3,1,1.1317433880176395,261.67450797202764,None,262.8054284399841,None,,,,,,,,,,,,,,,,,,,,,,,,,,38,001,2023_Jan_30_1516,searchDisc5,2021.2.3,60.033127713215116,
,,,,,,,,,,,,,,,,,,,,,,,,,,,,,,,,,,,,,,,,,,,,,,,,,,,,,,,,,,,,,,,,,,,,,,,264.8907534410246,None,2,7.348108989011962,265.87410768697737,None,,,,,,,,,,,,,,,,,,,,38,001,2023_Jan_30_1516,searchDisc5,2021.2.3,60.033127713215116,
images/exp1b_trial_108_colour3_distractors9_r.png,r,3,3,9,1,,,,,0,0,0,0,,,,,,,,,,,,,,,,,,,,,,,,,,,,,,,,,,,,,,,,,,,279.0907849050127,None,2,1.4113731100223958,279.0907849050127,None,,,,,,,,,,,,,,,,273.80729964200873,None,2,3.299094607005827,275.7907953970134,None,280.5550780610065,None,3,1,1.8817254889872856,280.5550780610065,None,282.45637006197353,None,None,None,None,,38,001,2023_Jan_30_1516,searchDisc5,2021.2.3,60.033127713215116,
images/exp1b_trial_232_colour2_distractors19_r.png,r,3,2,19,1,,,,,0,1,1,1,,,,,,,,,,,,,,,,,,,,,,,,,,,,,,,,,,,,,,,,,,,282.4727240349748,None,2,6.656347567040939,282.4727240349748,None,,,,,,,,,,,,,,,,None,None,None,,None,None,289.17239521298325,None,3,1,1.435854483046569,289.17239521298325,None,290.6062673445034,None,None,None,None,,38,001,2023_Jan_30_1516,searchDisc5,2021.2.3,60.033127713215116,
images/exp1b_trial_229_colour2_distractors1_r.png,r,3,2,1,1,,,,,0,2,2,2,,,,,,,,,,,,,,,,,,,,,,,,,,,,,,,,,,,,,,,,,,,290.6230309099774,None,2,2.9186469959677197,290.6230309099774,None,,,,,,,,,,,,,,,,None,None,None,,None,None,293.5918170239893,None,3,1,0.8395672900369391,293.5918170239893,None,294.4232692834979,None,None,None,None,,38,001,2023_Jan_30_1516,searchDisc5,2021.2.3,60.033127713215116,
images/exp1b_trial_149_colour2_distractors4_l.png,l,1,2,4,1,,,,,0,3,3,3,,,,,,,,,,,,,,,,,,,,,,,,,,,,,,,,,,,,,,,,,,,294.4395786540117,None,2,2.3696421200293116,294.4395786540117,None,,,,,,,,,,,,,,,,None,None,None,,None,None,296.8583875169861,None,1,1,0.8880467009730637,296.8583875169861,None,297.73918895447275,None,None,None,None,,38,001,2023_Jan_30_1516,searchDisc5,2021.2.3,60.033127713215116,
images/exp1b_trial_134_colour2_distractors4_r.png,r,3,2,4,1,,,,,0,4,4,4,,,,,,,,,,,,,,,,,,,,,,,,,,,,,,,,,,,,,,,,,,,297.75662355002714,None,2,1.0712420099880546,297.75662355002714,None,,,,,,,,,,,,,,,,None,None,None,,None,None,298.8753035219852,None,3,1,0.5858964729704894,298.8753035219852,None,299.4565508564759,None,None,None,None,,38,001,2023_Jan_30_1516,searchDisc5,2021.2.3,60.033127713215116,
images/exp1b_trial_7_colour2_distractors9_r.png,r,3,2,9,1,,,,,0,5,5,5,,,,,,,,,,,,,,,,,,,,,,,,,,,,,,,,,,,,,,,,,,,299.4723558090045,None,2,1.2371021850267425,299.4723558090045,None,,,,,,,,,,,,,,,,None,None,None,,None,None,300.7586485570064,None,3,1,0.7047440850292332,300.7586485570064,None,301.4564493644924,None,None,None,None,,38,001,2023_Jan_30_1516,searchDisc5,2021.2.3,60.033127713215116,
images/exp1b_trial_144_colour1_distractors4_l.png,l,1,1,4,1,,,,,0,6,6,6,,,,,,,,,,,,,,,,,,,,,,,,,,,,,,,,,,,,,,,,,,,301.47305023798253,None,2,0.887918972002808,301.47305023798253,None,,,,,,,,,,,,,,,,None,None,None,,None,None,302.40640234499006,None,1,1,0.7232989039621316,302.40640234499006,None,303.123519832507,None,None,None,None,,38,001,2023_Jan_30_1516,searchDisc5,2021.2.3,60.033127713215116,
images/exp1b_trial_77_colour3_distractors19_r.png,r,3,3,19,1,,,,,0,7,7,7,,,,,,,,,,,,,,,,,,,,,,,,,,,,,,,,,,,,,,,,,,,303.1388597980258,None,2,0.5881002380046993,303.1388597980258,None,,,,,,,,,,,,,,,,None,None,None,,None,None,303.77527849702165,None,3,1,1.1675119059509598,303.77527849702165,None,304.9400751594861,None,None,None,None,,38,001,2023_Jan_30_1516,searchDisc5,2021.2.3,60.033127713215116,
images/exp1b_trial_317_colour3_distractors31_l.png,l,1,3,31,1,,,,,0,8,8,8,,,,,,,,,,,,,,,,,,,,,,,,,,,,,,,,,,,,,,,,,,,304.9564979369752,None,2,0.7732969610369764,304.9564979369752,None,,,,,,,,,,,,,,,,None,None,None,,None,None,305.775085397996,None,1,1,0.8498051280039363,305.775085397996,None,306.62280256749943,None,None,None,None,,38,001,2023_Jan_30_1516,searchDisc5,2021.2.3,60.033127713215116,
images/exp1b_trial_177_colour1_distractors9_l.png,l,1,1,9,1,,,,,0,9,9,9,,,,,,,,,,,,,,,,,,,,,,,,,,,,,,,,,,,,,,,,,,,306.6416417749715,None,2,0.7214499469846487,306.6416417749715,None,,,,,,,,,,,,,,,,None,None,None,,None,None,307.4086175360135,None,1,1,1.1210608760011382,307.4086175360135,None,308.52339510049785,None,None,None,None,,38,001,2023_Jan_30_1516,searchDisc5,2021.2.3,60.033127713215116,
images/exp1b_trial_241_colour1_distractors9_l.png,l,1,1,9,1,,,,,0,10,10,10,,,,,,,,,,,,,,,,,,,,,,,,,,,,,,,,,,,,,,,,,,,308.53925217699725,None,2,0.9899256940116175,308.53925217699725,None,,,,,,,,,,,,,,,,None,None,None,,None,None,309.5754612190067,None,1,1,0.6357048500212841,309.5754612190067,None,310.20688478451336,None,None,None,None,,38,001,2023_Jan_30_1516,searchDisc5,2021.2.3,60.033127713215116,
images/exp1b_trial_106_colour3_distractors1_r.png,r,3,3,1,1,,,,,0,11,11,11,,,,,,,,,,,,,,,,,,,,,,,,,,,,,,,,,,,,,,,,,,,310.2229307779926,None,2,1.0045999379944988,310.2229307779926,None,,,,,,,,,,,,,,,,None,None,None,,None,None,311.27335369301727,None,3,1,0.9554989680182189,311.27335369301727,None,312.2236827724904,None,None,None,None,,38,001,2023_Jan_30_1516,searchDisc5,2021.2.3,60.033127713215116,
images/exp1b_trial_12_colour3_distractors9_r.png,r,3,3,9,1,,,,,0,12,12,12,,,,,,,,,,,,,,,,,,,,,,,,,,,,,,,,,,,,,,,,,,,312.2396932429983,None,2,1.0043630169820972,312.2396932429983,None,,,,,,,,,,,,,,,,None,None,None,,None,None,313.29029456997523,None,3,1,1.0040972050046548,313.29029456997523,None,314.29037479148826,None,None,None,None,,38,001,2023_Jan_30_1516,searchDisc5,2021.2.3,60.033127713215116,
images/exp1b_trial_285_colour3_distractors31_l.png,l,1,3,31,1,,,,,0,13,13,13,,,,,,,,,,,,,,,,,,,,,,,,,,,,,,,,,,,,,,,,,,,314.30636722699273,None,2,0.9898063070140779,314.30636722699273,None,,,,,,,,,,,,,,,,None,None,None,,None,None,315.3398326819879,None,1,1,1.3334542340016924,315.3398326819879,None,316.67322752148027,None,None,None,None,,38,001,2023_Jan_30_1516,searchDisc5,2021.2.3,60.033127713215116,
images/exp1b_trial_217_colour3_distractors1_l.png,l,1,3,1,1,,,,,0,14,14,14,,,,,,,,,,,,,,,,,,,,,,,,,,,,,,,,,,,,,,,,,,,316.690365249,None,2,1.1736619169823825,316.690365249,None,,,,,,,,,,,,,,,,None,None,None,,None,None,317.9089884249843,None,1,1,0.9037117970292456,317.9089884249843,None,318.8072206454875,None,None,None,None,,38,001,2023_Jan_30_1516,searchDisc5,2021.2.3,60.033127713215116,
images/exp1b_trial_86_colour2_distractors9_l.png,l,1,2,9,1,,,,,0,15,15,15,,,,,,,,,,,,,,,,,,,,,,,,,,,,,,,,,,,,,,,,,,,318.823314948997,None,2,1.354155364970211,318.823314948997,None,,,,,,,,,,,,,,,,None,None,None,,None,None,320.22346945502795,None,1,1,1.020151409029495,320.22346945502795,None,321.23971142049993,None,None,None,None,,38,001,2023_Jan_30_1516,searchDisc5,2021.2.3,60.033127713215116,
images/exp1b_trial_243_colour1_distractors31_l.png,l,1,1,31,1,,,,,0,16,16,16,,,,,,,,,,,,,,,,,,,,,,,,,,,,,,,,,,,,,,,,,,,321.2561770339962,None,2,1.6381995769916102,321.2561770339962,None,,,,,,,,,,,,,,,,None,None,None,,None,None,322.9425072990125,None,1,1,1.0855715349898674,322.9425072990125,None,324.0239618914842,None,None,None,None,,38,001,2023_Jan_30_1516,searchDisc5,2021.2.3,60.033127713215116,
images/exp1b_trial_43_colour3_distractors4_r.png,r,3,3,4,1,,,,,0,17,17,17,,,,,,,,,,,,,,,,,,,,,,,,,,,,,,,,,,,,,,,,,,,324.04036645102315,None,2,1.5234639609698206,324.04036645102315,None,,,,,,,,,,,,,,,,None,None,None,,None,None,325.6071765969973,None,3,1,0.9351979590137489,325.6071765969973,None,326.5404195165087,None,None,None,None,,38,001,2023_Jan_30_1516,searchDisc5,2021.2.3,60.033127713215116,
images/exp1b_trial_63_colour0_distractors0_l.png,l,1,0,0,1,,,,,0,18,18,18,,,,,,,,,,,,,,,,,,,,,,,,,,,,,,,,,,,,,,,,,,,326.5573958689929,None,2,1.588170315953903,326.5573958689929,None,,,,,,,,,,,,,,,,None,None,None,,None,None,328.1911559869768,None,1,1,0.6414443730027415,328.1911559869768,None,328.8241804195044,None,None,None,None,,38,001,2023_Jan_30_1516,searchDisc5,2021.2.3,60.033127713215116,
images/exp1b_trial_145_colour1_distractors9_l.png,l,1,1,9,1,,,,,0,19,19,19,,,,,,,,,,,,,,,,,,,,,,,,,,,,,,,,,,,,,,,,,,,328.84044125000946,None,2,1.1199944830150343,328.84044125000946,None,,,,,,,,,,,,,,,,None,None,None,,None,None,330.0093346600188,None,1,1,0.9867635270347819,330.0093346600188,None,330.9908027824771,None,None,None,None,,38,001,2023_Jan_30_1516,searchDisc5,2021.2.3,60.033127713215116,
images/exp1b_trial_172_colour3_distractors9_r.png,r,3,3,9,1,,,,,0,20,20,20,,,,,,,,,,,,,,,,,,,,,,,,,,,,,,,,,,,,,,,,,,,331.0071963610244,None,2,1.4043598370044492,331.0071963610244,None,,,,,,,,,,,,,,,,None,None,None,,None,None,332.4572742669843,None,3,1,0.9732852120068856,332.4572742669843,None,333.4242992585117,None,None,None,None,,38,001,2023_Jan_30_1516,searchDisc5,2021.2.3,60.033127713215116,
images/exp1b_trial_233_colour2_distractors31_r.png,r,3,2,31,1,,,,,0,21,21,21,,,,,,,,,,,,,,,,,,,,,,,,,,,,,,,,,,,,,,,,,,,333.4402796580107,None,2,1.2691104030236602,333.4402796580107,None,,,,,,,,,,,,,,,,None,None,None,,None,None,334.75750932097435,None,3,1,0.8866346619906835,334.75750932097435,None,335.64098330552804,None,None,None,None,,38,001,2023_Jan_30_1516,searchDisc5,2021.2.3,60.033127713215116,
images/exp1b_trial_173_colour3_distractors19_r.png,r,3,3,19,1,,,,,0,22,22,22,,,,,,,,,,,,,,,,,,,,,,,,,,,,,,,,,,,,,,,,,,,335.65696539299097,None,2,1.2547000760096125,335.65696539299097,None,,,,,,,,,,,,,,,,None,None,None,,None,None,336.959677026025,None,3,1,0.9030086939455941,336.959677026025,None,337.8576534524967,None,None,None,None,,38,001,2023_Jan_30_1516,searchDisc5,2021.2.3,60.033127713215116,
images/exp1b_trial_34_colour1_distractors9_r.png,r,3,1,9,1,,,,,0,23,23,23,,,,,,,,,,,,,,,,,,,,,,,,,,,,,,,,,,,,,,,,,,,337.8735313100042,None,2,1.988050275016576,337.8735313100042,None,,,,,,,,,,,,,,,,None,None,None,,None,None,339.90773970400915,None,3,1,1.3207260799827054,339.90773970400915,None,341.22445830051436,None,None,None,None,,38,001,2023_Jan_30_1516,searchDisc5,2021.2.3,60.033127713215116,
images/exp1b_trial_181_colour2_distractors4_l.png,l,1,2,4,1,,,,,0,24,24,24,,,,,,,,,,,,,,,,,,,,,,,,,,,,,,,,,,,,,,,,,,,341.24061743501807,None,2,1.521174615016207,341.24061743501807,None,,,,,,,,,,,,,,,,None,None,None,,None,None,342.8098763289745,None,1,1,0.6049714940018021,342.8098763289745,None,343.4072098775126,None,None,None,None,,38,001,2023_Jan_30_1516,searchDisc5,2021.2.3,60.033127713215116,
images/exp1b_trial_19_colour1_distractors31_l.png,l,1,1,31,1,,,,,0,25,25,25,,,,,,,,,,,,,,,,,,,,,,,,,,,,,,,,,,,,,,,,,,,343.4264439769904,None,2,1.1716734640067443,343.4264439769904,None,,,,,,,,,,,,,,,,None,None,None,,None,None,344.6406836680253,None,1,1,1.5517862110282294,344.6406836680253,None,346.1913066865003,None,None,None,None,,38,001,2023_Jan_30_1516,searchDisc5,2021.2.3,60.033127713215116,
images/exp1b_trial_100_colour1_distractors31_r.png,r,3,1,31,1,,,,,0,26,26,26,,,,,,,,,,,,,,,,,,,,,,,,,,,,,,,,,,,,,,,,,,,346.20736487797694,None,2,1.323258142976556,346.20736487797694,None,,,,,,,,,,,,,,,,None,None,None,,None,None,347.57656568998937,None,3,1,0.7325982180191204,347.57656568998937,None,348.308132014476,None,None,None,None,,38,001,2023_Jan_30_1516,searchDisc5,2021.2.3,60.033127713215116,
images/exp1b_trial_157_colour3_distractors31_l.png,l,1,3,31,1,,,,,0,27,27,27,,,,,,,,,,,,,,,,,,,,,,,,,,,,,,,,,,,,,,,,,,,348.3236101830262,None,2,1.0731803569942713,348.3236101830262,None,,,,,,,,,,,,,,,,None,None,None,,None,None,349.44108639500337,None,1,1,0.9668608499923721,349.44108639500337,None,350.407956487505,None,None,None,None,,38,001,2023_Jan_30_1516,searchDisc5,2021.2.3,60.033127713215116,
images/exp1b_trial_273_colour1_distractors9_l.png,l,1,1,9,1,,,,,0,28,28,28,,,,,,,,,,,,,,,,,,,,,,,,,,,,,,,,,,,,,,,,,,,350.4237965819775,None,2,0.956686939985957,350.4237965819775,None,,,,,,,,,,,,,,,,None,None,None,,None,None,351.426408779982,None,1,1,0.6859431400080211,351.426408779982,None,352.10825907148535,None,None,None,None,,38,001,2023_Jan_30_1516,searchDisc5,2021.2.3,60.033127713215116,
images/exp1b_trial_99_colour1_distractors19_r.png,r,3,1,19,1,,,,,0,29,29,29,,,,,,,,,,,,,,,,,,,,,,,,,,,,,,,,,,,,,,,,,,,352.1263560249936,None,2,0.9230039929971099,352.1263560249936,None,,,,,,,,,,,,,,,,None,None,None,,None,None,353.0934112489922,None,3,1,0.7525109199923463,353.0934112489922,None,353.84143426747175,None,None,None,None,,38,001,2023_Jan_30_1516,searchDisc5,2021.2.3,60.033127713215116,
images/exp1b_trial_255_colour0_distractors0_l.png,l,1,0,0,1,,,,,0,30,30,30,,,,,,,,,,,,,,,,,,,,,,,,,,,,,,,,,,,,,,,,,,,353.85803339997074,None,2,0.903060728975106,353.85803339997074,None,,,,,,,,,,,,,,,,None,None,None,,None,None,354.8100881149876,None,1,1,0.5734054279746488,354.8100881149876,None,355.37500929949454,None,None,None,None,,38,001,2023_Jan_30_1516,searchDisc5,2021.2.3,60.033127713215116,
images/exp1b_trial_118_colour2_distractors9_l.png,l,1,2,9,1,,,,,0,31,31,31,,,,,,,,,,,,,,,,,,,,,,,,,,,,,,,,,,,,,,,,,,,355.39109805301996,None,2,0.5211302349925973,355.39109805301996,None,,,,,,,,,,,,,,,,None,None,None,,None,None,355.9580429510097,None,1,1,1.1704202630207874,355.9580429510097,None,357.12422729249226,None,None,None,None,,38,001,2023_Jan_30_1516,searchDisc5,2021.2.3,60.033127713215116,
images/exp1b_trial_250_colour3_distractors4_l.png,l,1,3,4,1,,,,,0,32,32,32,,,,,,,,,,,,,,,,,,,,,,,,,,,,,,,,,,,,,,,,,,,357.1432994939969,None,2,1.1569346080068499,357.1432994939969,None,,,,,,,,,,,,,,,,None,None,None,,None,None,358.34094297501724,None,1,1,0.9697262009722181,358.34094297501724,None,359.30847642652805,None,None,None,None,,38,001,2023_Jan_30_1516,searchDisc5,2021.2.3,60.033127713215116,
images/exp1b_trial_33_colour1_distractors4_r.png,r,3,1,4,1,,,,,0,33,33,33,,,,,,,,,,,,,,,,,,,,,,,,,,,,,,,,,,,,,,,,,,,359.32461780001177,None,2,1.0709107520524412,359.32461780001177,None,,,,,,,,,,,,,,,,None,None,None,,None,None,360.4415176869952,None,3,1,0.7903992089559324,360.4415176869952,None,361.2249762584746,None,None,None,None,,38,001,2023_Jan_30_1516,searchDisc5,2021.2.3,60.033127713215116,
images/exp1b_trial_155_colour3_distractors9_l.png,l,1,3,9,1,,,,,0,34,34,34,,,,,,,,,,,,,,,,,,,,,,,,,,,,,,,,,,,,,,,,,,,361.2432754500187,None,2,1.1022863709949888,361.2432754500187,None,,,,,,,,,,,,,,,,None,None,None,,None,None,362.3934019919834,None,1,1,0.8553612809628248,362.3934019919834,None,363.24162355147416,None,None,None,None,,38,001,2023_Jan_30_1516,searchDisc5,2021.2.3,60.033127713215116,
images/exp1b_trial_175_colour1_distractors1_l.png,l,1,1,1,1,,,,,0,35,35,35,,,,,,,,,,,,,,,,,,,,,,,,,,,,,,,,,,,,,,,,,,,363.2597402899992,None,2,1.1547173479921184,363.2597402899992,None,,,,,,,,,,,,,,,,None,None,None,,None,None,364.45843975798925,None,1,1,0.9036472630104981,364.45843975798925,None,365.3584828695224,None,None,None,None,,38,001,2023_Jan_30_1516,searchDisc5,2021.2.3,60.033127713215116,
images/exp1b_trial_221_colour3_distractors31_l.png,l,1,3,31,1,,,,,0,36,36,36,,,,,,,,,,,,,,,,,,,,,,,,,,,,,,,,,,,,,,,,,,,365.3746902649873,None,2,1.1376550069544464,365.3746902649873,None,,,,,,,,,,,,,,,,None,None,None,,None,None,366.5604485590011,None,1,1,0.8533845850033686,366.5604485590011,None,367.40845124447367,None,None,None,None,,38,001,2023_Jan_30_1516,searchDisc5,2021.2.3,60.033127713215116,
images/exp1b_trial_163_colour1_distractors19_r.png,r,3,1,19,1,,,,,0,37,37,37,,,,,,,,,,,,,,,,,,,,,,,,,,,,,,,,,,,,,,,,,,,367.42651626700535,None,2,1.0702521479688585,367.42651626700535,None,,,,,,,,,,,,,,,,None,None,None,,None,None,368.5441395990201,None,3,1,0.7702922659809701,368.5441395990201,None,369.30852444552,None,None,None,None,,38,001,2023_Jan_30_1516,searchDisc5,2021.2.3,60.033127713215116,
images/exp1b_trial_204_colour3_distractors9_r.png,r,3,3,9,1,,,,,0,38,38,38,,,,,,,,,,,,,,,,,,,,,,,,,,,,,,,,,,,,,,,,,,,369.32670402899384,None,2,0.9391185879940167,369.32670402899384,None,,,,,,,,,,,,,,,,None,None,None,,None,None,370.30776790197706,None,3,1,0.9018240409786813,370.30776790197706,None,371.2084695705038,None,None,None,None,,38,001,2023_Jan_30_1516,searchDisc5,2021.2.3,60.033127713215116,
images/exp1b_trial_167_colour2_distractors9_r.png,r,3,2,9,1,,,,,0,39,39,39,,,,,,,,,,,,,,,,,,,,,,,,,,,,,,,,,,,,,,,,,,,371.2249364689924,None,2,0.9579377649934031,371.2249364689924,None,,,,,,,,,,,,,,,,None,None,None,,None,None,372.2265534250182,None,3,1,0.8512496370240115,372.2265534250182,None,373.07523504447306,None,None,None,None,,38,001,2023_Jan_30_1516,searchDisc5,2021.2.3,60.033127713215116,
images/exp1b_trial_215_colour2_distractors19_l.png,l,1,2,19,1,,,,,0,40,40,40,,,,,,,,,,,,,,,,,,,,,,,,,,,,,,,,,,,,,,,,,,,373.0932245940203,None,2,1.0046925849746913,373.0932245940203,None,,,,,,,,,,,,,,,,None,None,None,,None,None,374.1421312899911,None,1,1,1.4031042580027133,374.1421312899911,None,375.54199730349353,None,None,None,None,,38,001,2023_Jan_30_1516,searchDisc5,2021.2.3,60.033127713215116,
images/exp1b_trial_49_colour1_distractors9_l.png,l,1,1,9,1,,,,,0,41,41,41,,,,,,,,,,,,,,,,,,,,,,,,,,,,,,,,,,,,,,,,,,,375.55842282500817,None,2,1.3212007129914127,375.55842282500817,None,,,,,,,,,,,,,,,,None,None,None,,None,None,376.92742370802443,None,1,1,0.937841508013662,376.92742370802443,None,377.8586950955272,None,None,None,None,,38,001,2023_Jan_30_1516,searchDisc5,2021.2.3,60.033127713215116,
images/exp1b_trial_282_colour3_distractors4_l.png,l,1,3,4,1,,,,,0,42,42,42,,,,,,,,,,,,,,,,,,,,,,,,,,,,,,,,,,,,,,,,,,,377.87654343800386,None,2,1.273456723021809,377.87654343800386,None,,,,,,,,,,,,,,,,None,None,None,,None,None,379.19403145601973,None,1,1,0.7546936459839344,379.19403145601973,None,379.942079814506,None,None,None,None,,38,001,2023_Jan_30_1516,searchDisc5,2021.2.3,60.033127713215116,
images/exp1b_trial_128_colour1_distractors1_r.png,r,3,1,1,1,,,,,0,43,43,43,,,,,,,,,,,,,,,,,,,,,,,,,,,,,,,,,,,,,,,,,,,379.9580735170166,None,2,1.0026602580328472,379.9580735170166,None,,,,,,,,,,,,,,,,None,None,None,,None,None,381.0082952299854,None,3,1,0.9049443120020442,381.0082952299854,None,381.9081487454881,None,None,None,None,,38,001,2023_Jan_30_1516,searchDisc5,2021.2.3,60.033127713215116,
images/exp1b_trial_5_colour2_distractors1_r.png,r,3,2,1,1,,,,,0,44,44,44,,,,,,,,,,,,,,,,,,,,,,,,,,,,,,,,,,,,,,,,,,,381.92710906401044,None,2,0.9881206349818967,381.92710906401044,None,,,,,,,,,,,,,,,,None,None,None,,None,None,382.95871577900834,None,3,1,0.7565031650010496,382.95871577900834,None,383.7090881484968,None,None,None,None,,38,001,2023_Jan_30_1516,searchDisc5,2021.2.3,60.033127713215116,
images/exp1b_trial_222_colour0_distractors0_r.png,r,3,0,0,1,,,,,0,45,45,45,,,,,,,,,,,,,,,,,,,,,,,,,,,,,,,,,,,,,,,,,,,383.7252819460118,None,2,0.9396389719913714,383.7252819460118,None,,,,,,,,,,,,,,,,None,None,None,,None,None,384.71094558999175,None,3,1,0.703712169022765,384.71094558999175,None,385.40892562352235,None,None,None,None,,38,001,2023_Jan_30_1516,searchDisc5,2021.2.3,60.033127713215116,
images/exp1b_trial_159_colour0_distractors0_l.png,l,1,0,0,1,,,,,0,46,46,46,,,,,,,,,,,,,,,,,,,,,,,,,,,,,,,,,,,,,,,,,,,385.42482747900067,None,2,0.938030824996531,385.42482747900067,None,,,,,,,,,,,,,,,,None,None,None,,None,None,386.41094383900054,None,1,1,0.6225308669963852,386.41094383900054,None,387.02565322450243,None,None,None,None,,38,001,2023_Jan_30_1516,searchDisc5,2021.2.3,60.033127713215116,
images/exp1b_trial_207_colour1_distractors1_l.png,l,1,1,1,1,,,,,0,47,47,47,,,,,,,,,,,,,,,,,,,,,,,,,,,,,,,,,,,,,,,,,,,387.04380352102453,None,2,0.8375247539952397,387.04380352102453,None,,,,,,,,,,,,,,,,None,None,None,,None,None,387.92568945197854,None,1,1,0.6055334570119157,387.92568945197854,None,388.5257870645204,None,None,None,None,,38,001,2023_Jan_30_1516,searchDisc5,2021.2.3,60.033127713215116,
images/exp1b_trial_83_colour1_distractors31_l.png,l,1,1,31,1,,,,,0,48,48,48,,,,,,,,,,,,,,,,,,,,,,,,,,,,,,,,,,,,,,,,,,,388.54203816200607,None,2,0.7377761629759334,388.54203816200607,None,,,,,,,,,,,,,,,,None,None,None,,None,None,389.3276828969829,None,1,1,0.968838130007498,389.3276828969829,None,390.2924553824763,None,None,None,None,,38,001,2023_Jan_30_1516,searchDisc5,2021.2.3,60.033127713215116,
images/exp1b_trial_284_colour3_distractors19_l.png,l,1,3,19,1,,,,,0,49,49,49,,,,,,,,,,,,,,,,,,,,,,,,,,,,,,,,,,,,,,,,,,,390.30824991798727,None,2,0.8546958030201495,390.30824991798727,None,,,,,,,,,,,,,,,,None,None,None,,None,None,391.2088927280274,None,1,1,0.8875942050362937,391.2088927280274,None,392.09243962547623,None,None,None,None,,38,001,2023_Jan_30_1516,searchDisc5,2021.2.3,60.033127713215116,
images/exp1b_trial_288_colour1_distractors1_r.png,r,3,1,1,1,,,,,0,50,50,50,,,,,,,,,,,,,,,,,,,,,,,,,,,,,,,,,,,,,,,,,,,392.1091678550001,None,2,1.0365712159546092,392.1091678550001,None,,,,,,,,,,,,,,,,None,None,None,,None,None,393.1923700059997,None,3,1,0.8556301029748283,393.1923700059997,None,394.0425445244822,None,None,None,None,,38,001,2023_Jan_30_1516,searchDisc5,2021.2.3,60.033127713215116,
images/exp1b_trial_10_colour3_distractors1_r.png,r,3,3,1,1,,,,,0,51,51,51,,,,,,,,,,,,,,,,,,,,,,,,,,,,,,,,,,,,,,,,,,,394.0586692279903,None,2,0.9213253969792277,394.0586692279903,None,,,,,,,,,,,,,,,,None,None,None,,None,None,395.02737504499964,None,3,1,0.672300019999966,395.02737504499964,None,395.69256087748215,None,None,None,None,,38,001,2023_Jan_30_1516,searchDisc5,2021.2.3,60.033127713215116,
images/exp1b_trial_138_colour3_distractors1_r.png,r,3,3,1,1,,,,,0,52,52,52,,,,,,,,,,,,,,,,,,,,,,,,,,,,,,,,,,,,,,,,,,,395.70855707500596,None,2,0.9879525209544227,395.70855707500596,None,,,,,,,,,,,,,,,,None,None,None,,None,None,396.74245008599246,None,3,1,0.8390349830151536,396.74245008599246,None,397.5762170784932,None,None,None,None,,38,001,2023_Jan_30_1516,searchDisc5,2021.2.3,60.033127713215116,
images/exp1b_trial_218_colour3_distractors4_l.png,l,1,3,4,1,,,,,0,53,53,53,,,,,,,,,,,,,,,,,,,,,,,,,,,,,,,,,,,,,,,,,,,397.5942382159992,None,2,0.8876758569967933,397.5942382159992,None,,,,,,,,,,,,,,,,None,None,None,,None,None,398.52812085597543,None,1,1,0.621881240978837,398.52812085597543,None,399.1428664054896,None,None,None,None,,38,001,2023_Jan_30_1516,searchDisc5,2021.2.3,60.033127713215116,
images/exp1b_trial_79_colour1_distractors1_l.png,l,1,1,1,1,,,,,0,54,54,54,,,,,,,,,,,,,,,,,,,,,,,,,,,,,,,,,,,,,,,,,,,399.1587004340254,None,2,1.0374503320199437,399.1587004340254,None,,,,,,,,,,,,,,,,None,None,None,,None,None,400.2426691449946,None,1,1,0.8391843269928358,400.2426691449946,None,401.07597882749394,None,None,None,None,,38,001,2023_Jan_30_1516,searchDisc5,2021.2.3,60.033127713215116,
images/exp1b_trial_72_colour2_distractors19_r.png,r,3,2,19,1,,,,,0,55,55,55,,,,,,,,,,,,,,,,,,,,,,,,,,,,,,,,,,,,,,,,,,,401.0924419660005,None,2,0.8380319150164723,401.0924419660005,None,,,,,,,,,,,,,,,,None,None,None,,None,None,401.97601318801753,None,3,1,0.738558082957752,401.97601318801753,None,402.70956477249854,None,None,None,None,,38,001,2023_Jan_30_1516,searchDisc5,2021.2.3,60.033127713215116,
images/exp1b_trial_261_colour2_distractors1_r.png,r,3,2,1,1,,,,,0,56,56,56,,,,,,,,,,,,,,,,,,,,,,,,,,,,,,,,,,,,,,,,,,,402.72569469100563,None,2,0.8214411789667793,402.72569469100563,None,,,,,,,,,,,,,,,,None,None,None,,None,None,403.5927208419889,None,3,1,0.8037183250417002,403.5927208419889,None,404.3928006684931,None,None,None,None,,38,001,2023_Jan_30_1516,searchDisc5,2021.2.3,60.033127713215116,
images/exp1b_trial_82_colour1_distractors19_l.png,l,1,1,19,1,,,,,0,57,57,57,,,,,,,,,,,,,,,,,,,,,,,,,,,,,,,,,,,,,,,,,,,404.40921554499073,None,2,0.9899098559981212,404.40921554499073,None,,,,,,,,,,,,,,,,None,None,None,,None,None,405.4427720810054,None,1,1,0.650675433978904,405.4427720810054,None,406.0929403625254,None,None,None,None,,38,001,2023_Jan_30_1516,searchDisc5,2021.2.3,60.033127713215116,
images/exp1b_trial_225_colour1_distractors4_r.png,r,3,1,4,1,,,,,0,58,58,58,,,,,,,,,,,,,,,,,,,,,,,,,,,,,,,,,,,,,,,,,,,406.10893293097615,None,2,0.7898943909676746,406.10893293097615,None,,,,,,,,,,,,,,,,None,None,None,,None,None,406.94485749700107,None,3,1,0.5866901809931733,406.94485749700107,None,407.52628747252163,None,None,None,None,,38,001,2023_Jan_30_1516,searchDisc5,2021.2.3,60.033127713215116,
images/exp1b_trial_23_colour2_distractors19_l.png,l,1,2,19,1,,,,,0,59,59,59,,,,,,,,,,,,,,,,,,,,,,,,,,,,,,,,,,,,,,,,,,,407.54228804499144,None,2,0.7039125750306994,407.54228804499144,None,,,,,,,,,,,,,,,,None,None,None,,None,None,408.29436829598853,None,1,1,0.653327077976428,408.29436829598853,None,408.94249536452696,None,None,None,None,,38,001,2023_Jan_30_1516,searchDisc5,2021.2.3,60.033127713215116,
images/exp1b_trial_237_colour3_distractors19_r.png,r,3,3,19,1,,,,,0,60,60,60,,,,,,,,,,,,,,,,,,,,,,,,,,,,,,,,,,,,,,,,,,,408.9596767000039,None,2,0.6882600890239701,408.9596767000039,None,,,,,,,,,,,,,,,,None,None,None,,None,None,409.6928540180088,None,3,1,0.8694870669860393,409.6928540180088,None,410.559619635524,None,None,None,None,,38,001,2023_Jan_30_1516,searchDisc5,2021.2.3,60.033127713215116,
images/exp1b_trial_154_colour3_distractors4_l.png,l,1,3,4,1,,,,,0,61,61,61,,,,,,,,,,,,,,,,,,,,,,,,,,,,,,,,,,,,,,,,,,,410.5777402470121,None,2,0.5879155520233326,410.5777402470121,None,,,,,,,,,,,,,,,,None,None,None,,None,None,411.2094003169914,None,1,1,1.0386911659734324,411.2094003169914,None,412.24302223849224,None,None,None,None,,38,001,2023_Jan_30_1516,searchDisc5,2021.2.3,60.033127713215116,
images/exp1b_trial_42_colour3_distractors1_r.png,r,3,3,1,1,,,,,0,62,62,62,,,,,,,,,,,,,,,,,,,,,,,,,,,,,,,,,,,,,,,,,,,412.2594648840022,None,2,0.6230768880341202,412.2594648840022,None,,,,,,,,,,,,,,,,None,None,None,,None,None,412.9283199029742,None,3,1,0.7037730229785666,412.9283199029742,None,413.6265760185255,None,None,None,None,,38,001,2023_Jan_30_1516,searchDisc5,2021.2.3,60.033127713215116,
images/exp1b_trial_195_colour1_distractors19_r.png,r,3,1,19,1,,,,,0,63,63,63,,,,,,,,,,,,,,,,,,,,,,,,,,,,,,,,,,,,,,,,,,,413.642977052019,None,2,0.5708505430375226,413.642977052019,None,,,,,,,,,,,,,,,,None,None,None,,None,None,414.261878462974,None,3,1,0.7352379420190118,414.261878462974,None,414.9930023024848,None,None,None,None,,38,001,2023_Jan_30_1516,searchDisc5,2021.2.3,60.033127713215116,
images/exp1b_trial_178_colour1_distractors19_l.png,l,1,1,19,1,,,,,0,64,64,64,,,,,,,,,,,,,,,,,,,,,,,,,,,,,,,,,,,,,,,,,,,415.0095747290179,None,2,0.5374227910069749,415.0095747290179,None,,,,,,,,,,,,,,,,None,None,None,,None,None,415.59501076099696,None,1,1,0.5889500400517136,415.59501076099696,None,416.1764099014748,None,None,None,None,,38,001,2023_Jan_30_1516,searchDisc5,2021.2.3,60.033127713215116,
images/exp1b_trial_151_colour2_distractors19_l.png,l,1,2,19,1,,,,,0,65,65,65,,,,,,,,,,,,,,,,,,,,,,,,,,,,,,,,,,,,,,,,,,,416.192929004028,None,2,0.6189061779878102,416.192929004028,None,,,,,,,,,,,,,,,,None,None,None,,None,None,416.8597166039981,None,1,1,1.6547364470316097,416.8597166039981,None,418.5103026474884,None,None,None,None,,38,001,2023_Jan_30_1516,searchDisc5,2021.2.3,60.033127713215116,
images/exp1b_trial_22_colour2_distractors9_l.png,l,1,2,9,1,,,,,0,66,66,66,,,,,,,,,,,,,,,,,,,,,,,,,,,,,,,,,,,,,,,,,,,418.52651443198556,None,2,1.1049308680230752,418.52651443198556,None,,,,,,,,,,,,,,,,None,None,None,,None,None,419.6765846199705,None,1,1,0.8028506559785455,419.6765846199705,None,420.47662084852925,None,None,None,None,,38,001,2023_Jan_30_1516,searchDisc5,2021.2.3,60.033127713215116,
images/exp1b_trial_264_colour2_distractors19_r.png,r,3,2,19,1,,,,,0,67,67,67,,,,,,,,,,,,,,,,,,,,,,,,,,,,,,,,,,,,,,,,,,,420.49316088698106,None,2,0.9726801899960265,420.49316088698106,None,,,,,,,,,,,,,,,,None,None,None,,None,None,421.5116783530102,None,3,1,0.6985240589710884,421.5116783530102,None,422.21001524548626,None,None,None,None,,38,001,2023_Jan_30_1516,searchDisc5,2021.2.3,60.033127713215116,
images/exp1b_trial_184_colour2_distractors31_l.png,l,1,2,31,1,,,,,0,68,68,68,,,,,,,,,,,,,,,,,,,,,,,,,,,,,,,,,,,,,,,,,,,422.2263282900094,None,2,0.9742214610450901,422.2263282900094,None,,,,,,,,,,,,,,,,None,None,None,,None,None,423.2452780979802,None,1,1,0.6837636000127532,423.2452780979802,None,423.9265697595023,None,None,None,None,,38,001,2023_Jan_30_1516,searchDisc5,2021.2.3,60.033127713215116,
images/exp1b_trial_230_colour2_distractors4_r.png,r,3,2,4,1,,,,,0,69,69,69,,,,,,,,,,,,,,,,,,,,,,,,,,,,,,,,,,,,,,,,,,,423.94445450697094,None,2,1.0880529239657335,423.94445450697094,None,,,,,,,,,,,,,,,,None,None,None,,None,None,425.07864290999714,None,3,1,0.6386046310071833,425.07864290999714,None,425.7100478914857,None,None,None,None,,38,001,2023_Jan_30_1516,searchDisc5,2021.2.3,60.033127713215116,
images/exp1b_trial_71_colour2_distractors9_r.png,r,3,2,9,1,,,,,0,70,70,70,,,,,,,,,,,,,,,,,,,,,,,,,,,,,,,,,,,,,,,,,,,425.72644762700656,None,2,1.0710884879808873,425.72644762700656,None,,,,,,,,,,,,,,,,None,None,None,,None,None,426.8427658189903,None,3,1,0.7217722850036807,426.8427658189903,None,427.5602613815048,None,None,None,None,,38,001,2023_Jan_30_1516,searchDisc5,2021.2.3,60.033127713215116,
images/exp1b_trial_245_colour2_distractors4_l.png,l,1,2,4,1,,,,,0,71,71,71,,,,,,,,,,,,,,,,,,,,,,,,,,,,,,,,,,,,,,,,,,,427.57611548900604,None,2,0.8877544160350226,427.57611548900604,None,,,,,,,,,,,,,,,,None,None,None,,None,None,428.5119262780063,None,1,1,0.5219808130059391,428.5119262780063,None,429.0267307065136,None,None,None,None,,38,001,2023_Jan_30_1516,searchDisc5,2021.2.3,60.033127713215116,
images/exp1b_trial_316_colour3_distractors19_l.png,l,1,3,19,1,,,,,0,72,72,72,,,,,,,,,,,,,,,,,,,,,,,,,,,,,,,,,,,,,,,,,,,429.04518843401456,None,2,1.0045468739699572,429.04518843401456,None,,,,,,,,,,,,,,,,None,None,None,,None,None,430.093434372975,None,1,1,0.6346421710331924,430.093434372975,None,430.7260067985102,None,None,None,None,,38,001,2023_Jan_30_1516,searchDisc5,2021.2.3,60.033127713215116,
images/exp1b_trial_289_colour1_distractors4_r.png,r,3,1,4,1,,,,,0,73,73,73,,,,,,,,,,,,,,,,,,,,,,,,,,,,,,,,,,,,,,,,,,,430.7453815320041,None,2,0.8386047700187191,430.7453815320041,None,,,,,,,,,,,,,,,,None,None,None,,None,None,431.62649426900316,None,3,1,0.8730368610122241,431.62649426900316,None,432.4935065055091,None,None,None,None,,38,001,2023_Jan_30_1516,searchDisc5,2021.2.3,60.033127713215116,
images/exp1b_trial_81_colour1_distractors9_l.png,l,1,1,9,1,,,,,0,74,74,74,,,,,,,,,,,,,,,,,,,,,,,,,,,,,,,,,,,,,,,,,,,432.5096913520247,None,2,7.939330081047956,432.5096913520247,None,,,,,,,,,,,,,,,,None,None,None,,None,None,440.49388901202474,None,1,1,1.7686278250184841,440.49388901202474,None,442.2604115224734,None,None,None,None,,38,001,2023_Jan_30_1516,searchDisc5,2021.2.3,60.033127713215116,
images/exp1b_trial_319_colour0_distractors0_l.png,l,1,0,0,1,,,,,0,75,75,75,,,,,,,,,,,,,,,,,,,,,,,,,,,,,,,,,,,,,,,,,,,442.2773756660172,None,2,1.054866108985152,442.2773756660172,None,,,,,,,,,,,,,,,,None,None,None,,None,None,443.3764379170025,None,1,1,0.572848009003792,443.3764379170025,None,443.9440550535277,None,None,None,None,,38,001,2023_Jan_30_1516,searchDisc5,2021.2.3,60.033127713215116,
images/exp1b_trial_197_colour2_distractors1_r.png,r,3,2,1,1,,,,,0,76,76,76,,,,,,,,,,,,,,,,,,,,,,,,,,,,,,,,,,,,,,,,,,,443.9602323920117,None,2,0.6398008349933662,443.9602323920117,None,,,,,,,,,,,,,,,,None,None,None,,None,None,444.6438316400163,None,3,1,0.5538056020159274,444.6438316400163,None,445.19404185948076,None,None,None,None,,38,001,2023_Jan_30_1516,searchDisc5,2021.2.3,60.033127713215116,
images/exp1b_trial_259_colour1_distractors19_r.png,r,3,1,19,1,,,,,0,77,77,77,,,,,,,,,,,,,,,,,,,,,,,,,,,,,,,,,,,,,,,,,,,445.2119755820022,None,2,0.7052455269731581,445.2119755820022,None,,,,,,,,,,,,,,,,None,None,None,,None,None,445.961914089974,None,3,1,0.8497272539534606,445.961914089974,None,446.8106203264964,None,None,None,None,,38,001,2023_Jan_30_1516,searchDisc5,2021.2.3,60.033127713215116,
images/exp1b_trial_307_colour1_distractors31_l.png,l,1,1,31,1,,,,,0,78,78,78,,,,,,,,,,,,,,,,,,,,,,,,,,,,,,,,,,,,,,,,,,,446.82865992200095,None,2,0.7582419100217521,446.82865992200095,None,,,,,,,,,,,,,,,,None,None,None,,None,None,447.6289365629782,None,1,1,0.5818678959622048,447.6289365629782,None,448.21074011951566,None,None,None,None,,38,001,2023_Jan_30_1516,searchDisc5,2021.2.3,60.033127713215116,
images/exp1b_trial_260_colour1_distractors31_r.png,r,3,1,31,1,,,,,0,79,79,79,,,,,,,,,,,,,,,,,,,,,,,,,,,,,,,,,,,,,,,,,,,448.22704034799244,None,2,0.7897499569808133,448.22704034799244,None,,,,,,,,,,,,,,,,None,None,None,,None,None,449.0606303709792,None,3,1,0.8494568199967034,449.0606303709792,None,449.9107583275239,None,None,None,None,,38,001,2023_Jan_30_1516,searchDisc5,2021.2.3,60.033127713215116,
images/exp1b_trial_88_colour2_distractors31_l.png,l,1,2,31,1,,,,,0,80,80,80,,,,,,,,,,,,,,,,,,,,,,,,,,,,,,,,,,,,,,,,,,,449.92673499300145,None,2,0.6211319210124202,449.92673499300145,None,,,,,,,,,,,,,,,,None,None,None,,None,None,450.59352084901184,None,1,1,0.7370099229738116,450.59352084901184,None,451.32747988950575,None,None,None,None,,38,001,2023_Jan_30_1516,searchDisc5,2021.2.3,60.033127713215116,
images/exp1b_trial_115_colour1_distractors31_l.png,l,1,1,31,1,,,,,0,81,81,81,,,,,,,,,,,,,,,,,,,,,,,,,,,,,,,,,,,,,,,,,,,451.3432162050158,None,2,0.6878872729721479,451.3432162050158,None,,,,,,,,,,,,,,,,None,None,None,,None,None,452.0773785469937,None,1,1,0.6348699820227921,452.0773785469937,None,452.7108337105077,None,None,None,None,,38,001,2023_Jan_30_1516,searchDisc5,2021.2.3,60.033127713215116,
images/exp1b_trial_301_colour3_distractors19_r.png,r,3,3,19,1,,,,,0,82,82,82,,,,,,,,,,,,,,,,,,,,,,,,,,,,,,,,,,,,,,,,,,,452.7271705180174,None,2,0.6875556790037081,452.7271705180174,None,,,,,,,,,,,,,,,,None,None,None,,None,None,453.4607027010061,None,3,1,0.7219463830115274,453.4607027010061,None,454.1775551235245,None,None,None,None,,38,001,2023_Jan_30_1516,searchDisc5,2021.2.3,60.033127713215116,
images/exp1b_trial_268_colour3_distractors9_r.png,r,3,3,9,1,,,,,0,83,83,83,,,,,,,,,,,,,,,,,,,,,,,,,,,,,,,,,,,,,,,,,,,454.1935544210137,None,2,0.7215119759785011,454.1935544210137,None,,,,,,,,,,,,,,,,None,None,None,,None,None,454.9608824480092,None,3,1,0.9012551819905639,454.9608824480092,None,455.8601238814939,None,None,None,None,,38,001,2023_Jan_30_1516,searchDisc5,2021.2.3,60.033127713215116,
images/exp1b_trial_75_colour3_distractors4_r.png,r,3,3,4,1,,,,,0,84,84,84,,,,,,,,,,,,,,,,,,,,,,,,,,,,,,,,,,,,,,,,,,,455.87716042698594,None,2,0.6566847559879534,455.87716042698594,None,,,,,,,,,,,,,,,,None,None,None,,None,None,456.5774833569885,None,3,1,1.3546675640391186,456.5774833569885,None,457.92757980450403,None,None,None,None,,38,001,2023_Jan_30_1516,searchDisc5,2021.2.3,60.033127713215116,
images/exp1b_trial_137_colour2_distractors31_r.png,r,3,2,31,1,,,,,0,85,85,85,,,,,,,,,,,,,,,,,,,,,,,,,,,,,,,,,,,,,,,,,,,457.94615033699665,None,2,0.8700075180386193,457.94615033699665,None,,,,,,,,,,,,,,,,None,None,None,,None,None,458.8629661209998,None,3,1,0.8525734260329045,458.8629661209998,None,459.7103928665223,None,None,None,None,,38,001,2023_Jan_30_1516,searchDisc5,2021.2.3,60.033127713215116,
images/exp1b_trial_254_colour0_distractors0_r.png,r,3,0,0,1,,,,,0,86,86,86,,,,,,,,,,,,,,,,,,,,,,,,,,,,,,,,,,,,,,,,,,,459.7293864400126,None,2,2.138582982006483,459.7293864400126,None,,,,,,,,,,,,,,,,None,None,None,,None,None,461.91022564598825,None,3,1,0.7224260370130651,461.91022564598825,None,462.6276553964766,None,None,None,None,,38,001,2023_Jan_30_1516,searchDisc5,2021.2.3,60.033127713215116,
images/exp1b_trial_196_colour1_distractors31_r.png,r,3,1,31,1,,,,,0,87,87,87,,,,,,,,,,,,,,,,,,,,,,,,,,,,,,,,,,,,,,,,,,,462.64551308599766,None,2,0.7380523200263269,462.64551308599766,None,,,,,,,,,,,,,,,,None,None,None,,None,None,463.42982997297077,None,3,1,0.9346637430135161,463.42982997297077,None,464.3610482185089,None,None,None,None,,38,001,2023_Jan_30_1516,searchDisc5,2021.2.3,60.033127713215116,
images/exp1b_trial_117_colour2_distractors4_l.png,l,1,2,4,1,,,,,0,88,88,88,,,,,,,,,,,,,,,,,,,,,,,,,,,,,,,,,,,,,,,,,,,464.3790014979895,None,2,0.6382023399928585,464.3790014979895,None,,,,,,,,,,,,,,,,None,None,None,,None,None,465.06102116499096,None,1,1,0.6219839500263333,465.06102116499096,None,465.67788940750177,None,None,None,None,,38,001,2023_Jan_30_1516,searchDisc5,2021.2.3,60.033127713215116,
images/exp1b_trial_56_colour2_distractors31_l.png,l,1,2,31,1,,,,,0,89,89,89,,,,,,,,,,,,,,,,,,,,,,,,,,,,,,,,,,,,,,,,,,,465.69384395098314,None,2,0.6211274149827659,465.69384395098314,None,,,,,,,,,,,,,,,,None,None,None,,None,None,466.36051832698286,None,1,1,0.7038123300299048,466.36051832698286,None,467.0615050285181,None,None,None,None,,38,001,2023_Jan_30_1516,searchDisc5,2021.2.3,60.033127713215116,
images/exp1b_trial_142_colour3_distractors31_r.png,r,3,3,31,1,,,,,0,90,90,90,,,,,,,,,,,,,,,,,,,,,,,,,,,,,,,,,,,,,,,,,,,467.0776502160006,None,2,0.622810852015391,467.0776502160006,None,,,,,,,,,,,,,,,,None,None,None,,None,None,467.7442537099705,None,3,1,0.6338116570259444,467.7442537099705,None,468.3778823724773,None,None,None,None,,38,001,2023_Jan_30_1516,searchDisc5,2021.2.3,60.033127713215116,
images/exp1b_trial_125_colour3_distractors31_l.png,l,1,3,31,1,,,,,0,91,91,91,,,,,,,,,,,,,,,,,,,,,,,,,,,,,,,,,,,,,,,,,,,468.39419690001523,None,2,0.6880053509958088,468.39419690001523,None,,,,,,,,,,,,,,,,None,None,None,,None,None,469.127913489996,None,1,1,1.2360452429857105,469.127913489996,None,470.36141801748306,None,None,None,None,,38,001,2023_Jan_30_1516,searchDisc5,2021.2.3,60.033127713215116,
images/exp1b_trial_141_colour3_distractors19_r.png,r,3,3,19,1,,,,,0,92,92,92,,,,,,,,,,,,,,,,,,,,,,,,,,,,,,,,,,,,,,,,,,,470.37966414599214,None,2,0.9537955779815093,470.37966414599214,None,,,,,,,,,,,,,,,,None,None,None,,None,None,471.377542755974,None,3,1,0.920474155980628,471.377542755974,None,472.2946826975152,None,None,None,None,,38,001,2023_Jan_30_1516,searchDisc5,2021.2.3,60.033127713215116,
images/exp1b_trial_188_colour3_distractors19_l.png,l,1,3,19,1,,,,,0,93,93,93,,,,,,,,,,,,,,,,,,,,,,,,,,,,,,,,,,,,,,,,,,,472.3106111920206,None,2,0.9230822660028934,472.3106111920206,None,,,,,,,,,,,,,,,,None,None,None,,None,None,473.2800643789815,None,1,1,1.4174124769633636,473.2800643789815,None,474.6946766094828,None,None,None,None,,38,001,2023_Jan_30_1516,searchDisc5,2021.2.3,60.033127713215116,
images/exp1b_trial_190_colour0_distractors0_r.png,r,3,0,0,1,,,,,0,94,94,94,,,,,,,,,,,,,,,,,,,,,,,,,,,,,,,,,,,,,,,,,,,474.7111484470079,None,2,1.088103881047573,474.7111484470079,None,,,,,,,,,,,,,,,,None,None,None,,None,None,475.8467569130007,None,3,1,0.6914222839986905,475.8467569130007,None,476.5282384735241,None,None,None,None,,38,001,2023_Jan_30_1516,searchDisc5,2021.2.3,60.033127713215116,
images/exp1b_trial_286_colour0_distractors0_r.png,r,3,0,0,1,,,,,0,95,95,95,,,,,,,,,,,,,,,,,,,,,,,,,,,,,,,,,,,,,,,,,,,476.5444298189832,None,2,0.7873987749917433,476.5444298189832,None,,,,,,,,,,,,,,,,None,None,None,,None,None,477.3781159449718,None,3,1,0.5868776519782841,477.3781159449718,None,477.9615639754978,None,None,None,None,,38,001,2023_Jan_30_1516,searchDisc5,2021.2.3,60.033127713215116,
images/exp1b_trial_318_colour0_distractors0_r.png,r,3,0,0,1,,,,,0,96,96,96,,,,,,,,,,,,,,,,,,,,,,,,,,,,,,,,,,,,,,,,,,,477.97805255197454,None,2,0.5711574149900116,477.97805255197454,None,,,,,,,,,,,,,,,,None,None,None,,None,None,478.59685615298804,None,3,1,0.522838803997729,478.59685615298804,None,479.11153964250695,None,None,None,None,,38,001,2023_Jan_30_1516,searchDisc5,2021.2.3,60.033127713215116,
images/exp1b_trial_32_colour1_distractors1_r.png,r,3,1,1,1,,,,,0,97,97,97,,,,,,,,,,,,,,,,,,,,,,,,,,,,,,,,,,,,,,,,,,,479.12998522102134,None,2,0.5212810160010122,479.12998522102134,None,,,,,,,,,,,,,,,,None,None,None,,None,None,479.69676954101305,None,3,1,0.8743733859737404,479.69676954101305,None,480.56156676251555,None,None,None,None,,38,001,2023_Jan_30_1516,searchDisc5,2021.2.3,60.033127713215116,
images/exp1b_trial_9_colour2_distractors31_r.png,r,3,2,31,1,,,,,0,98,98,98,,,,,,,,,,,,,,,,,,,,,,,,,,,,,,,,,,,,,,,,,,,480.57783605897566,None,2,0.9192170499591157,480.57783605897566,None,,,,,,,,,,,,,,,,None,None,None,,None,None,481.54690415301593,None,3,1,0.953379126964137,481.54690415301593,None,482.49507069052777,None,None,None,None,,38,001,2023_Jan_30_1516,searchDisc5,2021.2.3,60.033127713215116,
images/exp1b_trial_216_colour2_distractors31_l.png,l,1,2,31,1,,,,,0,99,99,99,,,,,,,,,,,,,,,,,,,,,,,,,,,,,,,,,,,,,,,,,,,482.51110942300875,None,2,0.8045176029554568,482.51110942300875,None,,,,,,,,,,,,,,,,None,None,None,,None,None,483.36336577200564,None,1,1,0.6863179439678788,483.36336577200564,None,484.0443357445241,None,None,None,None,,38,001,2023_Jan_30_1516,searchDisc5,2021.2.3,60.033127713215116,
images/exp1b_trial_65_colour1_distractors4_r.png,r,3,1,4,1,,,,,0,100,100,100,,,,,,,,,,,,,,,,,,,,,,,,,,,,,,,,,,,,,,,,,,,484.06354626402026,None,2,0.9714694410213269,484.06354626402026,None,,,,,,,,,,,,,,,,None,None,None,,None,None,485.0775969810202,None,3,1,0.7218933710246347,485.0775969810202,None,485.7950280014833,None,None,None,None,,38,001,2023_Jan_30_1516,searchDisc5,2021.2.3,60.033127713215116,
images/exp1b_trial_54_colour2_distractors9_l.png,l,1,2,9,1,,,,,0,101,101,101,,,,,,,,,,,,,,,,,,,,,,,,,,,,,,,,,,,,,,,,,,,485.81143561698264,None,2,1.0539133929996751,485.81143561698264,None,,,,,,,,,,,,,,,,None,None,None,,None,None,486.91160969698103,None,1,1,0.8386233900091611,486.91160969698103,None,487.74536900950477,None,None,None,None,,38,001,2023_Jan_30_1516,searchDisc5,2021.2.3,60.033127713215116,
images/exp1b_trial_311_colour2_distractors19_l.png,l,1,2,19,1,,,,,0,102,102,102,,,,,,,,,,,,,,,,,,,,,,,,,,,,,,,,,,,,,,,,,,,487.76142714498565,None,2,0.9563294500112534,487.76142714498565,None,,,,,,,,,,,,,,,,None,None,None,,None,None,488.7638272229815,None,1,1,0.8517801419948228,488.7638272229815,None,489.61195436347623,None,None,None,None,,38,001,2023_Jan_30_1516,searchDisc5,2021.2.3,60.033127713215116,
images/exp1b_trial_90_colour3_distractors4_l.png,l,1,3,4,1,,,,,0,103,103,103,,,,,,,,,,,,,,,,,,,,,,,,,,,,,,,,,,,,,,,,,,,489.6301944750012,None,2,1.3375823289970867,489.6301944750012,None,,,,,,,,,,,,,,,,None,None,None,,None,None,491.011118926981,None,1,1,1.1047120289877057,491.011118926981,None,492.11166648648793,None,None,None,None,,38,001,2023_Jan_30_1516,searchDisc5,2021.2.3,60.033127713215116,
images/exp1b_trial_35_colour1_distractors19_r.png,r,3,1,19,1,,,,,0,104,104,104,,,,,,,,,,,,,,,,,,,,,,,,,,,,,,,,,,,,,,,,,,,492.1284268749878,None,2,0.8565709860413335,492.1284268749878,None,,,,,,,,,,,,,,,,None,None,None,,None,None,493.0287931819912,None,3,1,0.850967573991511,493.0287931819912,None,493.8785984654736,None,None,None,None,,38,001,2023_Jan_30_1516,searchDisc5,2021.2.3,60.033127713215116,
images/exp1b_trial_278_colour2_distractors9_l.png,l,1,2,9,1,,,,,0,105,105,105,,,,,,,,,,,,,,,,,,,,,,,,,,,,,,,,,,,,,,,,,,,493.8965484640212,None,2,0.839624518994242,493.8965484640212,None,,,,,,,,,,,,,,,,None,None,None,,None,None,494.7799001240055,None,1,1,0.7696195949683897,494.7799001240055,None,495.5452888935164,None,None,None,None,,38,001,2023_Jan_30_1516,searchDisc5,2021.2.3,60.033127713215116,
images/exp1b_trial_18_colour1_distractors19_l.png,l,1,1,19,1,,,,,0,106,106,106,,,,,,,,,,,,,,,,,,,,,,,,,,,,,,,,,,,,,,,,,,,495.56168659200193,None,2,0.7379722920013592,495.56168659200193,None,,,,,,,,,,,,,,,,None,None,None,,None,None,496.34752811299404,None,1,1,0.6872986580128781,496.34752811299404,None,497.028773217526,None,None,None,None,,38,001,2023_Jan_30_1516,searchDisc5,2021.2.3,60.033127713215116,
images/exp1b_trial_109_colour3_distractors19_r.png,r,3,3,19,1,,,,,0,107,107,107,,,,,,,,,,,,,,,,,,,,,,,,,,,,,,,,,,,,,,,,,,,497.04734556900803,None,2,0.7557863550027832,497.04734556900803,None,,,,,,,,,,,,,,,,None,None,None,,None,None,497.84725423000054,None,3,1,0.7682354840217158,497.84725423000054,None,498.61223135347825,None,None,None,None,,38,001,2023_Jan_30_1516,searchDisc5,2021.2.3,60.033127713215116,
images/exp1b_trial_248_colour2_distractors31_l.png,l,1,2,31,1,,,,,0,108,108,108,,,,,,,,,,,,,,,,,,,,,,,,,,,,,,,,,,,,,,,,,,,498.63021963398205,None,2,0.6542929770075716,498.63021963398205,None,,,,,,,,,,,,,,,,None,None,None,,None,None,499.32798962201923,None,1,1,1.0701534859836102,499.32798962201923,None,500.395489542518,None,None,None,None,,38,001,2023_Jan_30_1516,searchDisc5,2021.2.3,60.033127713215116,
images/exp1b_trial_146_colour1_distractors19_l.png,l,1,1,19,1,,,,,0,109,109,109,,,,,,,,,,,,,,,,,,,,,,,,,,,,,,,,,,,,,,,,,,,500.4117074729875,None,2,0.8712998260161839,500.4117074729875,None,,,,,,,,,,,,,,,,None,None,None,,None,None,501.33085172402207,None,1,1,0.6697632059804164,501.33085172402207,None,501.99550845852934,None,None,None,None,,38,001,2023_Jan_30_1516,searchDisc5,2021.2.3,60.033127713215116,
images/exp1b_trial_277_colour2_distractors4_l.png,l,1,2,4,1,,,,,0,110,110,110,,,,,,,,,,,,,,,,,,,,,,,,,,,,,,,,,,,,,,,,,,,502.0114740700228,None,2,0.6548043540096842,502.0114740700228,None,,,,,,,,,,,,,,,,None,None,None,,None,None,502.71199430600973,None,1,1,0.5714262739638798,502.71199430600973,None,503.2789075464883,None,None,None,None,,38,001,2023_Jan_30_1516,searchDisc5,2021.2.3,60.033127713215116,
images/exp1b_trial_295_colour2_distractors9_r.png,r,3,2,9,1,,,,,0,111,111,111,,,,,,,,,,,,,,,,,,,,,,,,,,,,,,,,,,,,,,,,,,,503.29722671199124,None,2,0.7562898420146666,503.29722671199124,None,,,,,,,,,,,,,,,,None,None,None,,None,None,504.09749809402274,None,3,1,0.7860291299875826,504.09749809402274,None,504.8789151724835,None,None,None,None,,38,001,2023_Jan_30_1516,searchDisc5,2021.2.3,60.033127713215116,
images/exp1b_trial_313_colour3_distractors1_l.png,l,1,3,1,1,,,,,0,112,112,112,,,,,,,,,,,,,,,,,,,,,,,,,,,,,,,,,,,,,,,,,,,504.89521616802085,None,2,0.771289711992722,504.89521616802085,None,,,,,,,,,,,,,,,,None,None,None,,None,None,505.71201531297993,None,1,1,0.5719918729737401,505.71201531297993,None,506.27888516750534,None,None,None,None,,38,001,2023_Jan_30_1516,searchDisc5,2021.2.3,60.033127713215116,
images/exp1b_trial_130_colour1_distractors9_r.png,r,3,1,9,1,,,,,0,113,113,113,,,,,,,,,,,,,,,,,,,,,,,,,,,,,,,,,,,,,,,,,,,506.2952928590239,None,2,0.6381738979835063,506.2952928590239,None,,,,,,,,,,,,,,,,None,None,None,,None,None,506.9784620869905,None,3,1,0.6203337260521948,506.9784620869905,None,507.59565431648514,None,None,None,None,,38,001,2023_Jan_30_1516,searchDisc5,2021.2.3,60.033127713215116,
images/exp1b_trial_220_colour3_distractors19_l.png,l,1,3,19,1,,,,,0,114,114,114,,,,,,,,,,,,,,,,,,,,,,,,,,,,,,,,,,,,,,,,,,,507.6143573130248,None,2,0.5878649639780633,507.6143573130248,None,,,,,,,,,,,,,,,,None,None,None,,None,None,508.24570515501546,None,1,1,0.703748136991635,508.24570515501546,None,508.94580270851145,None,None,None,None,,38,001,2023_Jan_30_1516,searchDisc5,2021.2.3,60.033127713215116,
images/exp1b_trial_185_colour3_distractors1_l.png,l,1,3,1,1,,,,,0,115,115,115,,,,,,,,,,,,,,,,,,,,,,,,,,,,,,,,,,,,,,,,,,,508.9620703540277,None,2,0.6377311139949597,508.9620703540277,None,,,,,,,,,,,,,,,,None,None,None,,None,None,509.6453565720003,None,1,1,0.8557995590381324,509.6453565720003,None,510.4957288815116,None,None,None,None,,38,001,2023_Jan_30_1516,searchDisc5,2021.2.3,60.033127713215116,
images/exp1b_trial_131_colour1_distractors19_r.png,r,3,1,19,1,,,,,0,116,116,116,,,,,,,,,,,,,,,,,,,,,,,,,,,,,,,,,,,,,,,,,,,510.51377219700953,None,2,0.620725822984241,510.51377219700953,None,,,,,,,,,,,,,,,,None,None,None,,None,None,511.17898992897244,None,3,1,0.8531317390152253,511.17898992897244,None,512.0291243994783,None,None,None,None,,38,001,2023_Jan_30_1516,searchDisc5,2021.2.3,60.033127713215116,
images/exp1b_trial_8_colour2_distractors19_r.png,r,3,2,19,1,,,,,0,117,117,117,,,,,,,,,,,,,,,,,,,,,,,,,,,,,,,,,,,,,,,,,,,512.045472281985,None,2,0.6043065760168247,512.045472281985,None,,,,,,,,,,,,,,,,None,None,None,,None,None,512.6954307859996,None,3,1,0.8535688580013812,512.6954307859996,None,513.5458912294765,None,None,None,None,,38,001,2023_Jan_30_1516,searchDisc5,2021.2.3,60.033127713215116,
images/exp1b_trial_198_colour2_distractors4_r.png,r,3,2,4,1,,,,,0,118,118,118,,,,,,,,,,,,,,,,,,,,,,,,,,,,,,,,,,,,,,,,,,,513.5619942389894,None,2,0.6211262139840983,513.5619942389894,None,,,,,,,,,,,,,,,,None,None,None,,None,None,514.228810585977,None,3,1,0.6220040590269491,514.228810585977,None,514.8458557775069,None,None,None,None,,38,001,2023_Jan_30_1516,searchDisc5,2021.2.3,60.033127713215116,
images/exp1b_trial_202_colour3_distractors1_r.png,r,3,3,1,1,,,,,0,119,119,119,,,,,,,,,,,,,,,,,,,,,,,,,,,,,,,,,,,,,,,,,,,514.8618040989968,None,2,0.5379691420239396,514.8618040989968,None,,,,,,,,,,,,,,,,None,None,None,,None,None,515.4458427199861,None,3,1,0.888733719009906,515.4458427199861,None,516.3293552005256,None,None,None,None,,38,001,2023_Jan_30_1516,searchDisc5,2021.2.3,60.033127713215116,
images/exp1b_trial_50_colour1_distractors19_l.png,l,1,1,19,1,,,,,0,120,120,120,,,,,,,,,,,,,,,,,,,,,,,,,,,,,,,,,,,,,,,,,,,516.3453980900231,None,2,0.5563747420092113,516.3453980900231,None,,,,,,,,,,,,,,,,None,None,None,,None,None,516.9473739159876,None,1,1,0.9167175280163065,516.9473739159876,None,517.8621269664785,None,None,None,None,,38,001,2023_Jan_30_1516,searchDisc5,2021.2.3,60.033127713215116,
images/exp1b_trial_314_colour3_distractors4_l.png,l,1,3,4,1,,,,,0,121,121,121,,,,,,,,,,,,,,,,,,,,,,,,,,,,,,,,,,,,,,,,,,,517.8783563000034,None,2,0.5567358040134422,517.8783563000034,None,,,,,,,,,,,,,,,,None,None,None,,None,None,518.481091064983,None,1,1,0.7876038560061716,518.481091064983,None,519.2626524954743,None,None,None,None,,38,001,2023_Jan_30_1516,searchDisc5,2021.2.3,60.033127713215116,
images/exp1b_trial_270_colour3_distractors31_r.png,r,3,3,31,1,,,,,0,122,122,122,,,,,,,,,,,,,,,,,,,,,,,,,,,,,,,,,,,,,,,,,,,519.2785679430235,None,2,0.5877511250437237,519.2785679430235,None,,,,,,,,,,,,,,,,None,None,None,,None,None,519.9140598609811,None,3,1,0.7841190230101347,519.9140598609811,None,520.6960114024754,None,None,None,None,,38,001,2023_Jan_30_1516,searchDisc5,2021.2.3,60.033127713215116,
images/exp1b_trial_305_colour1_distractors9_l.png,l,1,1,9,1,,,,,0,123,123,123,,,,,,,,,,,,,,,,,,,,,,,,,,,,,,,,,,,,,,,,,,,520.7123108590022,None,2,0.7044812909443863,520.7123108590022,None,,,,,,,,,,,,,,,,None,None,None,,None,None,521.4626942619798,None,1,1,0.7735472249914892,521.4626942619798,None,522.2296976824931,None,None,None,None,,38,001,2023_Jan_30_1516,searchDisc5,2021.2.3,60.033127713215116,
images/exp1b_trial_242_colour1_distractors19_l.png,l,1,1,19,1,,,,,0,124,124,124,,,,,,,,,,,,,,,,,,,,,,,,,,,,,,,,,,,,,,,,,,,522.2458431539708,None,2,0.7013860290171579,522.2458431539708,None,,,,,,,,,,,,,,,,None,None,None,,None,None,522.9957919769804,None,1,1,0.7036357710021548,522.9957919769804,None,523.696256965521,None,None,None,None,,38,001,2023_Jan_30_1516,searchDisc5,2021.2.3,60.033127713215116,
images/exp1b_trial_199_colour2_distractors9_r.png,r,3,2,9,1,,,,,0,125,125,125,,,,,,,,,,,,,,,,,,,,,,,,,,,,,,,,,,,,,,,,,,,523.7124526000116,None,2,0.7711588349775411,523.7124526000116,None,,,,,,,,,,,,,,,,None,None,None,,None,None,524.5314777650055,None,3,1,0.821234276983887,524.5314777650055,None,525.3463484924927,None,None,None,None,,38,001,2023_Jan_30_1516,searchDisc5,2021.2.3,60.033127713215116,
images/exp1b_trial_29_colour3_distractors31_l.png,l,1,3,31,1,,,,,0,126,126,126,,,,,,,,,,,,,,,,,,,,,,,,,,,,,,,,,,,,,,,,,,,525.3625891300035,None,2,0.7041484109940939,525.3625891300035,None,,,,,,,,,,,,,,,,None,None,None,,None,None,526.1120069429744,None,1,1,1.0863000379758887,526.1120069429744,None,527.1962856195227,None,None,None,None,,38,001,2023_Jan_30_1516,searchDisc5,2021.2.3,60.033127713215116,
images/exp1b_trial_247_colour2_distractors19_l.png,l,1,2,19,1,,,,,0,127,127,127,,,,,,,,,,,,,,,,,,,,,,,,,,,,,,,,,,,,,,,,,,,527.2123604830122,None,2,0.837969752959907,527.2123604830122,None,,,,,,,,,,,,,,,,None,None,None,,None,None,528.0962003560271,None,1,1,1.0535034509957768,528.0962003560271,None,529.1462412874738,None,None,None,None,,38,001,2023_Jan_30_1516,searchDisc5,2021.2.3,60.033127713215116,
images/exp1b_trial_312_colour2_distractors31_l.png,l,1,2,31,1,,,,,0,128,128,128,,,,,,,,,,,,,,,,,,,,,,,,,,,,,,,,,,,,,,,,,,,529.1622807650128,None,2,0.7880045879865065,529.1622807650128,None,,,,,,,,,,,,,,,,None,None,None,,None,None,529.9983179770061,None,1,1,0.6200347570120357,529.9983179770061,None,530.6129753785266,None,None,None,None,,38,001,2023_Jan_30_1516,searchDisc5,2021.2.3,60.033127713215116,
images/exp1b_trial_165_colour2_distractors1_r.png,r,3,2,1,1,,,,,0,129,129,129,,,,,,,,,,,,,,,,,,,,,,,,,,,,,,,,,,,,,,,,,,,530.6293269430171,None,2,0.520969009026885,530.6293269430171,None,,,,,,,,,,,,,,,,None,None,None,,None,None,531.1960560149746,None,3,1,0.6057810799684376,531.1960560149746,None,531.7963170895295,None,None,None,None,,38,001,2023_Jan_30_1516,searchDisc5,2021.2.3,60.033127713215116,
images/exp1b_trial_281_colour3_distractors1_l.png,l,1,3,1,1,,,,,0,130,130,130,,,,,,,,,,,,,,,,,,,,,,,,,,,,,,,,,,,,,,,,,,,531.8142753539723,None,2,0.48797382903285325,531.8142753539723,None,,,,,,,,,,,,,,,,None,None,None,,None,None,532.3483969569788,None,1,1,0.5557178739691153,532.3483969569788,None,532.8964430994878,None,None,None,None,,38,001,2023_Jan_30_1516,searchDisc5,2021.2.3,60.033127713215116,
images/exp1b_trial_244_colour2_distractors1_l.png,l,1,2,1,1,,,,,0,131,131,131,,,,,,,,,,,,,,,,,,,,,,,,,,,,,,,,,,,,,,,,,,,532.9123187920195,None,2,0.4378954879939556,532.9123187920195,None,,,,,,,,,,,,,,,,None,None,None,,None,None,533.3976271610009,None,1,1,0.722467077022884,533.3976271610009,None,534.1131338204781,None,None,None,None,,38,001,2023_Jan_30_1516,searchDisc5,2021.2.3,60.033127713215116,
images/exp1b_trial_102_colour2_distractors4_r.png,r,3,2,4,1,,,,,0,132,132,132,,,,,,,,,,,,,,,,,,,,,,,,,,,,,,,,,,,,,,,,,,,534.1291070419829,None,2,0.4878698349930346,534.1291070419829,None,,,,,,,,,,,,,,,,None,None,None,,None,None,534.6627761980053,None,3,1,0.67213169002207,534.6627761980053,None,535.3299434065178,None,None,None,None,,38,001,2023_Jan_30_1516,searchDisc5,2021.2.3,60.033127713215116,
images/exp1b_trial_37_colour2_distractors1_r.png,r,3,2,1,1,,,,,0,133,133,133,,,,,,,,,,,,,,,,,,,,,,,,,,,,,,,,,,,,,,,,,,,535.3474869549973,None,2,0.48766837699804455,535.3474869549973,None,,,,,,,,,,,,,,,,None,None,None,,None,None,535.8817427890026,None,3,1,0.7559348429786041,535.8817427890026,None,536.629893808515,None,None,None,None,,38,001,2023_Jan_30_1516,searchDisc5,2021.2.3,60.033127713215116,
images/exp1b_trial_279_colour2_distractors19_l.png,l,1,2,19,1,,,,,0,134,134,134,,,,,,,,,,,,,,,,,,,,,,,,,,,,,,,,,,,,,,,,,,,536.6455608389806,None,2,0.4041579629993066,536.6455608389806,None,,,,,,,,,,,,,,,,None,None,None,,None,None,537.0985283600166,None,1,1,1.5875530170160346,537.0985283600166,None,538.6798666275048,None,None,None,None,,38,001,2023_Jan_30_1516,searchDisc5,2021.2.3,60.033127713215116,
images/exp1b_trial_156_colour3_distractors19_l.png,l,1,3,19,1,,,,,0,135,135,135,,,,,,,,,,,,,,,,,,,,,,,,,,,,,,,,,,,,,,,,,,,538.6961894399719,None,2,0.7211876439978369,538.6961894399719,None,,,,,,,,,,,,,,,,None,None,None,,None,None,539.4646719819866,None,1,1,0.8537815330200829,539.4646719819866,None,540.3133067804796,None,None,None,None,,38,001,2023_Jan_30_1516,searchDisc5,2021.2.3,60.033127713215116,
images/exp1b_trial_67_colour1_distractors19_r.png,r,3,1,19,1,,,,,0,136,136,136,,,,,,,,,,,,,,,,,,,,,,,,,,,,,,,,,,,,,,,,,,,540.3316532860044,None,2,0.5733203570125625,540.3316532860044,None,,,,,,,,,,,,,,,,None,None,None,,None,None,540.9465428959811,None,3,1,0.6512369359843433,540.9465428959811,None,541.5965925264812,None,None,None,None,,38,001,2023_Jan_30_1516,searchDisc5,2021.2.3,60.033127713215116,
images/exp1b_trial_189_colour3_distractors31_l.png,l,1,3,31,1,,,,,0,137,137,137,,,,,,,,,,,,,,,,,,,,,,,,,,,,,,,,,,,,,,,,,,,541.6131706419983,None,2,0.4733076220145449,541.6131706419983,None,,,,,,,,,,,,,,,,None,None,None,,None,None,542.1299031950184,None,1,1,0.900148699991405,542.1299031950184,None,543.0299986095109,None,None,None,None,,38,001,2023_Jan_30_1516,searchDisc5,2021.2.3,60.033127713215116,
images/exp1b_trial_223_colour0_distractors0_l.png,l,1,0,0,1,,,,,0,138,138,138,,,,,,,,,,,,,,,,,,,,,,,,,,,,,,,,,,,,,,,,,,,543.0462915149983,None,2,0.5378708959906362,543.0462915149983,None,,,,,,,,,,,,,,,,None,None,None,,None,None,543.6321635909844,None,1,1,0.6227770410478115,543.6321635909844,None,544.2467293174763,None,None,None,None,,38,001,2023_Jan_30_1516,searchDisc5,2021.2.3,60.033127713215116,
images/exp1b_trial_171_colour3_distractors4_r.png,r,3,3,4,1,,,,,0,139,139,139,,,,,,,,,,,,,,,,,,,,,,,,,,,,,,,,,,,,,,,,,,,544.2625613409909,None,2,0.520241727004759,544.2625613409909,None,,,,,,,,,,,,,,,,None,None,None,,None,None,544.8297455530264,None,3,1,0.6552833650493994,544.8297455530264,None,545.4800854285189,None,None,None,None,,38,001,2023_Jan_30_1516,searchDisc5,2021.2.3,60.033127713215116,
images/exp1b_trial_226_colour1_distractors9_r.png,r,3,1,9,1,,,,,0,140,140,140,,,,,,,,,,,,,,,,,,,,,,,,,,,,,,,,,,,,,,,,,,,545.4965741239721,None,2,0.5380231959861703,545.4965741239721,None,,,,,,,,,,,,,,,,None,None,None,,None,None,546.0821589619736,None,3,1,0.8216181690222584,546.0821589619736,None,546.8967944975069,None,None,None,None,,38,001,2023_Jan_30_1516,searchDisc5,2021.2.3,60.033127713215116,
images/exp1b_trial_26_colour3_distractors4_l.png,l,1,3,4,1,,,,,0,141,141,141,,,,,,,,,,,,,,,,,,,,,,,,,,,,,,,,,,,,,,,,,,,546.9131346599897,None,2,0.5033794920309447,546.9131346599897,None,,,,,,,,,,,,,,,,None,None,None,,None,None,547.4631040680106,None,1,1,1.1547142820199952,547.4631040680106,None,548.6135597634769,None,None,None,None,,38,001,2023_Jan_30_1516,searchDisc5,2021.2.3,60.033127713215116,
images/exp1b_trial_73_colour2_distractors31_r.png,r,3,2,31,1,,,,,0,142,142,142,,,,,,,,,,,,,,,,,,,,,,,,,,,,,,,,,,,,,,,,,,,548.6319508819724,None,2,0.5399688279721886,548.6319508819724,None,,,,,,,,,,,,,,,,None,None,None,,None,None,549.2148103649961,None,3,1,1.7182219860260375,549.2148103649961,None,550.9302636354754,None,None,None,None,,38,001,2023_Jan_30_1516,searchDisc5,2021.2.3,60.033127713215116,
images/exp1b_trial_76_colour3_distractors9_r.png,r,3,3,9,1,,,,,0,143,143,143,,,,,,,,,,,,,,,,,,,,,,,,,,,,,,,,,,,,,,,,,,,550.9462783759809,None,2,0.5544882090180181,550.9462783759809,None,,,,,,,,,,,,,,,,None,None,None,,None,None,551.5481522639748,None,3,1,1.503976987034548,551.5481522639748,None,553.046874009486,None,None,None,None,,38,001,2023_Jan_30_1516,searchDisc5,2021.2.3,60.033127713215116,
images/exp1b_trial_164_colour1_distractors31_r.png,r,3,1,31,1,,,,,0,144,144,144,,,,,,,,,,,,,,,,,,,,,,,,,,,,,,,,,,,,,,,,,,,553.063156034972,None,2,0.4710235540405847,553.063156034972,None,,,,,,,,,,,,,,,,None,None,None,,None,None,553.5803682520054,None,3,1,0.7518374429782853,553.5803682520054,None,554.3304816724907,None,None,None,None,,38,001,2023_Jan_30_1516,searchDisc5,2021.2.3,60.033127713215116,
images/exp1b_trial_315_colour3_distractors9_l.png,l,1,3,9,1,,,,,0,145,145,145,,,,,,,,,,,,,,,,,,,,,,,,,,,,,,,,,,,,,,,,,,,554.3488667940255,None,2,0.4547529260162264,554.3488667940255,None,,,,,,,,,,,,,,,,None,None,None,,None,None,554.8464009190211,None,1,1,0.8036563009954989,554.8464009190211,None,555.6470643105043,None,None,None,None,,38,001,2023_Jan_30_1516,searchDisc5,2021.2.3,60.033127713215116,
images/exp1b_trial_120_colour2_distractors31_l.png,l,1,2,31,1,,,,,0,146,146,146,,,,,,,,,,,,,,,,,,,,,,,,,,,,,,,,,,,,,,,,,,,555.6633800370037,None,2,0.48761804500827566,555.6633800370037,None,,,,,,,,,,,,,,,,None,None,None,,None,None,556.1968431380228,None,1,1,0.6221899919910356,556.1968431380228,None,556.8135844374832,None,None,None,None,,38,001,2023_Jan_30_1516,searchDisc5,2021.2.3,60.033127713215116,
images/exp1b_trial_96_colour1_distractors1_r.png,r,3,1,1,1,,,,,0,147,147,147,,,,,,,,,,,,,,,,,,,,,,,,,,,,,,,,,,,,,,,,,,,556.8300367419724,None,2,0.4568034000112675,556.8300367419724,None,,,,,,,,,,,,,,,,None,None,None,,None,None,557.3320667700027,None,3,1,0.7674286779947579,557.3320667700027,None,558.0963364404801,None,None,None,None,,38,001,2023_Jan_30_1516,searchDisc5,2021.2.3,60.033127713215116,
images/exp1b_trial_80_colour1_distractors4_l.png,l,1,1,4,1,,,,,0,148,148,148,,,,,,,,,,,,,,,,,,,,,,,,,,,,,,,,,,,,,,,,,,,558.1155761450063,None,2,0.5408570610452443,558.1155761450063,None,,,,,,,,,,,,,,,,None,None,None,,None,None,558.6983369779773,None,1,1,0.8862197220441885,558.6983369779773,None,559.5804121934983,None,None,None,None,,38,001,2023_Jan_30_1516,searchDisc5,2021.2.3,60.033127713215116,
images/exp1b_trial_170_colour3_distractors1_r.png,r,3,3,1,1,,,,,0,149,149,149,,,,,,,,,,,,,,,,,,,,,,,,,,,,,,,,,,,,,,,,,,,559.5962397790281,None,2,0.522260906000156,559.5962397790281,None,,,,,,,,,,,,,,,,None,None,None,,None,None,560.1637878509937,None,3,1,0.8044370909919962,560.1637878509937,None,560.9631589165132,None,None,None,None,,38,001,2023_Jan_30_1516,searchDisc5,2021.2.3,60.033127713215116,
images/exp1b_trial_48_colour1_distractors4_l.png,l,1,1,4,1,,,,,0,150,150,150,,,,,,,,,,,,,,,,,,,,,,,,,,,,,,,,,,,,,,,,,,,560.9795273990021,None,2,0.45920308597851545,560.9795273990021,None,,,,,,,,,,,,,,,,None,None,None,,None,None,561.479810386023,None,1,1,0.9347831899649464,561.479810386023,None,562.4139642994909,None,None,None,None,,38,001,2023_Jan_30_1516,searchDisc5,2021.2.3,60.033127713215116,
images/exp1b_trial_121_colour3_distractors1_l.png,l,1,3,1,1,,,,,0,151,151,151,,,,,,,,,,,,,,,,,,,,,,,,,,,,,,,,,,,,,,,,,,,562.429528779001,None,2,0.4062354000052437,562.429528779001,None,,,,,,,,,,,,,,,,None,None,None,,None,None,562.8827879470191,None,1,1,0.7706169839948416,562.8827879470191,None,563.6473118914931,None,None,None,None,,38,001,2023_Jan_30_1516,searchDisc5,2021.2.3,60.033127713215116,
images/exp1b_trial_84_colour2_distractors1_l.png,l,1,2,1,1,,,,,0,152,152,152,,,,,,,,,,,,,,,,,,,,,,,,,,,,,,,,,,,,,,,,,,,563.6656534969807,None,2,0.4244023280334659,563.6656534969807,None,,,,,,,,,,,,,,,,None,None,None,,None,None,564.1300323019968,None,1,1,0.6186025179922581,564.1300323019968,None,564.7474082924949,None,None,None,None,,38,001,2023_Jan_30_1516,searchDisc5,2021.2.3,60.033127713215116,
images/exp1b_trial_57_colour3_distractors1_l.png,l,1,3,1,1,,,,,0,153,153,153,,,,,,,,,,,,,,,,,,,,,,,,,,,,,,,,,,,,,,,,,,,564.7655151920044,None,2,0.5044954550103284,564.7655151920044,None,,,,,,,,,,,,,,,,None,None,None,,None,None,565.3159394339891,None,1,1,1.5221365899778903,565.3159394339891,None,566.8305603555112,None,None,None,None,,38,001,2023_Jan_30_1516,searchDisc5,2021.2.3,60.033127713215116,
images/exp1b_trial_45_colour3_distractors19_r.png,r,3,3,19,1,,,,,0,154,154,154,,,,,,,,,,,,,,,,,,,,,,,,,,,,,,,,,,,,,,,,,,,566.8486389979953,None,2,8.808458221959881,566.8486389979953,None,,,,,,,,,,,,,,,,None,None,None,,None,None,575.697604186018,None,3,1,0.9493939729873091,575.697604186018,None,576.6476881365,None,None,None,None,,38,001,2023_Jan_30_1516,searchDisc5,2021.2.3,60.033127713215116,
images/exp1b_trial_119_colour2_distractors19_l.png,l,1,2,19,1,,,,,0,155,155,155,,,,,,,,,,,,,,,,,,,,,,,,,,,,,,,,,,,,,,,,,,,576.6660456020036,None,2,0.8209827179671265,576.6660456020036,None,,,,,,,,,,,,,,,,None,None,None,,None,None,577.5303088380024,None,1,1,1.4041223020176403,577.5303088380024,None,578.9312155355059,None,None,None,None,,38,001,2023_Jan_30_1516,searchDisc5,2021.2.3,60.033127713215116,
images/exp1b_trial_17_colour1_distractors9_l.png,l,1,1,9,1,,,,,0,156,156,156,,,,,,,,,,,,,,,,,,,,,,,,,,,,,,,,,,,,,,,,,,,578.9473298949888,None,2,0.5741001690039411,578.9473298949888,None,,,,,,,,,,,,,,,,None,None,None,,None,None,579.5663879310014,None,1,1,0.7338507369859144,579.5663879310014,None,580.298100511491,None,None,None,None,,38,001,2023_Jan_30_1516,searchDisc5,2021.2.3,60.033127713215116,
images/exp1b_trial_101_colour2_distractors1_r.png,r,3,2,1,1,,,,,0,157,157,157,,,,,,,,,,,,,,,,,,,,,,,,,,,,,,,,,,,,,,,,,,,580.314084933023,None,2,0.47096913104178384,580.314084933023,None,,,,,,,,,,,,,,,,None,None,None,,None,None,580.8310627319734,None,3,1,0.8055598339997232,580.8310627319734,None,581.6309825955017,None,None,None,None,,38,001,2023_Jan_30_1516,searchDisc5,2021.2.3,60.033127713215116,
images/exp1b_trial_148_colour2_distractors1_l.png,l,1,2,1,1,,,,,0,158,158,158,,,,,,,,,,,,,,,,,,,,,,,,,,,,,,,,,,,,,,,,,,,581.6467601169716,None,2,0.556623145006597,581.6467601169716,None,,,,,,,,,,,,,,,,None,None,None,,None,None,582.2497199570062,None,1,1,0.6554883610224351,582.2497199570062,None,582.897985505528,None,None,None,None,,38,001,2023_Jan_30_1516,searchDisc5,2021.2.3,60.033127713215116,
images/exp1b_trial_0_colour1_distractors1_r.png,r,3,1,1,1,,,,,0,159,159,159,,,,,,,,,,,,,,,,,,,,,,,,,,,,,,,,,,,,,,,,,,,582.9140091000008,None,2,0.46878195099998266,582.9140091000008,None,,,,,,,,,,,,,,,,None,None,None,,None,None,583.4307522409945,None,3,1,0.9244921620120294,583.4307522409945,None,584.3478866394784,None,None,None,None,,38,001,2023_Jan_30_1516,searchDisc5,2021.2.3,60.033127713215116,
images/exp1b_trial_13_colour3_distractors19_r.png,r,3,3,19,1,,,,,0,160,160,160,,,,,,,,,,,,,,,,,,,,,,,,,,,,,,,,,,,,,,,,,,,584.3644460659707,None,2,0.4531193879665807,584.3644460659707,None,,,,,,,,,,,,,,,,None,None,None,,None,None,584.864385094028,None,3,1,1.3020703090005554,584.864385094028,None,586.1642490385042,None,None,None,None,,38,001,2023_Jan_30_1516,searchDisc5,2021.2.3,60.033127713215116,
images/exp1b_trial_136_colour2_distractors19_r.png,r,3,2,19,1,,,,,0,161,161,161,,,,,,,,,,,,,,,,,,,,,,,,,,,,,,,,,,,,,,,,,,,586.1810122299939,None,2,0.5541874499758705,586.1810122299939,None,,,,,,,,,,,,,,,,None,None,None,,None,None,586.7832744750194,None,3,1,0.7380492899683304,586.7832744750194,None,587.5146614824829,None,None,None,None,,38,001,2023_Jan_30_1516,searchDisc5,2021.2.3,60.033127713215116,
images/exp1b_trial_58_colour3_distractors4_l.png,l,1,3,4,1,,,,,0,162,162,162,,,,,,,,,,,,,,,,,,,,,,,,,,,,,,,,,,,,,,,,,,,587.5305473280023,None,2,0.47109727596398443,587.5305473280023,None,,,,,,,,,,,,,,,,None,None,None,,None,None,588.0478295109933,None,1,1,1.288740341027733,588.0478295109933,None,589.3314690914762,None,None,None,None,,38,001,2023_Jan_30_1516,searchDisc5,2021.2.3,60.033127713215116,
images/exp1b_trial_169_colour2_distractors31_r.png,r,3,2,31,1,,,,,0,163,163,163,,,,,,,,,,,,,,,,,,,,,,,,,,,,,,,,,,,,,,,,,,,589.3479843559908,None,2,0.5040470259846188,589.3479843559908,None,,,,,,,,,,,,,,,,None,None,None,,None,None,589.8974213820184,None,3,1,1.4702975719701499,589.8974213820184,None,591.3647392924817,None,None,None,None,,38,001,2023_Jan_30_1516,searchDisc5,2021.2.3,60.033127713215116,
images/exp1b_trial_272_colour1_distractors4_l.png,l,1,1,4,1,,,,,0,164,164,164,,,,,,,,,,,,,,,,,,,,,,,,,,,,,,,,,,,,,,,,,,,591.3832535509719,None,2,0.6377640819991939,591.3832535509719,None,,,,,,,,,,,,,,,,None,None,None,,None,None,592.064521472028,None,1,1,0.705336528015323,592.064521472028,None,592.7647609855106,None,None,None,None,,38,001,2023_Jan_30_1516,searchDisc5,2021.2.3,60.033127713215116,
images/exp1b_trial_287_colour0_distractors0_l.png,l,1,0,0,1,,,,,0,165,165,165,,,,,,,,,,,,,,,,,,,,,,,,,,,,,,,,,,,,,,,,,,,592.7805506209843,None,2,0.6879764670156874,592.7805506209843,None,,,,,,,,,,,,,,,,None,None,None,,None,None,593.5142693640082,None,1,1,0.5556970069883391,593.5142693640082,None,594.0647983165167,None,None,None,None,,38,001,2023_Jan_30_1516,searchDisc5,2021.2.3,60.033127713215116,
images/exp1b_trial_180_colour2_distractors1_l.png,l,1,2,1,1,,,,,0,166,166,166,,,,,,,,,,,,,,,,,,,,,,,,,,,,,,,,,,,,,,,,,,,594.0812148560071,None,2,0.4208028509747237,594.0812148560071,None,,,,,,,,,,,,,,,,None,None,None,,None,None,594.5499991740217,None,1,1,0.8245274549699388,594.5499991740217,None,595.3648279334942,None,None,None,None,,38,001,2023_Jan_30_1516,searchDisc5,2021.2.3,60.033127713215116,
images/exp1b_trial_205_colour3_distractors19_r.png,r,3,3,19,1,,,,,0,167,167,167,,,,,,,,,,,,,,,,,,,,,,,,,,,,,,,,,,,,,,,,,,,595.3814750100137,None,2,0.4209454070078209,595.3814750100137,None,,,,,,,,,,,,,,,,None,None,None,,None,None,595.8499888629885,None,3,1,1.2341558509506285,595.8499888629885,None,597.0814718055248,None,None,None,None,,38,001,2023_Jan_30_1516,searchDisc5,2021.2.3,60.033127713215116,
images/exp1b_trial_46_colour3_distractors31_r.png,r,3,3,31,1,,,,,0,168,168,168,,,,,,,,,,,,,,,,,,,,,,,,,,,,,,,,,,,,,,,,,,,597.0973959140247,None,2,0.4546273360028863,597.0973959140247,None,,,,,,,,,,,,,,,,None,None,None,,None,None,597.598177472013,None,3,1,0.76903740799753,597.598177472013,None,598.3649037355266,None,None,None,None,,38,001,2023_Jan_30_1516,searchDisc5,2021.2.3,60.033127713215116,
images/exp1b_trial_61_colour3_distractors31_l.png,l,1,3,31,1,,,,,0,169,169,169,,,,,,,,,,,,,,,,,,,,,,,,,,,,,,,,,,,,,,,,,,,598.3832522769808,None,2,0.4712797660031356,598.3832522769808,None,,,,,,,,,,,,,,,,None,None,None,,None,None,598.9005958670168,None,1,1,1.8852031299611554,598.9005958670168,None,600.781502753502,None,None,None,None,,38,001,2023_Jan_30_1516,searchDisc5,2021.2.3,60.033127713215116,
images/exp1b_trial_107_colour3_distractors4_r.png,r,3,3,4,1,,,,,0,170,170,170,,,,,,,,,,,,,,,,,,,,,,,,,,,,,,,,,,,,,,,,,,,600.7979759090231,None,2,0.50645823701052,600.7979759090231,None,,,,,,,,,,,,,,,,None,None,None,,None,None,601.3483298289939,None,3,1,0.9359186790534295,601.3483298289939,None,602.2817029384954,None,None,None,None,,38,001,2023_Jan_30_1516,searchDisc5,2021.2.3,60.033127713215116,
images/exp1b_trial_39_colour2_distractors9_r.png,r,3,2,9,1,,,,,0,171,171,171,,,,,,,,,,,,,,,,,,,,,,,,,,,,,,,,,,,,,,,,,,,602.2980833059992,None,2,0.637910897959955,602.2980833059992,None,,,,,,,,,,,,,,,,None,None,None,,None,None,602.9815769739798,None,3,1,0.8877916380297393,602.9815769739798,None,603.8650718645134,None,None,None,None,,38,001,2023_Jan_30_1516,searchDisc5,2021.2.3,60.033127713215116,
images/exp1b_trial_51_colour1_distractors31_l.png,l,1,1,31,1,,,,,0,172,172,172,,,,,,,,,,,,,,,,,,,,,,,,,,,,,,,,,,,,,,,,,,,603.8832371120225,None,2,0.5709489259752445,603.8832371120225,None,,,,,,,,,,,,,,,,None,None,None,,None,None,604.4984845920117,None,1,1,0.9010021220310591,604.4984845920117,None,605.3984008485044,None,None,None,None,,38,001,2023_Jan_30_1516,searchDisc5,2021.2.3,60.033127713215116,
images/exp1b_trial_15_colour1_distractors1_l.png,l,1,1,1,1,,,,,0,173,173,173,,,,,,,,,,,,,,,,,,,,,,,,,,,,,,,,,,,,,,,,,,,605.4146849740064,None,2,0.5898242230177857,605.4146849740064,None,,,,,,,,,,,,,,,,None,None,None,,None,None,606.0483649690286,None,1,1,0.7869995029759593,606.0483649690286,None,606.8318269265059,None,None,None,None,,38,001,2023_Jan_30_1516,searchDisc5,2021.2.3,60.033127713215116,
images/exp1b_trial_292_colour1_distractors31_r.png,r,3,1,31,1,,,,,0,174,174,174,,,,,,,,,,,,,,,,,,,,,,,,,,,,,,,,,,,,,,,,,,,606.8481043319916,None,2,0.5373306919937022,606.8481043319916,None,,,,,,,,,,,,,,,,None,None,None,,None,None,607.4337442779797,None,3,1,1.9536949170287699,607.4337442779797,None,609.3819409254996,None,None,None,None,,38,001,2023_Jan_30_1516,searchDisc5,2021.2.3,60.033127713215116,
images/exp1b_trial_152_colour2_distractors31_l.png,l,1,2,31,1,,,,,0,175,175,175,,,,,,,,,,,,,,,,,,,,,,,,,,,,,,,,,,,,,,,,,,,609.3976045689778,None,2,0.5360609070048667,609.3976045689778,None,,,,,,,,,,,,,,,,None,None,None,,None,None,609.9816336460062,None,1,1,2.0042648810194805,609.9816336460062,None,611.9819839645119,None,None,None,None,,38,001,2023_Jan_30_1516,searchDisc5,2021.2.3,60.033127713215116,
images/exp1b_trial_135_colour2_distractors9_r.png,r,3,2,9,1,,,,,0,176,176,176,,,,,,,,,,,,,,,,,,,,,,,,,,,,,,,,,,,,,,,,,,,611.9981087219785,None,2,0.4392402830417268,611.9981087219785,None,,,,,,,,,,,,,,,,None,None,None,,None,None,612.4818752629799,None,3,1,0.9855843569966964,612.4818752629799,None,613.4653177255008,None,None,None,None,,38,001,2023_Jan_30_1516,searchDisc5,2021.2.3,60.033127713215116,
images/exp1b_trial_297_colour2_distractors31_r.png,r,3,2,31,1,,,,,0,177,177,177,,,,,,,,,,,,,,,,,,,,,,,,,,,,,,,,,,,,,,,,,,,613.481482165982,None,2,0.40434575302060694,613.481482165982,None,,,,,,,,,,,,,,,,None,None,None,,None,None,613.9339719149866,None,3,1,0.8537227099877782,613.9339719149866,None,614.7820751814928,None,None,None,None,,38,001,2023_Jan_30_1516,searchDisc5,2021.2.3,60.033127713215116,
images/exp1b_trial_25_colour3_distractors1_l.png,l,1,3,1,1,,,,,0,178,178,178,,,,,,,,,,,,,,,,,,,,,,,,,,,,,,,,,,,,,,,,,,,614.800421271997,None,2,0.4067182500148192,614.800421271997,None,,,,,,,,,,,,,,,,None,None,None,,None,None,615.250209935999,None,1,1,1.2703700420097448,615.250209935999,None,616.5154911725025,None,None,None,None,,38,001,2023_Jan_30_1516,searchDisc5,2021.2.3,60.033127713215116,
images/exp1b_trial_249_colour3_distractors1_l.png,l,1,3,1,1,,,,,0,179,179,179,,,,,,,,,,,,,,,,,,,,,,,,,,,,,,,,,,,,,,,,,,,616.5338575050118,None,2,0.45439318794524297,616.5338575050118,None,,,,,,,,,,,,,,,,None,None,None,,None,None,617.0317910059821,None,1,1,1.4221463490393944,617.0317910059821,None,618.4488416785083,None,None,None,None,,38,001,2023_Jan_30_1516,searchDisc5,2021.2.3,60.033127713215116,
images/exp1b_trial_191_colour0_distractors0_l.png,l,1,0,0,1,,,,,0,180,180,180,,,,,,,,,,,,,,,,,,,,,,,,,,,,,,,,,,,,,,,,,,,618.4654008080252,None,2,0.4200577689916827,618.4654008080252,None,,,,,,,,,,,,,,,,None,None,None,,None,None,618.934281356982,None,1,1,0.706594268034678,618.934281356982,None,619.6320700484852,None,None,None,None,,38,001,2023_Jan_30_1516,searchDisc5,2021.2.3,60.033127713215116,
images/exp1b_trial_21_colour2_distractors4_l.png,l,1,2,4,1,,,,,0,181,181,181,,,,,,,,,,,,,,,,,,,,,,,,,,,,,,,,,,,,,,,,,,,619.6485694050207,None,2,0.4396934440010227,619.6485694050207,None,,,,,,,,,,,,,,,,None,None,None,,None,None,620.1346473200247,None,1,1,0.6036617850186303,620.1346473200247,None,620.7320160375151,None,None,None,None,,38,001,2023_Jan_30_1516,searchDisc5,2021.2.3,60.033127713215116,
images/exp1b_trial_11_colour3_distractors4_r.png,r,3,3,4,1,,,,,0,182,182,182,,,,,,,,,,,,,,,,,,,,,,,,,,,,,,,,,,,,,,,,,,,620.7506347059971,None,2,0.4375924919731915,620.7506347059971,None,,,,,,,,,,,,,,,,None,None,None,,None,None,621.2324394559837,None,3,1,0.8226962329936214,621.2324394559837,None,622.0489628465206,None,None,None,None,,38,001,2023_Jan_30_1516,searchDisc5,2021.2.3,60.033127713215116,
images/exp1b_trial_214_colour2_distractors9_l.png,l,1,2,9,1,,,,,0,183,183,183,,,,,,,,,,,,,,,,,,,,,,,,,,,,,,,,,,,,,,,,,,,622.0646093299729,None,2,0.4079128949670121,622.0646093299729,None,,,,,,,,,,,,,,,,None,None,None,,None,None,622.5174996129936,None,1,1,0.8358024739427492,622.5174996129936,None,623.3489661054977,None,None,None,None,,38,001,2023_Jan_30_1516,searchDisc5,2021.2.3,60.033127713215116,
images/exp1b_trial_262_colour2_distractors4_r.png,r,3,2,4,1,,,,,0,184,184,184,,,,,,,,,,,,,,,,,,,,,,,,,,,,,,,,,,,,,,,,,,,623.3655454660184,None,2,0.38964144501369447,623.3655454660184,None,,,,,,,,,,,,,,,,None,None,None,,None,None,623.8016733370023,None,3,1,0.8851388699840754,623.8016733370023,None,624.6817182424769,None,None,None,None,,38,001,2023_Jan_30_1516,searchDisc5,2021.2.3,60.033127713215116,
images/exp1b_trial_168_colour2_distractors19_r.png,r,3,2,19,1,,,,,0,185,185,185,,,,,,,,,,,,,,,,,,,,,,,,,,,,,,,,,,,,,,,,,,,624.6998697009985,None,2,0.4054744830355048,624.6998697009985,None,,,,,,,,,,,,,,,,None,None,None,,None,None,625.1490149989841,None,3,1,0.9043919629766606,625.1490149989841,None,626.04915489548,None,None,None,None,,38,001,2023_Jan_30_1516,searchDisc5,2021.2.3,60.033127713215116,
images/exp1b_trial_31_colour0_distractors0_l.png,l,1,0,0,1,,,,,0,186,186,186,,,,,,,,,,,,,,,,,,,,,,,,,,,,,,,,,,,,,,,,,,,626.0656046309741,None,2,0.48947620997205377,626.0656046309741,None,,,,,,,,,,,,,,,,None,None,None,,None,None,626.6014407150215,None,1,1,0.6032335470081307,626.6014407150215,None,627.1982537584903,None,None,None,None,,38,001,2023_Jan_30_1516,searchDisc5,2021.2.3,60.033127713215116,
images/exp1b_trial_276_colour2_distractors1_l.png,l,1,2,1,1,,,,,0,187,187,187,,,,,,,,,,,,,,,,,,,,,,,,,,,,,,,,,,,,,,,,,,,627.218261550006,None,2,0.4231601409846917,627.218261550006,None,,,,,,,,,,,,,,,,None,None,None,,None,None,627.6826982020284,None,1,1,0.7046330039738677,627.6826982020284,None,628.3824512874766,None,None,None,None,,38,001,2023_Jan_30_1516,searchDisc5,2021.2.3,60.033127713215116,
images/exp1b_trial_97_colour1_distractors4_r.png,r,3,1,4,1,,,,,0,188,188,188,,,,,,,,,,,,,,,,,,,,,,,,,,,,,,,,,,,,,,,,,,,628.3989990960108,None,2,0.4545426049735397,628.3989990960108,None,,,,,,,,,,,,,,,,None,None,None,,None,None,628.900327750016,None,3,1,0.8885091510019265,628.900327750016,None,629.7825527485169,None,None,None,None,,38,001,2023_Jan_30_1516,searchDisc5,2021.2.3,60.033127713215116,
images/exp1b_trial_116_colour2_distractors1_l.png,l,1,2,1,1,,,,,0,189,189,189,,,,,,,,,,,,,,,,,,,,,,,,,,,,,,,,,,,,,,,,,,,629.8016519729863,None,2,0.3908560890122317,629.8016519729863,None,,,,,,,,,,,,,,,,None,None,None,,None,None,630.2351435790188,None,1,1,0.8523254669853486,630.2351435790188,None,631.082545552525,None,None,None,None,,38,001,2023_Jan_30_1516,searchDisc5,2021.2.3,60.033127713215116,
images/exp1b_trial_231_colour2_distractors9_r.png,r,3,2,9,1,,,,,0,190,190,190,,,,,,,,,,,,,,,,,,,,,,,,,,,,,,,,,,,,,,,,,,,631.099545471021,None,2,0.5234510920126922,631.099545471021,None,,,,,,,,,,,,,,,,None,None,None,,None,None,631.6681968779885,None,3,1,0.8538854909711517,631.6681968779885,None,632.5168687484751,None,None,None,None,,38,001,2023_Jan_30_1516,searchDisc5,2021.2.3,60.033127713215116,
images/exp1b_trial_310_colour2_distractors9_l.png,l,1,2,9,1,,,,,0,191,191,191,,,,,,,,,,,,,,,,,,,,,,,,,,,,,,,,,,,,,,,,,,,632.5322893399862,None,2,0.4201785559998825,632.5322893399862,None,,,,,,,,,,,,,,,,None,None,None,,None,None,632.9993481169804,None,1,1,0.7543142630020157,632.9993481169804,None,633.748705386481,None,None,None,None,,38,001,2023_Jan_30_1516,searchDisc5,2021.2.3,60.033127713215116,
images/exp1b_trial_228_colour1_distractors31_r.png,r,3,1,31,1,,,,,0,192,192,192,,,,,,,,,,,,,,,,,,,,,,,,,,,,,,,,,,,,,,,,,,,633.7663371270173,None,2,0.47617062501376495,633.7663371270173,None,,,,,,,,,,,,,,,,None,None,None,,None,None,634.2850807959912,None,3,1,1.0141738269594498,634.2850807959912,None,635.2993263974844,None,None,None,None,,38,001,2023_Jan_30_1516,searchDisc5,2021.2.3,60.033127713215116,
images/exp1b_trial_133_colour2_distractors1_r.png,r,3,2,1,1,,,,,0,193,193,193,,,,,,,,,,,,,,,,,,,,,,,,,,,,,,,,,,,,,,,,,,,635.3186129709939,None,2,0.52119075297378,635.3186129709939,None,,,,,,,,,,,,,,,,None,None,None,,None,None,635.8828044320107,None,3,1,0.8228733849828131,635.8828044320107,None,636.6994303864834,None,None,None,None,,38,001,2023_Jan_30_1516,searchDisc5,2021.2.3,60.033127713215116,
images/exp1b_trial_52_colour2_distractors1_l.png,l,1,2,1,1,,,,,0,194,194,194,,,,,,,,,,,,,,,,,,,,,,,,,,,,,,,,,,,,,,,,,,,636.7164008509717,None,2,0.4566745400079526,636.7164008509717,None,,,,,,,,,,,,,,,,None,None,None,,None,None,637.2180092670023,None,1,1,0.6866614110185765,637.2180092670023,None,637.8990290004934,None,None,None,None,,38,001,2023_Jan_30_1516,searchDisc5,2021.2.3,60.033127713215116,
images/exp1b_trial_208_colour1_distractors4_l.png,l,1,1,4,1,,,,,0,195,195,195,,,,,,,,,,,,,,,,,,,,,,,,,,,,,,,,,,,,,,,,,,,637.9178267939715,None,2,0.525413595023565,637.9178267939715,None,,,,,,,,,,,,,,,,None,None,None,,None,None,638.4840389729943,None,1,1,0.6535165450186469,638.4840389729943,None,639.1329406995268,None,None,None,None,,38,001,2023_Jan_30_1516,searchDisc5,2021.2.3,60.033127713215116,
images/exp1b_trial_275_colour1_distractors31_l.png,l,1,1,31,1,,,,,0,196,196,196,,,,,,,,,,,,,,,,,,,,,,,,,,,,,,,,,,,,,,,,,,,639.1503724679933,None,2,0.568628168955911,639.1503724679933,None,,,,,,,,,,,,,,,,None,None,None,,None,None,639.766171736992,None,1,1,0.6517656369833276,639.766171736992,None,640.4162521035236,None,None,None,None,,38,001,2023_Jan_30_1516,searchDisc5,2021.2.3,60.033127713215116,
images/exp1b_trial_210_colour1_distractors19_l.png,l,1,1,19,1,,,,,0,197,197,197,,,,,,,,,,,,,,,,,,,,,,,,,,,,,,,,,,,,,,,,,,,640.4332077840227,None,2,0.4879042020183988,640.4332077840227,None,,,,,,,,,,,,,,,,None,None,None,,None,None,640.9684284909745,None,1,1,0.6363317969953641,640.9684284909745,None,641.5994873535295,None,None,None,None,,38,001,2023_Jan_30_1516,searchDisc5,2021.2.3,60.033127713215116,
images/exp1b_trial_211_colour1_distractors31_l.png,l,1,1,31,1,,,,,0,198,198,198,,,,,,,,,,,,,,,,,,,,,,,,,,,,,,,,,,,,,,,,,,,641.6165818700101,None,2,0.5567714549833909,641.6165818700101,None,,,,,,,,,,,,,,,,None,None,None,,None,None,642.2181815609802,None,1,1,0.850205660040956,642.2181815609802,None,643.0664335375244,None,None,None,None,,38,001,2023_Jan_30_1516,searchDisc5,2021.2.3,60.033127713215116,
images/exp1b_trial_280_colour2_distractors31_l.png,l,1,2,31,1,,,,,0,199,199,199,,,,,,,,,,,,,,,,,,,,,,,,,,,,,,,,,,,,,,,,,,,643.0856467920239,None,2,0.43760830198880285,643.0856467920239,None,,,,,,,,,,,,,,,,None,None,None,,None,None,643.5694579239935,None,1,1,0.7531962969806045,643.5694579239935,None,644.3164074865111,None,None,None,None,,38,001,2023_Jan_30_1516,searchDisc5,2021.2.3,60.033127713215116,
images/exp1b_trial_238_colour3_distractors31_r.png,r,3,3,31,1,,,,,0,200,200,200,,,,,,,,,,,,,,,,,,,,,,,,,,,,,,,,,,,,,,,,,,,644.3333626890089,None,2,0.47115372197004035,644.3333626890089,None,,,,,,,,,,,,,,,,None,None,None,,None,None,644.8516690999968,None,3,1,0.9856830940116197,644.8516690999968,None,645.8330921465007,None,None,None,None,,38,001,2023_Jan_30_1516,searchDisc5,2021.2.3,60.033127713215116,
images/exp1b_trial_193_colour1_distractors4_r.png,r,3,1,4,1,,,,,0,201,201,201,,,,,,,,,,,,,,,,,,,,,,,,,,,,,,,,,,,,,,,,,,,645.8491844279924,None,2,0.42337412998313084,645.8491844279924,None,,,,,,,,,,,,,,,,None,None,None,,None,None,646.3168323109858,None,3,1,1.0525913850287907,646.3168323109858,None,647.366250734491,None,None,None,None,,38,001,2023_Jan_30_1516,searchDisc5,2021.2.3,60.033127713215116,
images/exp1b_trial_298_colour3_distractors1_r.png,r,3,3,1,1,,,,,0,202,202,202,,,,,,,,,,,,,,,,,,,,,,,,,,,,,,,,,,,,,,,,,,,647.3827212610049,None,2,0.4546596900327131,647.3827212610049,None,,,,,,,,,,,,,,,,None,None,None,,None,None,647.8828905450064,None,3,1,1.1398917430196889,647.8828905450064,None,649.0173619045003,None,None,None,None,,38,001,2023_Jan_30_1516,searchDisc5,2021.2.3,60.033127713215116,
images/exp1b_trial_87_colour2_distractors19_l.png,l,1,2,19,1,,,,,0,203,203,203,,,,,,,,,,,,,,,,,,,,,,,,,,,,,,,,,,,,,,,,,,,649.0358003419824,None,2,0.4042147980071604,649.0358003419824,None,,,,,,,,,,,,,,,,None,None,None,,None,None,649.482967842021,None,1,1,0.8053618830163032,649.482967842021,None,650.2853825205297,None,None,None,None,,38,001,2023_Jan_30_1516,searchDisc5,2021.2.3,60.033127713215116,
images/exp1b_trial_59_colour3_distractors9_l.png,l,1,3,9,1,,,,,0,204,204,204,,,,,,,,,,,,,,,,,,,,,,,,,,,,,,,,,,,,,,,,,,,650.2987833860097,None,2,0.452182067965623,650.2987833860097,None,,,,,,,,,,,,,,,,None,None,None,,None,None,650.7995822100202,None,1,1,1.7538909579743631,650.7995822100202,None,652.5499296875263,None,None,None,None,,38,001,2023_Jan_30_1516,searchDisc5,2021.2.3,60.033127713215116,
images/exp1b_trial_127_colour0_distractors0_l.png,l,1,0,0,1,,,,,0,205,205,205,,,,,,,,,,,,,,,,,,,,,,,,,,,,,,,,,,,,,,,,,,,652.566865989007,None,2,0.45753676805179566,652.566865989007,None,,,,,,,,,,,,,,,,None,None,None,,None,None,653.0689098070143,None,1,1,0.7215694149490446,653.0689098070143,None,653.7853787444823,None,None,None,None,,38,001,2023_Jan_30_1516,searchDisc5,2021.2.3,60.033127713215116,
images/exp1b_trial_212_colour2_distractors1_l.png,l,1,2,1,1,,,,,0,206,206,206,,,,,,,,,,,,,,,,,,,,,,,,,,,,,,,,,,,,,,,,,,,653.8002721659723,None,2,0.43664528196677566,653.8002721659723,None,,,,,,,,,,,,,,,,None,None,None,,None,None,654.2832716979901,None,1,1,0.7549347009626217,654.2832716979901,None,655.0332696174795,None,None,None,None,,38,001,2023_Jan_30_1516,searchDisc5,2021.2.3,60.033127713215116,
images/exp1b_trial_91_colour3_distractors9_l.png,l,1,3,9,1,,,,,0,207,207,207,,,,,,,,,,,,,,,,,,,,,,,,,,,,,,,,,,,,,,,,,,,655.0505070299841,None,2,0.37148708500899374,655.0505070299841,None,,,,,,,,,,,,,,,,None,None,None,,None,None,655.468684639025,None,1,1,0.9371754399617203,655.468684639025,None,656.4000147684768,None,None,None,None,,38,001,2023_Jan_30_1516,searchDisc5,2021.2.3,60.033127713215116,
images/exp1b_trial_303_colour1_distractors1_l.png,l,1,1,1,1,,,,,0,208,208,208,,,,,,,,,,,,,,,,,,,,,,,,,,,,,,,,,,,,,,,,,,,656.4183922489756,None,2,0.4211141210398637,656.4183922489756,None,,,,,,,,,,,,,,,,None,None,None,,None,None,656.8833290960174,None,1,1,0.8555403919890523,656.8833290960174,None,657.7332877304929,None,None,None,None,,38,001,2023_Jan_30_1516,searchDisc5,2021.2.3,60.033127713215116,
images/exp1b_trial_187_colour3_distractors9_l.png,l,1,3,9,1,,,,,0,209,209,209,,,,,,,,,,,,,,,,,,,,,,,,,,,,,,,,,,,,,,,,,,,657.7516616319772,None,2,0.4047900839941576,657.7516616319772,None,,,,,,,,,,,,,,,,None,None,None,,None,None,658.1993445149856,None,1,1,1.2718965740059502,658.1993445149856,None,659.4678207354794,None,None,None,None,,38,001,2023_Jan_30_1516,searchDisc5,2021.2.3,60.033127713215116,
images/exp1b_trial_24_colour2_distractors31_l.png,l,1,2,31,1,,,,,0,210,210,210,,,,,,,,,,,,,,,,,,,,,,,,,,,,,,,,,,,,,,,,,,,659.4837200790062,None,2,0.4716245949966833,659.4837200790062,None,,,,,,,,,,,,,,,,None,None,None,,None,None,660.0004088309943,None,1,1,1.0519808569806628,660.0004088309943,None,661.0502217895176,None,None,None,None,,38,001,2023_Jan_30_1516,searchDisc5,2021.2.3,60.033127713215116,
images/exp1b_trial_85_colour2_distractors4_l.png,l,1,2,4,1,,,,,0,211,211,211,,,,,,,,,,,,,,,,,,,,,,,,,,,,,,,,,,,,,,,,,,,661.0666787120281,None,2,0.5405272819916718,661.0666787120281,None,,,,,,,,,,,,,,,,None,None,None,,None,None,661.6528647199739,None,1,1,0.835485082003288,661.6528647199739,None,662.4833364695136,None,None,None,None,,38,001,2023_Jan_30_1516,searchDisc5,2021.2.3,60.033127713215116,
images/exp1b_trial_92_colour3_distractors19_l.png,l,1,3,19,1,,,,,0,212,212,212,,,,,,,,,,,,,,,,,,,,,,,,,,,,,,,,,,,,,,,,,,,662.499823221995,None,2,0.5242137739551254,662.499823221995,None,,,,,,,,,,,,,,,,None,None,None,,None,None,663.0692116210121,None,1,1,1.5666353670530953,663.0692116210121,None,664.6334741605154,None,None,None,None,,38,001,2023_Jan_30_1516,searchDisc5,2021.2.3,60.033127713215116,
images/exp1b_trial_114_colour1_distractors19_l.png,l,1,1,19,1,,,,,0,213,213,213,,,,,,,,,,,,,,,,,,,,,,,,,,,,,,,,,,,,,,,,,,,664.651771578996,None,2,0.48879233497427776,664.651771578996,None,,,,,,,,,,,,,,,,None,None,None,,None,None,665.1855321709882,None,1,1,0.8185529980110005,665.1855321709882,None,666.0001506725151,None,None,None,None,,38,001,2023_Jan_30_1516,searchDisc5,2021.2.3,60.033127713215116,
images/exp1b_trial_182_colour2_distractors9_l.png,l,1,2,9,1,,,,,0,214,214,214,,,,,,,,,,,,,,,,,,,,,,,,,,,,,,,,,,,,,,,,,,,666.0170671819942,None,2,0.4077691630227491,666.0170671819942,None,,,,,,,,,,,,,,,,None,None,None,,None,None,666.4692358979955,None,1,1,0.8685345779522322,666.4692358979955,None,667.3335756654909,None,None,None,None,,38,001,2023_Jan_30_1516,searchDisc5,2021.2.3,60.033127713215116,
images/exp1b_trial_271_colour1_distractors1_l.png,l,1,1,1,1,,,,,0,215,215,215,,,,,,,,,,,,,,,,,,,,,,,,,,,,,,,,,,,,,,,,,,,667.3511834319797,None,2,0.456929634034168,667.3511834319797,None,,,,,,,,,,,,,,,,None,None,None,,None,None,667.8534357139724,None,1,1,1.0531691929791123,667.8534357139724,None,668.900390971516,None,None,None,None,,38,001,2023_Jan_30_1516,searchDisc5,2021.2.3,60.033127713215116,
images/exp1b_trial_239_colour1_distractors1_l.png,l,1,1,1,1,,,,,0,216,216,216,,,,,,,,,,,,,,,,,,,,,,,,,,,,,,,,,,,,,,,,,,,668.9166248830152,None,2,0.4575649659964256,668.9166248830152,None,,,,,,,,,,,,,,,,None,None,None,,None,None,669.4173867080244,None,1,1,0.7540452719549648,669.4173867080244,None,670.1680968005152,None,None,None,None,,38,001,2023_Jan_30_1516,searchDisc5,2021.2.3,60.033127713215116,
images/exp1b_trial_36_colour1_distractors31_r.png,r,3,1,31,1,,,,,0,217,217,217,,,,,,,,,,,,,,,,,,,,,,,,,,,,,,,,,,,,,,,,,,,670.1862904489972,None,2,0.3880228840280324,670.1862904489972,None,,,,,,,,,,,,,,,,None,None,None,,None,None,670.6186500850017,None,3,1,0.7988190260366537,670.6186500850017,None,671.4170528965245,None,None,None,None,,38,001,2023_Jan_30_1516,searchDisc5,2021.2.3,60.033127713215116,
images/exp1b_trial_206_colour3_distractors31_r.png,r,3,3,31,1,,,,,0,218,218,218,,,,,,,,,,,,,,,,,,,,,,,,,,,,,,,,,,,,,,,,,,,671.4330913969898,None,2,0.5052520829485729,671.4330913969898,None,,,,,,,,,,,,,,,,None,None,None,,None,None,671.9853886549827,None,3,1,0.8342634399887174,671.9853886549827,None,672.8171719234728,None,None,None,None,,38,001,2023_Jan_30_1516,searchDisc5,2021.2.3,60.033127713215116,
images/exp1b_trial_28_colour3_distractors19_l.png,l,1,3,19,1,,,,,0,219,219,219,,,,,,,,,,,,,,,,,,,,,,,,,,,,,,,,,,,,,,,,,,,672.832749935973,None,2,0.4551264340407215,672.832749935973,None,,,,,,,,,,,,,,,,None,None,None,,None,None,673.333494298975,None,1,1,0.8349958939943463,673.333494298975,None,674.1671309985162,None,None,None,None,,38,001,2023_Jan_30_1516,searchDisc5,2021.2.3,60.033127713215116,
images/exp1b_trial_183_colour2_distractors19_l.png,l,1,2,19,1,,,,,0,220,220,220,,,,,,,,,,,,,,,,,,,,,,,,,,,,,,,,,,,,,,,,,,,674.183455521008,None,2,0.48886942700482905,674.183455521008,None,,,,,,,,,,,,,,,,None,None,None,,None,None,674.7172718269867,None,1,1,1.0038292660028674,674.7172718269867,None,675.7172765554918,None,None,None,None,,38,001,2023_Jan_30_1516,searchDisc5,2021.2.3,60.033127713215116,
images/exp1b_trial_302_colour3_distractors31_r.png,r,3,3,31,1,,,,,0,221,221,221,,,,,,,,,,,,,,,,,,,,,,,,,,,,,,,,,,,,,,,,,,,675.736689982994,None,2,0.48924820200772956,675.736689982994,None,,,,,,,,,,,,,,,,None,None,None,,None,None,676.269463315024,None,3,1,1.2175520019955002,676.269463315024,None,677.4838790944835,None,None,None,None,,38,001,2023_Jan_30_1516,searchDisc5,2021.2.3,60.033127713215116,
images/exp1b_trial_236_colour3_distractors9_r.png,r,3,3,9,1,,,,,0,222,222,222,,,,,,,,,,,,,,,,,,,,,,,,,,,,,,,,,,,,,,,,,,,677.4994239190128,None,2,0.6713880160241388,677.4994239190128,None,,,,,,,,,,,,,,,,None,None,None,,None,None,678.2179387700162,None,3,1,1.3042014519451186,678.2179387700162,None,679.5171412415278,None,None,None,None,,38,001,2023_Jan_30_1516,searchDisc5,2021.2.3,60.033127713215116,
images/exp1b_trial_53_colour2_distractors4_l.png,l,1,2,4,1,,,,,0,223,223,223,,,,,,,,,,,,,,,,,,,,,,,,,,,,,,,,,,,,,,,,,,,679.5343366690213,None,2,0.5210450210142881,679.5343366690213,None,,,,,,,,,,,,,,,,None,None,None,,None,None,680.1033606919809,None,1,1,0.8212882360094227,680.1033606919809,None,680.9166256684751,None,None,None,None,,38,001,2023_Jan_30_1516,searchDisc5,2021.2.3,60.033127713215116,
images/exp1b_trial_252_colour3_distractors19_l.png,l,1,3,19,1,,,,,0,224,224,224,,,,,,,,,,,,,,,,,,,,,,,,,,,,,,,,,,,,,,,,,,,680.9344540099846,None,2,0.5579746710136533,680.9344540099846,None,,,,,,,,,,,,,,,,None,None,None,,None,None,681.5370724429958,None,1,1,0.800099254003726,681.5370724429958,None,682.3340045064746,None,None,None,None,,38,001,2023_Jan_30_1516,searchDisc5,2021.2.3,60.033127713215116,
images/exp1b_trial_227_colour1_distractors19_r.png,r,3,1,19,1,,,,,0,225,225,225,,,,,,,,,,,,,,,,,,,,,,,,,,,,,,,,,,,,,,,,,,,682.3505224760156,None,2,0.6536015329766087,682.3505224760156,None,,,,,,,,,,,,,,,,None,None,None,,None,None,683.0505726920092,None,3,1,1.5036917030229233,683.0505726920092,None,684.5508043135109,None,None,None,None,,38,001,2023_Jan_30_1516,searchDisc5,2021.2.3,60.033127713215116,
