ImageFile,targ_side,correctAnswer,colour,distNo,targetType,trials_2.thisRepN,trials_2.thisTrialN,trials_2.thisN,trials_2.thisIndex,trials.thisRepN,trials.thisTrialN,trials.thisN,trials.thisIndex,text_6.started,text_6.stopped,buttonBox.keys,buttonBox.rt,buttonBox.started,buttonBox.stopped,text_7.started,text_7.stopped,buttonBox_3.keys,buttonBox_3.rt,buttonBox_3.started,buttonBox_3.stopped,text_8.started,text_8.stopped,buttonBox_4.keys,buttonBox_4.rt,buttonBox_4.started,buttonBox_4.stopped,text_9.started,text_9.stopped,buttonBox_5.keys,buttonBox_5.rt,buttonBox_5.started,buttonBox_5.stopped,text_2.started,text_2.stopped,buttonBox_6.keys,buttonBox_6.rt,buttonBox_6.started,buttonBox_6.stopped,text_5.started,text_5.stopped,buttonBox_7.keys,buttonBox_7.rt,image_2.started,image_2.stopped,image_3.started,image_3.stopped,buttonBox_8.keys,buttonBox_8.rt,buttonBox_8.started,buttonBox_8.stopped,polygon.started,polygon.stopped,buttonBox_9.keys,buttonBox_9.rt,buttonBox_9.started,buttonBox_9.stopped,image.started,image.stopped,buttonBox_10.keys,buttonBox_10.corr,buttonBox_10.rt,buttonBox_10.started,buttonBox_10.stopped,text_4.started,text_4.stopped,text.started,text.stopped,buttonBox_11.keys,buttonBox_11.rt,buttonBox_11.started,buttonBox_11.stopped,targetTypeInstruction.started,targetTypeInstruction.stopped,buttonBox_2.keys,buttonBox_2.rt,buttonBox_2.started,buttonBox_2.stopped,dispStimuli.started,dispStimuli.stopped,buttonBox_12.keys,buttonBox_12.corr,buttonBox_12.rt,buttonBox_12.started,buttonBox_12.stopped,breakMessage.started,breakMessage.stopped,buttonBox_13.keys,buttonBox_13.started,buttonBox_13.stopped,buttonBox_13.rt,participant,session,date,expName,psychopyVersion,frameRate,
,,,,,,,,,,,,,,20.565547598002013,None,2,57.32435788400471,20.565547598002013,None,,,,,,,,,,,,,,,,,,,,,,,,,,,,,,,,,,,,,,,,,,,,,,,,,,,,,,,,,,,,,,,,,,,,,,,,,,,,,39,001,2023_Jan_30_1619,searchDisc5,2021.2.3,59.982136604128335,
,,,,,,,,,,,,,,,,,,,,77.88151282502804,None,2,29.499399913998786,77.88151282502804,None,,,,,,,,,,,,,,,,,,,,,,,,,,,,,,,,,,,,,,,,,,,,,,,,,,,,,,,,,,,,,,,,,,,,,,,39,001,2023_Jan_30_1619,searchDisc5,2021.2.3,59.982136604128335,
,,,,,,,,,,,,,,,,,,,,,,,,,,107.38221967301797,None,2,7.231123202946037,107.38221967301797,None,,,,,,,,,,,,,,,,,,,,,,,,,,,,,,,,,,,,,,,,,,,,,,,,,,,,,,,,,,,,,,,,,39,001,2023_Jan_30_1619,searchDisc5,2021.2.3,59.982136604128335,
,,,,,,,,,,,,,,,,,,,,,,,,,,,,,,,,114.61582406802336,None,2,10.731549213989638,114.61582406802336,None,,,,,,,,,,,,,,,,,,,,,,,,,,,,,,,,,,,,,,,,,,,,,,,,,,,,,,,,,,,39,001,2023_Jan_30_1619,searchDisc5,2021.2.3,59.982136604128335,
,,,,,,,,,,,,,,,,,,,,,,,,,,,,,,,,,,,,,,125.35160722502042,None,2,7.948192511976231,126.33481069101254,None,,,,,,,,,,,,,,,,,,,,,,,,,,,,,,,,,,,,,,,,,,,,,,,,,,,,,39,001,2023_Jan_30_1619,searchDisc5,2021.2.3,59.982136604128335,
,,,,,,,,,,,,,,,,,,,,,,,,,,,,,,,,,,,,,,,,,,,,134.28295333700953,None,2,11.281620391004253,,,,,,,,,,,,,,,,,,,,,,,,,,,,,,,,,,,,,,,,,,,,,,,,,39,001,2023_Jan_30_1619,searchDisc5,2021.2.3,59.982136604128335,
,,,,,,,,,,,,,,,,,,,,,,,,,,,,,,,,,,,,,,,,,,,,,,,,148.5687413320411,None,148.5687413320411,None,2,6.633112163981423,148.5687413320411,None,,,,,,,,,,,,,,,,,,,,,,,,,,,,,,,,,,,,,,,,,39,001,2023_Jan_30_1619,searchDisc5,2021.2.3,59.982136604128335,
Practice arrays/exp1a_trial_17_colour1_distractors9_l.png,l,1,,,,0,0,0,7,,,,,,,,,,,,,,,,,,,,,,,,,,,,,,,,,,,,,,,,,,,,,,,155.23549797100713,None,2,5.886289193993434,155.23549797100713,None,161.16989824303892,None,1,1,2.553416447015479,161.16989824303892,None,163.7166948650265,None,,,,,,,,,,,,,,,,,,,,,,,,,,39,001,2023_Jan_30_1619,searchDisc5,2021.2.3,59.982136604128335,
Practice arrays/exp1a_trial_18_colour1_distractors19_l.png,l,1,,,,0,1,1,8,,,,,,,,,,,,,,,,,,,,,,,,,,,,,,,,,,,,,,,,,,,,,,,165.71894885401707,None,2,5.8813508650055155,165.71894885401707,None,171.65263268299168,None,1,1,1.0820666860090569,171.65263268299168,None,172.73401286604349,None,,,,,,,,,,,,,,,,,,,,,,,,,,39,001,2023_Jan_30_1619,searchDisc5,2021.2.3,59.982136604128335,
Practice arrays/exp1a_trial_30_colour0_distractors0_r.png,r,3,,,,0,2,2,14,,,,,,,,,,,,,,,,,,,,,,,,,,,,,,,,,,,,,,,,,,,,,,,174.7356639690115,None,2,0.8805060780141503,174.7356639690115,None,175.6693507200107,None,1,0,0.7541760939639062,175.6693507200107,None,176.41744247300085,None,,,,,,,,,,,,,,,,,,,,,,,,,,39,001,2023_Jan_30_1619,searchDisc5,2021.2.3,59.982136604128335,
Practice arrays/exp1a_trial_14_colour3_distractors31_r.png,r,3,,,,0,3,3,6,,,,,,,,,,,,,,,,,,,,,,,,,,,,,,,,,,,,,,,,,,,,,,,178.41905964299804,None,2,0.7161839649779722,178.41905964299804,None,179.18629091302864,None,3,1,1.3494225349859335,179.18629091302864,None,180.53419416304678,None,,,,,,,,,,,,,,,,,,,,,,,,,,39,001,2023_Jan_30_1619,searchDisc5,2021.2.3,59.982136604128335,
Practice arrays/exp1a_trial_25_colour3_distractors1_l.png,l,1,,,,0,4,4,11,,,,,,,,,,,,,,,,,,,,,,,,,,,,,,,,,,,,,,,,,,,,,,,182.53628199599916,None,2,1.0828182740369812,182.53628199599916,None,183.6698751320364,None,1,1,0.9545766580267809,183.6698751320364,None,184.61761089303764,None,,,,,,,,,,,,,,,,,,,,,,,,,,39,001,2023_Jan_30_1619,searchDisc5,2021.2.3,59.982136604128335,
Practice arrays/exp1a_trial_7_colour2_distractors9_r.png,r,3,,,,0,5,5,2,,,,,,,,,,,,,,,,,,,,,,,,,,,,,,,,,,,,,,,,,,,,,,,186.619796924002,None,2,0.963858752977103,186.619796924002,None,187.63397560600424,None,3,1,0.8691698440234177,187.63397560600424,None,188.50118698301958,None,,,,,,,,,,,,,,,,,,,,,,,,,,39,001,2023_Jan_30_1619,searchDisc5,2021.2.3,59.982136604128335,
Practice arrays/exp1a_trial_21_colour2_distractors4_l.png,l,1,,,,0,6,6,9,,,,,,,,,,,,,,,,,,,,,,,,,,,,,,,,,,,,,,,,,,,,,,,190.50325769203482,None,2,0.5157197790103965,190.50325769203482,None,191.07027348899283,None,1,1,0.9372902570175938,191.07027348899283,None,192.00133225304307,None,,,,,,,,,,,,,,,,,,,,,,,,,,39,001,2023_Jan_30_1619,searchDisc5,2021.2.3,59.982136604128335,
Practice arrays/exp1a_trial_0_colour1_distractors1_r.png,r,3,,,,0,7,7,0,,,,,,,,,,,,,,,,,,,,,,,,,,,,,,,,,,,,,,,,,,,,,,,194.0030312880408,None,2,0.8824953539879061,194.0030312880408,None,194.93696525599808,None,3,1,1.1872495780116878,194.93696525599808,None,196.117994905042,None,,,,,,,,,,,,,,,,,,,,,,,,,,39,001,2023_Jan_30_1619,searchDisc5,2021.2.3,59.982136604128335,
Practice arrays/exp1a_trial_23_colour2_distractors19_l.png,l,1,,,,0,8,8,10,,,,,,,,,,,,,,,,,,,,,,,,,,,,,,,,,,,,,,,,,,,,,,,198.1201355230296,None,2,0.8978065330302343,198.1201355230296,None,199.07042442902457,None,1,1,0.8513611700036563,199.07042442902457,None,199.91801937500713,None,,,,,,,,,,,,,,,,,,,,,,,,,,39,001,2023_Jan_30_1619,searchDisc5,2021.2.3,59.982136604128335,
Practice arrays/exp1a_trial_10_colour3_distractors1_r.png,r,3,,,,0,9,9,4,,,,,,,,,,,,,,,,,,,,,,,,,,,,,,,,,,,,,,,,,,,,,,,201.9202766190283,None,2,0.7343272950383835,201.9202766190283,None,202.70383790199412,None,3,1,0.7332404080079868,202.70383790199412,None,203.43491266603814,None,,,,,,,,,,,,,,,,,,,,,,,,,,39,001,2023_Jan_30_1619,searchDisc5,2021.2.3,59.982136604128335,
Practice arrays/exp1a_trial_16_colour1_distractors4_l.png,l,1,,,,0,10,10,13,,,,,,,,,,,,,,,,,,,,,,,,,,,,,,,,,,,,,,,,,,,,,,,205.43680243002018,None,2,1.2664071229519323,205.43680243002018,None,206.7518965860363,None,1,1,0.7696238260250539,206.7518965860363,None,207.51855645899195,None,,,,,,,,,,,,,,,,,,,,,,,,,,39,001,2023_Jan_30_1619,searchDisc5,2021.2.3,59.982136604128335,
Practice arrays/exp1a_trial_31_colour0_distractors0_l.png,l,1,,,,0,11,11,15,,,,,,,,,,,,,,,,,,,,,,,,,,,,,,,,,,,,,,,,,,,,,,,209.52050516899908,None,2,0.532684983976651,209.52050516899908,None,210.101971332042,None,1,1,0.6503958880202845,210.101971332042,None,210.7516754520475,None,,,,,,,,,,,,,,,,,,,,,,,,,,39,001,2023_Jan_30_1619,searchDisc5,2021.2.3,59.982136604128335,
Practice arrays/exp1a_trial_27_colour3_distractors9_l.png,l,1,,,,0,12,12,12,,,,,,,,,,,,,,,,,,,,,,,,,,,,,,,,,,,,,,,,,,,,,,,212.7534585110261,None,2,0.4992052169982344,212.7534585110261,None,213.3037377030123,None,1,1,0.8321512269903906,213.3037377030123,None,214.13526402099524,None,,,,,,,,,,,,,,,,,,,,,,,,,,39,001,2023_Jan_30_1619,searchDisc5,2021.2.3,59.982136604128335,
Practice arrays/exp1a_trial_1_colour1_distractors4_r.png,r,3,,,,0,13,13,1,,,,,,,,,,,,,,,,,,,,,,,,,,,,,,,,,,,,,,,,,,,,,,,216.13729827699717,None,2,0.6309758819988929,216.13729827699717,None,216.81820803001756,None,3,1,0.7541996440268122,216.81820803001756,None,217.56857882399345,None,,,,,,,,,,,,,,,,,,,,,,,,,,39,001,2023_Jan_30_1619,searchDisc5,2021.2.3,59.982136604128335,
Practice arrays/exp1a_trial_12_colour3_distractors9_r.png,r,3,,,,0,14,14,5,,,,,,,,,,,,,,,,,,,,,,,,,,,,,,,,,,,,,,,,,,,,,,,219.570757701993,None,2,0.7497961380286142,219.570757701993,None,220.36882963700918,None,3,1,0.6816576470155269,220.36882963700918,None,221.05215586803388,None,,,,,,,,,,,,,,,,,,,,,,,,,,39,001,2023_Jan_30_1619,searchDisc5,2021.2.3,59.982136604128335,
Practice arrays/exp1a_trial_8_colour2_distractors19_r.png,r,3,,,,0,15,15,3,,,,,,,,,,,,,,,,,,,,,,,,,,,,,,,,,,,,,,,,,,,,,,,223.05386456701672,None,2,0.5470218459959142,223.05386456701672,None,223.65164406702388,None,3,1,0.7518438530387357,223.65164406702388,None,224.4015804780065,None,,,,,,,,,,,,,,,,,,,,,,,,,,39,001,2023_Jan_30_1619,searchDisc5,2021.2.3,59.982136604128335,
,,,,,,,,,,,,,,,,,,,,,,,,,,,,,,,,,,,,,,,,,,,,,,,,,,,,,,,,,,,,,,,,,,,,,,,226.4880384959979,None,2,11.716923949017655,227.48762662999798,None,,,,,,,,,,,,,,,,,,,,39,001,2023_Jan_30_1619,searchDisc5,2021.2.3,59.982136604128335,
images/exp1a_trial_102_colour2_distractors4_r.png,r,3,2,4,0,,,,,0,0,0,0,,,,,,,,,,,,,,,,,,,,,,,,,,,,,,,,,,,,,,,,,,,248.48596579703735,None,2,1.5788814239786007,248.48596579703735,None,,,,,,,,,,,,,,,,239.7878043029923,None,2,6.714808125980198,241.77126150304684,None,250.12646581901936,None,3,1,0.949170759995468,250.12646581901936,None,251.0864826622186,None,None,None,None,,39,001,2023_Jan_30_1619,searchDisc5,2021.2.3,59.982136604128335,
images/exp2a_trial_156_colour3_distractors19_l.png,l,1,3,19,0,,,,,0,1,1,1,,,,,,,,,,,,,,,,,,,,,,,,,,,,,,,,,,,,,,,,,,,251.10283168003662,None,2,3.509432531951461,251.10283168003662,None,,,,,,,,,,,,,,,,None,None,None,,None,None,254.65446824702667,None,1,1,0.9995784839848056,254.65446824702667,None,255.65300015612155,None,None,None,None,,39,001,2023_Jan_30_1619,searchDisc5,2021.2.3,59.982136604128335,
images/exp1a_trial_183_colour2_distractors19_l.png,l,1,2,19,0,,,,,0,2,2,2,,,,,,,,,,,,,,,,,,,,,,,,,,,,,,,,,,,,,,,,,,,255.66976238199277,None,2,1.155002347950358,255.66976238199277,None,,,,,,,,,,,,,,,,None,None,None,,None,None,256.87201583501883,None,1,1,0.7827818230143748,256.87201583501883,None,257.65329941713134,None,None,None,None,,39,001,2023_Jan_30_1619,searchDisc5,2021.2.3,59.982136604128335,
images/exp1a_trial_83_colour1_distractors31_l.png,l,1,1,31,0,,,,,0,3,3,3,,,,,,,,,,,,,,,,,,,,,,,,,,,,,,,,,,,,,,,,,,,257.66950955602806,None,2,0.9890179259818979,257.66950955602806,None,,,,,,,,,,,,,,,,None,None,None,,None,None,258.7052039800328,None,1,1,0.9811065930407494,258.7052039800328,None,259.686379239097,None,None,None,None,,39,001,2023_Jan_30_1619,searchDisc5,2021.2.3,59.982136604128335,
images/exp2c_trial_153_colour3_distractors1_l.png,l,1,3,1,0,,,,,0,4,4,4,,,,,,,,,,,,,,,,,,,,,,,,,,,,,,,,,,,,,,,,,,,259.7024803190143,None,2,1.0540917319594882,259.7024803190143,None,,,,,,,,,,,,,,,,None,None,None,,None,None,260.8035002880497,None,1,1,1.0559090529568493,260.8035002880497,None,261.85328199314534,None,None,None,None,,39,001,2023_Jan_30_1619,searchDisc5,2021.2.3,59.982136604128335,
images/exp2c_trial_10_colour3_distractors1_r.png,r,3,3,1,0,,,,,0,5,5,5,,,,,,,,,,,,,,,,,,,,,,,,,,,,,,,,,,,,,,,,,,,261.8698474490084,None,2,0.7734138069790788,261.8698474490084,None,,,,,,,,,,,,,,,,None,None,None,,None,None,262.6880114530213,None,3,1,1.1704586520208977,262.6880114530213,None,263.85322099710464,None,None,None,None,,39,001,2023_Jan_30_1619,searchDisc5,2021.2.3,59.982136604128335,
images/exp1a_trial_236_colour3_distractors9_r.png,r,3,3,9,0,,,,,0,6,6,6,,,,,,,,,,,,,,,,,,,,,,,,,,,,,,,,,,,,,,,,,,,263.86914732301375,None,2,0.9882033510366455,263.86914732301375,None,,,,,,,,,,,,,,,,None,None,None,,None,None,264.90344168402953,None,3,1,0.9373909519636072,264.90344168402953,None,265.8366489501379,None,None,None,None,,39,001,2023_Jan_30_1619,searchDisc5,2021.2.3,59.982136604128335,
images/exp2a_trial_250_colour3_distractors4_l.png,l,1,3,4,0,,,,,0,7,7,7,,,,,,,,,,,,,,,,,,,,,,,,,,,,,,,,,,,,,,,,,,,265.8555159100215,None,2,3.2705626279930584,265.8555159100215,None,,,,,,,,,,,,,,,,None,None,None,,None,None,269.17219156801,None,1,1,0.6884732919861563,269.17219156801,None,269.85365347711485,None,None,None,None,,39,001,2023_Jan_30_1619,searchDisc5,2021.2.3,59.982136604128335,
images/exp2b_trial_244_colour2_distractors1_l.png,l,1,2,1,0,,,,,0,8,8,8,,,,,,,,,,,,,,,,,,,,,,,,,,,,,,,,,,,,,,,,,,,269.87174751301063,None,2,0.9709679660154507,269.87174751301063,None,,,,,,,,,,,,,,,,None,None,None,,None,None,270.88668239704566,None,1,1,0.7729461180279031,270.88668239704566,None,271.6533500781108,None,None,None,None,,39,001,2023_Jan_30_1619,searchDisc5,2021.2.3,59.982136604128335,
images/exp2a_trial_1_colour1_distractors4_r.png,r,3,1,4,0,,,,,0,9,9,9,,,,,,,,,,,,,,,,,,,,,,,,,,,,,,,,,,,,,,,,,,,271.6693984750309,None,2,0.8714074279996566,271.6693984750309,None,,,,,,,,,,,,,,,,None,None,None,,None,None,272.58676847303286,None,3,1,0.7393407479976304,272.58676847303286,None,273.32027061512343,None,None,None,None,,39,001,2023_Jan_30_1619,searchDisc5,2021.2.3,59.982136604128335,
images/exp2b_trial_144_colour1_distractors4_l.png,l,1,1,4,0,,,,,0,10,10,10,,,,,,,,,,,,,,,,,,,,,,,,,,,,,,,,,,,,,,,,,,,273.33622526802355,None,2,0.7891443279804662,273.33622526802355,None,,,,,,,,,,,,,,,,None,None,None,,None,None,274.1719716550433,None,1,1,0.6703303909744136,274.1719716550433,None,274.8370176341443,None,None,None,None,,39,001,2023_Jan_30_1619,searchDisc5,2021.2.3,59.982136604128335,
images/exp2c_trial_87_colour2_distractors19_l.png,l,1,2,19,0,,,,,0,11,11,11,,,,,,,,,,,,,,,,,,,,,,,,,,,,,,,,,,,,,,,,,,,274.85272984800395,None,2,0.7546685830457136,274.85272984800395,None,,,,,,,,,,,,,,,,None,None,None,,None,None,275.6556975960266,None,1,1,0.7204306569765322,275.6556975960266,None,276.3703653251461,None,None,None,None,,39,001,2023_Jan_30_1619,searchDisc5,2021.2.3,59.982136604128335,
images/exp2b_trial_165_colour2_distractors1_r.png,r,3,2,1,0,,,,,0,12,12,12,,,,,,,,,,,,,,,,,,,,,,,,,,,,,,,,,,,,,,,,,,,276.38667524501216,None,2,0.6874569120118394,276.38667524501216,None,,,,,,,,,,,,,,,,None,None,None,,None,None,277.12010641704546,None,3,1,0.8396906160051003,277.12010641704546,None,277.95380107513046,None,None,None,None,,39,001,2023_Jan_30_1619,searchDisc5,2021.2.3,59.982136604128335,
images/exp2a_trial_254_colour0_distractors0_r.png,r,3,0,0,0,,,,,0,13,13,13,,,,,,,,,,,,,,,,,,,,,,,,,,,,,,,,,,,,,,,,,,,277.97002203500597,None,2,0.6240067569888197,277.97002203500597,None,,,,,,,,,,,,,,,,None,None,None,,None,None,278.63910225604195,None,1,0,0.6866537060122937,278.63910225604195,None,279.32052672411663,None,None,None,None,,39,001,2023_Jan_30_1619,searchDisc5,2021.2.3,59.982136604128335,
images/exp1a_trial_78_colour3_distractors31_r.png,r,3,3,31,0,,,,,0,14,14,14,,,,,,,,,,,,,,,,,,,,,,,,,,,,,,,,,,,,,,,,,,,279.3383157590288,None,2,1.1234196290024556,279.3383157590288,None,,,,,,,,,,,,,,,,None,None,None,,None,None,280.50605439703213,None,3,1,0.8310639670235105,280.50605439703213,None,281.3370933361177,None,None,None,None,,39,001,2023_Jan_30_1619,searchDisc5,2021.2.3,59.982136604128335,
images/exp2c_trial_179_colour1_distractors31_l.png,l,1,1,31,0,,,,,0,15,15,15,,,,,,,,,,,,,,,,,,,,,,,,,,,,,,,,,,,,,,,,,,,281.35302717704326,None,2,0.5900268630357459,281.35302717704326,None,,,,,,,,,,,,,,,,None,None,None,,None,None,281.986593631038,None,1,1,0.7524696170003153,281.986593631038,None,282.7371071451518,None,None,None,None,,39,001,2023_Jan_30_1619,searchDisc5,2021.2.3,59.982136604128335,
images/exp2c_trial_151_colour2_distractors19_l.png,l,1,2,19,0,,,,,0,16,16,16,,,,,,,,,,,,,,,,,,,,,,,,,,,,,,,,,,,,,,,,,,,282.753305137041,None,2,0.6529912219848484,282.753305137041,None,,,,,,,,,,,,,,,,None,None,None,,None,None,283.4534283520188,None,1,1,0.669472013018094,283.4534283520188,None,284.1197444071469,None,None,None,None,,39,001,2023_Jan_30_1619,searchDisc5,2021.2.3,59.982136604128335,
images/exp2c_trial_194_colour1_distractors9_r.png,r,3,1,9,0,,,,,0,17,17,17,,,,,,,,,,,,,,,,,,,,,,,,,,,,,,,,,,,,,,,,,,,284.1389393210411,None,2,0.7067810339503922,284.1389393210411,None,,,,,,,,,,,,,,,,None,None,None,,None,None,284.88940810400527,None,3,1,0.7198905679979362,284.88940810400527,None,285.60399627314763,None,None,None,None,,39,001,2023_Jan_30_1619,searchDisc5,2021.2.3,59.982136604128335,
images/exp2c_trial_282_colour3_distractors4_l.png,l,1,3,4,0,,,,,0,18,18,18,,,,,,,,,,,,,,,,,,,,,,,,,,,,,,,,,,,,,,,,,,,285.6204016880365,None,2,0.7706275759846903,285.6204016880365,None,,,,,,,,,,,,,,,,None,None,None,,None,None,286.43895247904584,None,1,1,0.7388044209801592,286.43895247904584,None,287.1706422991294,None,None,None,None,,39,001,2023_Jan_30_1619,searchDisc5,2021.2.3,59.982136604128335,
images/exp1a_trial_262_colour2_distractors4_r.png,r,3,2,4,0,,,,,0,19,19,19,,,,,,,,,,,,,,,,,,,,,,,,,,,,,,,,,,,,,,,,,,,287.18661841604626,None,2,0.6713926229858771,287.18661841604626,None,,,,,,,,,,,,,,,,None,None,None,,None,None,287.903321934049,None,3,1,0.6551922700018622,287.903321934049,None,288.55422869914327,None,None,None,None,,39,001,2023_Jan_30_1619,searchDisc5,2021.2.3,59.982136604128335,
images/exp2a_trial_87_colour2_distractors19_l.png,l,1,2,19,0,,,,,0,20,20,20,,,,,,,,,,,,,,,,,,,,,,,,,,,,,,,,,,,,,,,,,,,288.572106784035,None,2,0.7044553809682839,288.572106784035,None,,,,,,,,,,,,,,,,None,None,None,,None,None,289.3206341890036,None,1,1,0.7142771360231563,289.3206341890036,None,290.0373569191026,None,None,None,None,,39,001,2023_Jan_30_1619,searchDisc5,2021.2.3,59.982136604128335,
images/exp1a_trial_140_colour3_distractors9_r.png,r,3,3,9,0,,,,,0,21,21,21,,,,,,,,,,,,,,,,,,,,,,,,,,,,,,,,,,,,,,,,,,,290.05370376299834,None,2,0.6709814259666018,290.05370376299834,None,,,,,,,,,,,,,,,,None,None,None,,None,None,290.7700029890402,None,3,1,0.6701940390048549,290.7700029890402,None,291.43748108409926,None,None,None,None,,39,001,2023_Jan_30_1619,searchDisc5,2021.2.3,59.982136604128335,
images/exp2b_trial_32_colour1_distractors1_r.png,r,3,1,1,0,,,,,0,22,22,22,,,,,,,,,,,,,,,,,,,,,,,,,,,,,,,,,,,,,,,,,,,291.4558309330023,None,2,0.6378853479982354,291.4558309330023,None,,,,,,,,,,,,,,,,None,None,None,,None,None,292.13721036701463,None,3,1,0.6894927709945478,292.13721036701463,None,292.8207043781469,None,None,None,None,,39,001,2023_Jan_30_1619,searchDisc5,2021.2.3,59.982136604128335,
images/exp2b_trial_17_colour1_distractors9_l.png,l,1,1,9,0,,,,,0,23,23,23,,,,,,,,,,,,,,,,,,,,,,,,,,,,,,,,,,,,,,,,,,,292.83710143202916,None,2,0.6547742540133186,292.83710143202916,None,,,,,,,,,,,,,,,,None,None,None,,None,None,293.5369457430206,None,1,1,0.6383143640123308,293.5369457430206,None,294.1710571421019,None,None,None,None,,39,001,2023_Jan_30_1619,searchDisc5,2021.2.3,59.982136604128335,
images/exp2a_trial_251_colour3_distractors9_l.png,l,1,3,9,0,,,,,0,24,24,24,,,,,,,,,,,,,,,,,,,,,,,,,,,,,,,,,,,,,,,,,,,294.18744606903056,None,2,0.704167063056957,294.18744606903056,None,,,,,,,,,,,,,,,,None,None,None,,None,None,294.93697022099514,None,1,1,0.6212398249772377,294.93697022099514,None,295.55416075613465,None,None,None,None,,39,001,2023_Jan_30_1619,searchDisc5,2021.2.3,59.982136604128335,
images/exp1a_trial_158_colour0_distractors0_r.png,r,3,0,0,0,,,,,0,25,25,25,,,,,,,,,,,,,,,,,,,,,,,,,,,,,,,,,,,,,,,,,,,295.57060482300585,None,2,0.588087412994355,295.57060482300585,None,,,,,,,,,,,,,,,,None,None,None,,None,None,296.20596661401214,None,3,1,0.6581808109767735,296.20596661401214,None,296.8542402561463,None,None,None,None,,39,001,2023_Jan_30_1619,searchDisc5,2021.2.3,59.982136604128335,
images/exp1a_trial_278_colour2_distractors9_l.png,l,1,2,9,0,,,,,0,26,26,26,,,,,,,,,,,,,,,,,,,,,,,,,,,,,,,,,,,,,,,,,,,296.8702786830254,None,2,0.6208956519840285,296.8702786830254,None,,,,,,,,,,,,,,,,None,None,None,,None,None,297.53939888702007,None,1,1,0.7206084399949759,297.53939888702007,None,298.2542372271011,None,None,None,None,,39,001,2023_Jan_30_1619,searchDisc5,2021.2.3,59.982136604128335,
images/exp2a_trial_196_colour1_distractors31_r.png,r,3,1,31,0,,,,,0,27,27,27,,,,,,,,,,,,,,,,,,,,,,,,,,,,,,,,,,,,,,,,,,,298.270574032038,None,2,0.6693367739790119,298.270574032038,None,,,,,,,,,,,,,,,,None,None,None,,None,None,298.98752860404784,None,3,1,0.6026624079677276,298.98752860404784,None,299.58755287011735,None,None,None,None,,39,001,2023_Jan_30_1619,searchDisc5,2021.2.3,59.982136604128335,
images/exp2b_trial_280_colour2_distractors31_l.png,l,1,2,31,0,,,,,0,28,28,28,,,,,,,,,,,,,,,,,,,,,,,,,,,,,,,,,,,,,,,,,,,299.60400350304553,None,2,0.655995128036011,299.60400350304553,None,,,,,,,,,,,,,,,,None,None,None,,None,None,300.3044274360291,None,1,1,0.7183365980163217,300.3044274360291,None,301.0209933050966,None,None,None,None,,39,001,2023_Jan_30_1619,searchDisc5,2021.2.3,59.982136604128335,
images/exp2a_trial_255_colour0_distractors0_l.png,l,1,0,0,0,,,,,0,29,29,29,,,,,,,,,,,,,,,,,,,,,,,,,,,,,,,,,,,,,,,,,,,301.03956246201415,None,2,0.6713257049559616,301.03956246201415,None,,,,,,,,,,,,,,,,None,None,None,,None,None,301.75405968603445,None,1,1,0.6390316170291044,301.75405968603445,None,302.3871394870977,None,None,None,None,,39,001,2023_Jan_30_1619,searchDisc5,2021.2.3,59.982136604128335,
images/exp1a_trial_220_colour3_distractors19_l.png,l,1,3,19,0,,,,,0,30,30,30,,,,,,,,,,,,,,,,,,,,,,,,,,,,,,,,,,,,,,,,,,,302.4062236160389,None,2,0.6876507119741291,302.4062236160389,None,,,,,,,,,,,,,,,,None,None,None,,None,None,303.137655797007,None,1,1,0.6196231989888474,303.137655797007,None,303.75454399311565,None,None,None,None,,39,001,2023_Jan_30_1619,searchDisc5,2021.2.3,59.982136604128335,
images/exp2a_trial_242_colour1_distractors19_l.png,l,1,1,19,0,,,,,0,31,31,31,,,,,,,,,,,,,,,,,,,,,,,,,,,,,,,,,,,,,,,,,,,303.77074151602574,None,2,0.6542412290000357,303.77074151602574,None,,,,,,,,,,,,,,,,None,None,None,,None,None,304.47046958003193,None,1,1,0.6702857519849204,304.47046958003193,None,305.1378608401457,None,None,None,None,,39,001,2023_Jan_30_1619,searchDisc5,2021.2.3,59.982136604128335,
images/exp2a_trial_126_colour0_distractors0_r.png,r,3,0,0,0,,,,,0,32,32,32,,,,,,,,,,,,,,,,,,,,,,,,,,,,,,,,,,,,,,,,,,,305.1541963130003,None,2,0.67116485000588,305.1541963130003,None,,,,,,,,,,,,,,,,None,None,None,,None,None,305.8707551319967,None,3,1,0.5894214209984057,305.8707551319967,None,306.454310305143,None,None,None,None,,39,001,2023_Jan_30_1619,searchDisc5,2021.2.3,59.982136604128335,
images/exp1a_trial_264_colour2_distractors19_r.png,r,3,2,19,0,,,,,0,33,33,33,,,,,,,,,,,,,,,,,,,,,,,,,,,,,,,,,,,,,,,,,,,306.47080631303834,None,2,0.6709776310017332,306.47080631303834,None,,,,,,,,,,,,,,,,None,None,None,,None,None,307.1877711730194,None,3,1,0.8182113249786198,307.1877711730194,None,308.00451167814316,None,None,None,None,,39,001,2023_Jan_30_1619,searchDisc5,2021.2.3,59.982136604128335,
images/exp2c_trial_176_colour1_distractors4_l.png,l,1,1,4,0,,,,,0,34,34,34,,,,,,,,,,,,,,,,,,,,,,,,,,,,,,,,,,,,,,,,,,,308.02087836299324,None,2,0.5900787850259803,308.02087836299324,None,,,,,,,,,,,,,,,,None,None,None,,None,None,308.65446387801785,None,1,1,0.7042794669978321,308.65446387801785,None,309.3546917631349,None,None,None,None,,39,001,2023_Jan_30_1619,searchDisc5,2021.2.3,59.982136604128335,
images/exp2c_trial_187_colour3_distractors9_l.png,l,1,3,9,0,,,,,0,35,35,35,,,,,,,,,,,,,,,,,,,,,,,,,,,,,,,,,,,,,,,,,,,309.3723996580229,None,2,0.5878802500083111,309.3723996580229,None,,,,,,,,,,,,,,,,None,None,None,,None,None,310.0045536350226,None,1,1,0.7711582439951599,310.0045536350226,None,310.77124278813716,None,None,None,None,,39,001,2023_Jan_30_1619,searchDisc5,2021.2.3,59.982136604128335,
images/exp1a_trial_299_colour3_distractors4_r.png,r,3,3,4,0,,,,,0,36,36,36,,,,,,,,,,,,,,,,,,,,,,,,,,,,,,,,,,,,,,,,,,,310.7876064000302,None,2,0.6395906860125251,310.7876064000302,None,,,,,,,,,,,,,,,,None,None,None,,None,None,311.471307624015,None,3,1,0.5865861320053227,311.471307624015,None,312.05464251213124,None,None,None,None,,39,001,2023_Jan_30_1619,searchDisc5,2021.2.3,59.982136604128335,
images/exp2b_trial_185_colour3_distractors1_l.png,l,1,3,1,0,,,,,0,37,37,37,,,,,,,,,,,,,,,,,,,,,,,,,,,,,,,,,,,,,,,,,,,312.07097382302163,None,2,0.704703021037858,312.07097382302163,None,,,,,,,,,,,,,,,,None,None,None,,None,None,312.8213414790225,None,1,1,0.6564621689612977,312.8213414790225,None,313.4713327211386,None,None,None,None,,39,001,2023_Jan_30_1619,searchDisc5,2021.2.3,59.982136604128335,
images/exp2a_trial_104_colour2_distractors19_r.png,r,3,2,19,0,,,,,0,38,38,38,,,,,,,,,,,,,,,,,,,,,,,,,,,,,,,,,,,,,,,,,,,313.49005921103526,None,2,0.5879164800280705,313.49005921103526,None,,,,,,,,,,,,,,,,None,None,None,,None,None,314.1205242910073,None,3,1,0.7463375499937683,314.1205242910073,None,314.87127199910464,None,None,None,None,,39,001,2023_Jan_30_1619,searchDisc5,2021.2.3,59.982136604128335,
images/exp2b_trial_224_colour1_distractors1_r.png,r,3,1,1,0,,,,,0,39,39,39,,,,,,,,,,,,,,,,,,,,,,,,,,,,,,,,,,,,,,,,,,,314.88955020700814,None,2,0.6211283740121871,314.88955020700814,None,,,,,,,,,,,,,,,,None,None,None,,None,None,315.55460124101955,None,3,1,0.7555236429907382,315.55460124101955,None,316.3041628671519,None,None,None,None,,39,001,2023_Jan_30_1619,searchDisc5,2021.2.3,59.982136604128335,
images/exp2a_trial_152_colour2_distractors31_l.png,l,1,2,31,0,,,,,0,40,40,40,,,,,,,,,,,,,,,,,,,,,,,,,,,,,,,,,,,,,,,,,,,316.3212085670093,None,2,0.6718038560356945,316.3212085670093,None,,,,,,,,,,,,,,,,None,None,None,,None,None,317.0384581600083,None,1,1,0.8114150009932928,317.0384581600083,None,317.85423156009637,None,None,None,None,,39,001,2023_Jan_30_1619,searchDisc5,2021.2.3,59.982136604128335,
images/exp2b_trial_300_colour3_distractors9_r.png,r,3,3,9,0,,,,,0,41,41,41,,,,,,,,,,,,,,,,,,,,,,,,,,,,,,,,,,,,,,,,,,,317.8712332560099,None,2,0.6385423640022054,317.8712332560099,None,,,,,,,,,,,,,,,,None,None,None,,None,None,318.55429983203067,None,3,1,0.7046777360374108,318.55429983203067,None,319.2548673881276,None,None,None,None,,39,001,2023_Jan_30_1619,searchDisc5,2021.2.3,59.982136604128335,
images/exp2c_trial_164_colour1_distractors31_r.png,r,3,1,31,0,,,,,0,42,42,42,,,,,,,,,,,,,,,,,,,,,,,,,,,,,,,,,,,,,,,,,,,319.2711852440261,None,2,0.6544842930161394,319.2711852440261,None,,,,,,,,,,,,,,,,None,None,None,,None,None,319.9714155670372,None,3,1,0.6526441150344908,319.9714155670372,None,320.6215115311381,None,None,None,None,,39,001,2023_Jan_30_1619,searchDisc5,2021.2.3,59.982136604128335,
images/exp2c_trial_206_colour3_distractors31_r.png,r,3,3,31,0,,,,,0,43,43,43,,,,,,,,,,,,,,,,,,,,,,,,,,,,,,,,,,,,,,,,,,,320.63797356700525,None,2,0.7047978040063754,320.63797356700525,None,,,,,,,,,,,,,,,,None,None,None,,None,None,321.39029101701453,None,3,1,0.618766111030709,321.39029101701453,None,322.00512861013993,None,None,None,None,,39,001,2023_Jan_30_1619,searchDisc5,2021.2.3,59.982136604128335,
images/exp2a_trial_289_colour1_distractors4_r.png,r,3,1,4,0,,,,,0,44,44,44,,,,,,,,,,,,,,,,,,,,,,,,,,,,,,,,,,,,,,,,,,,322.02188819803996,None,2,0.7237226290162653,322.02188819803996,None,,,,,,,,,,,,,,,,None,None,None,,None,None,322.7904699650244,None,3,1,0.6364864120259881,322.7904699650244,None,323.42191766809555,None,None,None,None,,39,001,2023_Jan_30_1619,searchDisc5,2021.2.3,59.982136604128335,
images/exp2a_trial_47_colour1_distractors1_l.png,l,1,1,1,0,,,,,0,45,45,45,,,,,,,,,,,,,,,,,,,,,,,,,,,,,,,,,,,,,,,,,,,323.43921473401133,None,2,0.6717321850010194,323.43921473401133,None,,,,,,,,,,,,,,,,None,None,None,,None,None,324.1550864049932,None,1,1,0.6881345309666358,324.1550864049932,None,324.8386460661015,None,None,None,None,,39,001,2023_Jan_30_1619,searchDisc5,2021.2.3,59.982136604128335,
images/exp2b_trial_200_colour2_distractors19_r.png,r,3,2,19,0,,,,,0,46,46,46,,,,,,,,,,,,,,,,,,,,,,,,,,,,,,,,,,,,,,,,,,,324.8555695739924,None,2,0.7228347060154192,324.8555695739924,None,,,,,,,,,,,,,,,,None,None,None,,None,None,325.6217461900087,None,3,1,0.6018045259988867,325.6217461900087,None,326.22177842814125,None,None,None,None,,39,001,2023_Jan_30_1619,searchDisc5,2021.2.3,59.982136604128335,
images/exp1a_trial_275_colour1_distractors31_l.png,l,1,1,31,0,,,,,0,47,47,47,,,,,,,,,,,,,,,,,,,,,,,,,,,,,,,,,,,,,,,,,,,326.23815576999914,None,2,0.6879204459837638,326.23815576999914,None,,,,,,,,,,,,,,,,None,None,None,,None,None,326.9724138590391,None,1,1,0.7684183130040765,326.9724138590391,None,327.7385266691155,None,None,None,None,,39,001,2023_Jan_30_1619,searchDisc5,2021.2.3,59.982136604128335,
images/exp2b_trial_236_colour3_distractors9_r.png,r,3,3,9,0,,,,,0,48,48,48,,,,,,,,,,,,,,,,,,,,,,,,,,,,,,,,,,,,,,,,,,,327.7551941280253,None,2,0.7059504649951123,327.7551941280253,None,,,,,,,,,,,,,,,,None,None,None,,None,None,328.5051574810059,None,3,1,0.6359040550305508,328.5051574810059,None,329.13855906909447,None,None,None,None,,39,001,2023_Jan_30_1619,searchDisc5,2021.2.3,59.982136604128335,
images/exp2c_trial_204_colour3_distractors9_r.png,r,3,3,9,0,,,,,0,49,49,49,,,,,,,,,,,,,,,,,,,,,,,,,,,,,,,,,,,,,,,,,,,329.15589783899486,None,2,0.737380962993484,329.15589783899486,None,,,,,,,,,,,,,,,,None,None,None,,None,None,329.9393570109969,None,3,1,0.6375566360075027,329.9393570109969,None,330.5715840761142,None,None,None,None,,39,001,2023_Jan_30_1619,searchDisc5,2021.2.3,59.982136604128335,
images/exp2b_trial_247_colour2_distractors19_l.png,l,1,2,19,0,,,,,0,50,50,50,,,,,,,,,,,,,,,,,,,,,,,,,,,,,,,,,,,,,,,,,,,330.5883021920454,None,2,0.7046403169515543,330.5883021920454,None,,,,,,,,,,,,,,,,None,None,None,,None,None,331.33854574,None,1,1,0.6370386930066161,331.33854574,None,331.9719074571214,None,None,None,None,,39,001,2023_Jan_30_1619,searchDisc5,2021.2.3,59.982136604128335,
images/exp1a_trial_87_colour2_distractors19_l.png,l,1,2,19,0,,,,,0,51,51,51,,,,,,,,,,,,,,,,,,,,,,,,,,,,,,,,,,,,,,,,,,,331.98903760302346,None,2,0.6877723190118559,331.98903760302346,None,,,,,,,,,,,,,,,,None,None,None,,None,None,332.7219902880024,None,1,1,1.0174531450029463,332.7219902880024,None,333.73856445514247,None,None,None,None,,39,001,2023_Jan_30_1619,searchDisc5,2021.2.3,59.982136604128335,
images/exp2c_trial_45_colour3_distractors19_r.png,r,3,3,19,0,,,,,0,52,52,52,,,,,,,,,,,,,,,,,,,,,,,,,,,,,,,,,,,,,,,,,,,333.7571202800027,None,2,0.6873895999742672,333.7571202800027,None,,,,,,,,,,,,,,,,None,None,None,,None,None,334.4916403950192,None,3,1,0.7532917840289883,334.4916403950192,None,335.2386855851102,None,None,None,None,,39,001,2023_Jan_30_1619,searchDisc5,2021.2.3,59.982136604128335,
images/exp2c_trial_34_colour1_distractors9_r.png,r,3,1,9,0,,,,,0,53,53,53,,,,,,,,,,,,,,,,,,,,,,,,,,,,,,,,,,,,,,,,,,,335.2556957399938,None,2,0.757469239004422,335.2556957399938,None,,,,,,,,,,,,,,,,None,None,None,,None,None,336.0581285679946,None,3,1,0.7203242470277473,336.0581285679946,None,336.77207189014297,None,None,None,None,,39,001,2023_Jan_30_1619,searchDisc5,2021.2.3,59.982136604128335,
images/exp1a_trial_17_colour1_distractors9_l.png,l,1,1,9,0,,,,,0,54,54,54,,,,,,,,,,,,,,,,,,,,,,,,,,,,,,,,,,,,,,,,,,,336.78973327204585,None,2,0.6695818500011228,336.78973327204585,None,,,,,,,,,,,,,,,,None,None,None,,None,None,337.5065979399951,None,1,1,0.737393276009243,337.5065979399951,None,338.2388161551382,None,None,None,None,,39,001,2023_Jan_30_1619,searchDisc5,2021.2.3,59.982136604128335,
images/exp2c_trial_67_colour1_distractors19_r.png,r,3,1,19,0,,,,,0,55,55,55,,,,,,,,,,,,,,,,,,,,,,,,,,,,,,,,,,,,,,,,,,,338.2552391560166,None,2,0.6545908860280178,338.2552391560166,None,,,,,,,,,,,,,,,,None,None,None,,None,None,338.95599695504643,None,3,1,0.6576566619914956,338.95599695504643,None,339.60650205811834,None,None,None,None,,39,001,2023_Jan_30_1619,searchDisc5,2021.2.3,59.982136604128335,
images/exp2c_trial_158_colour0_distractors0_r.png,r,3,0,0,0,,,,,0,56,56,56,,,,,,,,,,,,,,,,,,,,,,,,,,,,,,,,,,,,,,,,,,,339.62163971102564,None,2,0.6347056080121547,339.62163971102564,None,,,,,,,,,,,,,,,,None,None,None,,None,None,340.30567789502675,None,3,1,0.6887180470512249,340.30567789502675,None,340.9882381741365,None,None,None,None,,39,001,2023_Jan_30_1619,searchDisc5,2021.2.3,59.982136604128335,
images/exp2b_trial_221_colour3_distractors31_l.png,l,1,3,31,0,,,,,0,57,57,57,,,,,,,,,,,,,,,,,,,,,,,,,,,,,,,,,,,,,,,,,,,341.00848907604814,None,2,0.6886980859562755,341.00848907604814,None,,,,,,,,,,,,,,,,None,None,None,,None,None,341.741224205005,None,1,1,0.8029092369833961,341.741224205005,None,342.53892740812734,None,None,None,None,,39,001,2023_Jan_30_1619,searchDisc5,2021.2.3,59.982136604128335,
images/exp2a_trial_107_colour3_distractors4_r.png,r,3,3,4,0,,,,,0,58,58,58,,,,,,,,,,,,,,,,,,,,,,,,,,,,,,,,,,,,,,,,,,,342.55815745604923,None,2,0.6722813830128871,342.55815745604923,None,,,,,,,,,,,,,,,,None,None,None,,None,None,343.27463102201,None,3,1,0.6042947850073688,343.27463102201,None,343.87227797213126,None,None,None,None,,39,001,2023_Jan_30_1619,searchDisc5,2021.2.3,59.982136604128335,
images/exp2b_trial_272_colour1_distractors4_l.png,l,1,1,4,0,,,,,0,59,59,59,,,,,,,,,,,,,,,,,,,,,,,,,,,,,,,,,,,,,,,,,,,343.8908233559923,None,2,0.7059697440126911,343.8908233559923,None,,,,,,,,,,,,,,,,None,None,None,,None,None,344.6410756140249,None,1,1,1.0535195610136725,344.6410756140249,None,345.6885615231178,None,None,None,None,,39,001,2023_Jan_30_1619,searchDisc5,2021.2.3,59.982136604128335,
images/exp1a_trial_125_colour3_distractors31_l.png,l,1,3,31,0,,,,,0,60,60,60,,,,,,,,,,,,,,,,,,,,,,,,,,,,,,,,,,,,,,,,,,,345.70585869502975,None,2,0.6716148419654928,345.70585869502975,None,,,,,,,,,,,,,,,,None,None,None,,None,None,346.4230781420483,None,1,1,0.6828596370178275,346.4230781420483,None,347.10571572011685,None,None,None,None,,39,001,2023_Jan_30_1619,searchDisc5,2021.2.3,59.982136604128335,
images/exp2a_trial_91_colour3_distractors9_l.png,l,1,3,9,0,,,,,0,61,61,61,,,,,,,,,,,,,,,,,,,,,,,,,,,,,,,,,,,,,,,,,,,347.12460299400846,None,2,0.6224380690255202,347.12460299400846,None,,,,,,,,,,,,,,,,None,None,None,,None,None,347.78897222701926,None,1,1,0.6694881709991023,347.78897222701926,None,348.4556651251216,None,None,None,None,,39,001,2023_Jan_30_1619,searchDisc5,2021.2.3,59.982136604128335,
images/exp2c_trial_221_colour3_distractors31_l.png,l,1,3,31,0,,,,,0,62,62,62,,,,,,,,,,,,,,,,,,,,,,,,,,,,,,,,,,,,,,,,,,,348.47253180504777,None,2,0.6387000540271401,348.47253180504777,None,,,,,,,,,,,,,,,,None,None,None,,None,None,349.1564324499923,None,1,1,1.402304182993248,349.1564324499923,None,350.5557380751299,None,None,None,None,,39,001,2023_Jan_30_1619,searchDisc5,2021.2.3,59.982136604128335,
images/exp2c_trial_203_colour3_distractors4_r.png,r,3,3,4,0,,,,,0,63,63,63,,,,,,,,,,,,,,,,,,,,,,,,,,,,,,,,,,,,,,,,,,,350.5722858000081,None,2,0.7380373199703172,350.5722858000081,None,,,,,,,,,,,,,,,,None,None,None,,None,None,351.3587983730249,None,3,1,1.0219449989963323,351.3587983730249,None,352.37250102609977,None,None,None,None,,39,001,2023_Jan_30_1619,searchDisc5,2021.2.3,59.982136604128335,
images/exp2c_trial_184_colour2_distractors31_l.png,l,1,2,31,0,,,,,0,64,64,64,,,,,,,,,,,,,,,,,,,,,,,,,,,,,,,,,,,,,,,,,,,352.39122600399423,None,2,0.6211622169939801,352.39122600399423,None,,,,,,,,,,,,,,,,None,None,None,,None,None,353.05686595401494,None,1,1,1.003036193025764,353.05686595401494,None,354.0558681591239,None,None,None,None,,39,001,2023_Jan_30_1619,searchDisc5,2021.2.3,59.982136604128335,
images/exp2a_trial_149_colour2_distractors4_l.png,l,1,2,4,0,,,,,0,65,65,65,,,,,,,,,,,,,,,,,,,,,,,,,,,,,,,,,,,,,,,,,,,354.0749432980083,None,2,0.6881556499865837,354.0749432980083,None,,,,,,,,,,,,,,,,None,None,None,,None,None,354.8080660130363,None,1,1,0.9370602300041355,354.8080660130363,None,355.73924145110067,None,None,None,None,,39,001,2023_Jan_30_1619,searchDisc5,2021.2.3,59.982136604128335,
images/exp2b_trial_3_colour1_distractors19_r.png,r,3,1,19,0,,,,,0,66,66,66,,,,,,,,,,,,,,,,,,,,,,,,,,,,,,,,,,,,,,,,,,,355.75641697004903,None,2,0.5878226240165532,355.75641697004903,None,,,,,,,,,,,,,,,,None,None,None,,None,None,356.38934928702656,None,3,1,0.7037851389613934,356.38934928702656,None,357.089287975122,None,None,None,None,,39,001,2023_Jan_30_1619,searchDisc5,2021.2.3,59.982136604128335,
images/exp2b_trial_137_colour2_distractors31_r.png,r,3,2,31,0,,,,,0,67,67,67,,,,,,,,,,,,,,,,,,,,,,,,,,,,,,,,,,,,,,,,,,,357.10637884703465,None,2,0.6548530550207943,357.10637884703465,None,,,,,,,,,,,,,,,,None,None,None,,None,None,357.8062110019964,None,3,1,0.6028372889850289,357.8062110019964,None,358.4059410411457,None,None,None,None,,39,001,2023_Jan_30_1619,searchDisc5,2021.2.3,59.982136604128335,
images/exp1a_trial_221_colour3_distractors31_l.png,l,1,3,31,0,,,,,0,68,68,68,,,,,,,,,,,,,,,,,,,,,,,,,,,,,,,,,,,,,,,,,,,358.42247126600705,None,2,0.6722581789945252,358.42247126600705,None,,,,,,,,,,,,,,,,None,None,None,,None,None,359.1392775220447,None,1,1,0.6155741960392334,359.1392775220447,None,359.75542263112146,None,None,None,None,,39,001,2023_Jan_30_1619,searchDisc5,2021.2.3,59.982136604128335,
images/exp2b_trial_31_colour0_distractors0_l.png,l,1,0,0,0,,,,,0,69,69,69,,,,,,,,,,,,,,,,,,,,,,,,,,,,,,,,,,,,,,,,,,,359.7749339690199,None,2,0.639088746975176,359.7749339690199,None,,,,,,,,,,,,,,,,None,None,None,,None,None,360.45674832502846,None,1,1,0.5888886270113289,360.45674832502846,None,361.0394763811084,None,None,None,None,,39,001,2023_Jan_30_1619,searchDisc5,2021.2.3,59.982136604128335,
images/exp1a_trial_194_colour1_distractors9_r.png,r,3,1,9,0,,,,,0,70,70,70,,,,,,,,,,,,,,,,,,,,,,,,,,,,,,,,,,,,,,,,,,,361.0563042120193,None,2,0.6222547359648161,361.0563042120193,None,,,,,,,,,,,,,,,,None,None,None,,None,None,361.72333306400105,None,3,1,0.7027501039556228,361.72333306400105,None,362.422810393112,None,None,None,None,,39,001,2023_Jan_30_1619,searchDisc5,2021.2.3,59.982136604128335,
images/exp2c_trial_22_colour2_distractors9_l.png,l,1,2,9,0,,,,,0,71,71,71,,,,,,,,,,,,,,,,,,,,,,,,,,,,,,,,,,,,,,,,,,,362.43921616702573,None,2,0.6407718950067647,362.43921616702573,None,,,,,,,,,,,,,,,,None,None,None,,None,None,363.12312249303795,None,1,1,0.7517833100282587,363.12312249303795,None,363.8727830041491,None,None,None,None,,39,001,2023_Jan_30_1619,searchDisc5,2021.2.3,59.982136604128335,
images/exp2a_trial_17_colour1_distractors9_l.png,l,1,1,9,0,,,,,0,72,72,72,,,,,,,,,,,,,,,,,,,,,,,,,,,,,,,,,,,,,,,,,,,363.8901360449963,None,2,0.6381610469543375,363.8901360449963,None,,,,,,,,,,,,,,,,None,None,None,,None,None,364.5750991300447,None,1,1,0.6375011210329831,364.5750991300447,None,365.20629242611466,None,None,None,None,,39,001,2023_Jan_30_1619,searchDisc5,2021.2.3,59.982136604128335,
images/exp2b_trial_96_colour1_distractors1_r.png,r,3,1,1,0,,,,,0,73,73,73,,,,,,,,,,,,,,,,,,,,,,,,,,,,,,,,,,,,,,,,,,,365.2233217820176,None,2,0.5878723800415173,365.2233217820176,None,,,,,,,,,,,,,,,,None,None,None,,None,None,365.8566401959979,None,3,1,0.606390515982639,365.8566401959979,None,366.4564881480939,None,None,None,None,,39,001,2023_Jan_30_1619,searchDisc5,2021.2.3,59.982136604128335,
images/exp2c_trial_312_colour2_distractors31_l.png,l,1,2,31,0,,,,,0,74,74,74,,,,,,,,,,,,,,,,,,,,,,,,,,,,,,,,,,,,,,,,,,,366.4733469890198,None,2,0.6385710709728301,366.4733469890198,None,,,,,,,,,,,,,,,,None,None,None,,None,None,367.15618878701935,None,1,1,0.6685085719800554,367.15618878701935,None,367.8228049021156,None,None,None,None,,39,001,2023_Jan_30_1619,searchDisc5,2021.2.3,59.982136604128335,
images/exp2b_trial_170_colour3_distractors1_r.png,r,3,3,1,0,,,,,0,75,75,75,,,,,,,,,,,,,,,,,,,,,,,,,,,,,,,,,,,,,,,,,,,367.8401747600292,None,2,0.639582091011107,367.8401747600292,None,,,,,,,,,,,,,,,,None,None,None,,None,None,368.5237730600056,None,3,1,0.6727149309590459,368.5237730600056,None,369.18965023612253,None,None,None,None,,39,001,2023_Jan_30_1619,searchDisc5,2021.2.3,59.982136604128335,
images/exp2b_trial_64_colour1_distractors1_r.png,r,3,1,1,0,,,,,0,76,76,76,,,,,,,,,,,,,,,,,,,,,,,,,,,,,,,,,,,,,,,,,,,369.2058505140012,None,2,0.618843748990912,369.2058505140012,None,,,,,,,,,,,,,,,,None,None,None,,None,None,369.87366951600416,None,3,1,0.5902122590341605,369.87366951600416,None,370.4564526531205,None,None,None,None,,39,001,2023_Jan_30_1619,searchDisc5,2021.2.3,59.982136604128335,
images/exp2c_trial_6_colour2_distractors4_r.png,r,3,2,4,0,,,,,0,77,77,77,,,,,,,,,,,,,,,,,,,,,,,,,,,,,,,,,,,,,,,,,,,370.47280487499665,None,2,0.6221304209902883,370.47280487499665,None,,,,,,,,,,,,,,,,None,None,None,,None,None,371.1408609030186,None,3,1,0.6228166820365004,371.1408609030186,None,371.7575168391515,None,None,None,None,,39,001,2023_Jan_30_1619,searchDisc5,2021.2.3,59.982136604128335,
images/exp2b_trial_21_colour2_distractors4_l.png,l,1,2,4,0,,,,,0,78,78,78,,,,,,,,,,,,,,,,,,,,,,,,,,,,,,,,,,,,,,,,,,,371.77379099599784,None,2,0.5540521469665691,371.77379099599784,None,,,,,,,,,,,,,,,,None,None,None,,None,None,372.3737016110099,None,1,1,0.6410639379755594,372.3737016110099,None,373.00750733913736,None,None,None,None,,39,001,2023_Jan_30_1619,searchDisc5,2021.2.3,59.982136604128335,
images/exp1a_trial_201_colour2_distractors31_r.png,r,3,2,31,0,,,,,0,79,79,79,,,,,,,,,,,,,,,,,,,,,,,,,,,,,,,,,,,,,,,,,,,373.02291376603534,None,2,0.6857793040107936,373.02291376603534,None,,,,,,,,,,,,,,,,None,None,None,,None,None,373.75812415702967,None,3,1,0.5988442939706147,373.75812415702967,None,374.35645433214376,None,None,None,None,,39,001,2023_Jan_30_1619,searchDisc5,2021.2.3,59.982136604128335,
images/exp2b_trial_150_colour2_distractors9_l.png,l,1,2,9,0,,,,,0,80,80,80,,,,,,,,,,,,,,,,,,,,,,,,,,,,,,,,,,,,,,,,,,,374.37496202701004,None,2,0.6212369800196029,374.37496202701004,None,,,,,,,,,,,,,,,,None,None,None,,None,None,375.0398036840488,None,1,1,0.6058219040278345,375.0398036840488,None,375.63978860709466,None,None,None,None,,39,001,2023_Jan_30_1619,searchDisc5,2021.2.3,59.982136604128335,
images/exp2b_trial_115_colour1_distractors31_l.png,l,1,1,31,0,,,,,0,81,81,81,,,,,,,,,,,,,,,,,,,,,,,,,,,,,,,,,,,,,,,,,,,375.6555427130079,None,2,0.6551088810083456,375.6555427130079,None,,,,,,,,,,,,,,,,None,None,None,,None,None,376.35672016401077,None,1,1,0.7685960099915974,376.35672016401077,None,377.12318316714953,None,None,None,None,,39,001,2023_Jan_30_1619,searchDisc5,2021.2.3,59.982136604128335,
images/exp2b_trial_196_colour1_distractors31_r.png,r,3,1,31,0,,,,,0,82,82,82,,,,,,,,,,,,,,,,,,,,,,,,,,,,,,,,,,,,,,,,,,,377.14047388604376,None,2,0.5739598710206337,377.14047388604376,None,,,,,,,,,,,,,,,,None,None,None,,None,None,377.75862547103316,None,3,1,0.7660337659763172,377.75862547103316,None,378.5227009391121,None,None,None,None,,39,001,2023_Jan_30_1619,searchDisc5,2021.2.3,59.982136604128335,
images/exp1a_trial_227_colour1_distractors19_r.png,r,3,1,19,0,,,,,0,83,83,83,,,,,,,,,,,,,,,,,,,,,,,,,,,,,,,,,,,,,,,,,,,378.54066635499476,None,2,0.5245468720095232,378.54066635499476,None,,,,,,,,,,,,,,,,None,None,None,,None,None,379.1087099510478,None,3,1,0.6657398770330474,379.1087099510478,None,379.77343922709696,None,None,None,None,,39,001,2023_Jan_30_1619,searchDisc5,2021.2.3,59.982136604128335,
images/exp2c_trial_241_colour1_distractors9_l.png,l,1,1,9,0,,,,,0,84,84,84,,,,,,,,,,,,,,,,,,,,,,,,,,,,,,,,,,,,,,,,,,,379.7905963110388,None,2,0.6045000109588727,379.7905963110388,None,,,,,,,,,,,,,,,,None,None,None,,None,None,380.4406315140077,None,1,1,0.6546748949913308,380.4406315140077,None,381.0900050691154,None,None,None,None,,39,001,2023_Jan_30_1619,searchDisc5,2021.2.3,59.982136604128335,
images/exp1a_trial_112_colour1_distractors4_l.png,l,1,1,4,0,,,,,0,85,85,85,,,,,,,,,,,,,,,,,,,,,,,,,,,,,,,,,,,,,,,,,,,381.10699114302406,None,2,0.6220794210094027,381.10699114302406,None,,,,,,,,,,,,,,,,None,None,None,,None,None,381.7733091220143,None,1,1,0.7542682799976319,381.7733091220143,None,382.5233923501393,None,None,None,None,,39,001,2023_Jan_30_1619,searchDisc5,2021.2.3,59.982136604128335,
images/exp2a_trial_21_colour2_distractors4_l.png,l,1,2,4,0,,,,,0,86,86,86,,,,,,,,,,,,,,,,,,,,,,,,,,,,,,,,,,,,,,,,,,,382.5403124100412,None,2,0.6211549720028415,382.5403124100412,None,,,,,,,,,,,,,,,,None,None,None,,None,None,383.2075882390491,None,1,1,0.6374063169932924,383.2075882390491,None,383.83978526214486,None,None,None,None,,39,001,2023_Jan_30_1619,searchDisc5,2021.2.3,59.982136604128335,
images/exp1a_trial_124_colour3_distractors19_l.png,l,1,3,19,0,,,,,0,87,87,87,,,,,,,,,,,,,,,,,,,,,,,,,,,,,,,,,,,,,,,,,,,383.8588248040178,None,2,0.686362779000774,383.8588248040178,None,,,,,,,,,,,,,,,,None,None,None,,None,None,384.59279126801994,None,1,1,0.7025996459997259,384.59279126801994,None,385.2901610191504,None,None,None,None,,39,001,2023_Jan_30_1619,searchDisc5,2021.2.3,59.982136604128335,
images/exp2a_trial_190_colour0_distractors0_r.png,r,3,0,0,0,,,,,0,88,88,88,,,,,,,,,,,,,,,,,,,,,,,,,,,,,,,,,,,,,,,,,,,385.3065295260167,None,2,0.5555361119913869,385.3065295260167,None,,,,,,,,,,,,,,,,None,None,None,,None,None,385.9100568690337,None,3,1,0.5895247549633496,385.9100568690337,None,386.4913100431033,None,None,None,None,,39,001,2023_Jan_30_1619,searchDisc5,2021.2.3,59.982136604128335,
images/exp2a_trial_48_colour1_distractors4_l.png,l,1,1,4,0,,,,,0,89,89,89,,,,,,,,,,,,,,,,,,,,,,,,,,,,,,,,,,,,,,,,,,,386.5066928160377,None,2,0.5879334520432167,386.5066928160377,None,,,,,,,,,,,,,,,,None,None,None,,None,None,387.14012813399313,None,1,1,0.5215981120127253,387.14012813399313,None,387.656894546136,None,None,None,None,,39,001,2023_Jan_30_1619,searchDisc5,2021.2.3,59.982136604128335,
images/exp2b_trial_222_colour0_distractors0_r.png,r,3,0,0,0,,,,,0,90,90,90,,,,,,,,,,,,,,,,,,,,,,,,,,,,,,,,,,,,,,,,,,,387.6762657480431,None,2,0.57006482797442,387.6762657480431,None,,,,,,,,,,,,,,,,None,None,None,,None,None,388.2900585050229,None,3,1,0.5236516990116797,388.2900585050229,None,388.8068257410952,None,None,None,None,,39,001,2023_Jan_30_1619,searchDisc5,2021.2.3,59.982136604128335,
images/exp2b_trial_294_colour2_distractors4_r.png,r,3,2,4,0,,,,,0,91,91,91,,,,,,,,,,,,,,,,,,,,,,,,,,,,,,,,,,,,,,,,,,,388.8227973559988,None,2,0.5376006619771942,388.8227973559988,None,,,,,,,,,,,,,,,,None,None,None,,None,None,389.4067980879918,None,3,1,0.4892302800435573,389.4067980879918,None,389.89119570913607,None,None,None,None,,39,001,2023_Jan_30_1619,searchDisc5,2021.2.3,59.982136604128335,
images/exp2b_trial_103_colour2_distractors9_r.png,r,3,2,9,0,,,,,0,92,92,92,,,,,,,,,,,,,,,,,,,,,,,,,,,,,,,,,,,,,,,,,,,389.907208411023,None,2,0.5044640010455623,389.907208411023,None,,,,,,,,,,,,,,,,None,None,None,,None,None,390.4577967170044,None,3,1,0.5550990189658478,390.4577967170044,None,391.00797734713996,None,None,None,None,,39,001,2023_Jan_30_1619,searchDisc5,2021.2.3,59.982136604128335,
images/exp1a_trial_41_colour2_distractors31_r.png,r,3,2,31,0,,,,,0,93,93,93,,,,,,,,,,,,,,,,,,,,,,,,,,,,,,,,,,,,,,,,,,,391.02384137903573,None,2,0.48993661400163546,391.02384137903573,None,,,,,,,,,,,,,,,,None,None,None,,None,None,391.55907115200534,None,3,1,0.5799955999827944,391.55907115200534,None,392.140271999134,None,None,None,None,,39,001,2023_Jan_30_1619,searchDisc5,2021.2.3,59.982136604128335,
images/exp2c_trial_101_colour2_distractors1_r.png,r,3,2,1,0,,,,,0,94,94,94,,,,,,,,,,,,,,,,,,,,,,,,,,,,,,,,,,,,,,,,,,,392.1572035709978,None,2,0.4741868189885281,392.1572035709978,None,,,,,,,,,,,,,,,,None,None,None,,None,None,392.6736854269984,None,3,1,0.4866604160051793,392.6736854269984,None,393.1570490201295,None,None,None,None,,39,001,2023_Jan_30_1619,searchDisc5,2021.2.3,59.982136604128335,
images/exp2c_trial_200_colour2_distractors19_r.png,r,3,2,19,0,,,,,0,95,95,95,,,,,,,,,,,,,,,,,,,,,,,,,,,,,,,,,,,,,,,,,,,393.17391753103584,None,2,0.5221765099558979,393.17391753103584,None,,,,,,,,,,,,,,,,None,None,None,,None,None,393.7423791619949,None,3,1,0.6192745700245723,393.7423791619949,None,394.35709793710265,None,None,None,None,,39,001,2023_Jan_30_1619,searchDisc5,2021.2.3,59.982136604128335,
images/exp2c_trial_245_colour2_distractors4_l.png,l,1,2,4,0,,,,,0,96,96,96,,,,,,,,,,,,,,,,,,,,,,,,,,,,,,,,,,,,,,,,,,,394.37344338401454,None,2,0.4879644860047847,394.37344338401454,None,,,,,,,,,,,,,,,,None,None,None,,None,None,394.9075068710372,None,1,1,0.638140108960215,394.9075068710372,None,395.540374827123,None,None,None,None,,39,001,2023_Jan_30_1619,searchDisc5,2021.2.3,59.982136604128335,
images/exp2b_trial_175_colour1_distractors1_l.png,l,1,1,1,0,,,,,0,97,97,97,,,,,,,,,,,,,,,,,,,,,,,,,,,,,,,,,,,,,,,,,,,395.5577531980234,None,2,0.5543305070023052,395.5577531980234,None,,,,,,,,,,,,,,,,None,None,None,,None,None,396.1590949190431,None,1,1,0.5901645530248061,396.1590949190431,None,396.7414524091466,None,None,None,None,,39,001,2023_Jan_30_1619,searchDisc5,2021.2.3,59.982136604128335,
images/exp2b_trial_9_colour2_distractors31_r.png,r,3,2,31,0,,,,,0,98,98,98,,,,,,,,,,,,,,,,,,,,,,,,,,,,,,,,,,,,,,,,,,,396.756853229017,None,2,0.5723748980090022,396.756853229017,None,,,,,,,,,,,,,,,,None,None,None,,None,None,397.37637382000685,None,3,1,0.551483890041709,397.37637382000685,None,397.9247110491444,None,None,None,None,,39,001,2023_Jan_30_1619,searchDisc5,2021.2.3,59.982136604128335,
images/exp2c_trial_198_colour2_distractors4_r.png,r,3,2,4,0,,,,,0,99,99,99,,,,,,,,,,,,,,,,,,,,,,,,,,,,,,,,,,,,,,,,,,,397.9398882529931,None,2,0.5205129610258155,397.9398882529931,None,,,,,,,,,,,,,,,,None,None,None,,None,None,398.5090991790057,None,3,1,0.6053596070269123,398.5090991790057,None,399.107152264117,None,None,None,None,,39,001,2023_Jan_30_1619,searchDisc5,2021.2.3,59.982136604128335,
images/exp2a_trial_221_colour3_distractors31_l.png,l,1,3,31,0,,,,,0,100,100,100,,,,,,,,,,,,,,,,,,,,,,,,,,,,,,,,,,,,,,,,,,,399.1243814100162,None,2,0.5056870200205594,399.1243814100162,None,,,,,,,,,,,,,,,,None,None,None,,None,None,399.67461839399766,None,1,1,0.601416410994716,399.67461839399766,None,400.27379617614787,None,None,None,None,,39,001,2023_Jan_30_1619,searchDisc5,2021.2.3,59.982136604128335,
images/exp2a_trial_27_colour3_distractors9_l.png,l,1,3,9,0,,,,,0,101,101,101,,,,,,,,,,,,,,,,,,,,,,,,,,,,,,,,,,,,,,,,,,,400.29043274599826,None,2,0.5714754440123215,400.29043274599826,None,,,,,,,,,,,,,,,,None,None,None,,None,None,400.9102984550409,None,1,1,0.8049137059715576,400.9102984550409,None,401.7070916971017,None,None,None,None,,39,001,2023_Jan_30_1619,searchDisc5,2021.2.3,59.982136604128335,
images/exp2b_trial_106_colour3_distractors1_r.png,r,3,3,1,0,,,,,0,102,102,102,,,,,,,,,,,,,,,,,,,,,,,,,,,,,,,,,,,,,,,,,,,401.72365255700424,None,2,0.541035808972083,401.72365255700424,None,,,,,,,,,,,,,,,,None,None,None,,None,None,402.3102572810021,None,3,1,0.5703256009728648,402.3102572810021,None,402.8738410061516,None,None,None,None,,39,001,2023_Jan_30_1619,searchDisc5,2021.2.3,59.982136604128335,
images/exp2c_trial_293_colour2_distractors1_r.png,r,3,2,1,0,,,,,0,103,103,103,,,,,,,,,,,,,,,,,,,,,,,,,,,,,,,,,,,,,,,,,,,402.89141347201075,None,2,0.5878468879964203,402.89141347201075,None,,,,,,,,,,,,,,,,None,None,None,,None,None,403.52471728704404,None,3,1,0.5055814520455897,403.52471728704404,None,404.02396028310176,None,None,None,None,,39,001,2023_Jan_30_1619,searchDisc5,2021.2.3,59.982136604128335,
images/exp1a_trial_272_colour1_distractors4_l.png,l,1,1,4,0,,,,,0,104,104,104,,,,,,,,,,,,,,,,,,,,,,,,,,,,,,,,,,,,,,,,,,,404.04167968500406,None,2,0.553767292003613,404.04167968500406,None,,,,,,,,,,,,,,,,None,None,None,,None,None,404.6432763400371,None,1,1,0.6888009720132686,404.6432763400371,None,405.3240254311415,None,None,None,None,,39,001,2023_Jan_30_1619,searchDisc5,2021.2.3,59.982136604128335,
images/exp2c_trial_40_colour2_distractors19_r.png,r,3,2,19,0,,,,,0,105,105,105,,,,,,,,,,,,,,,,,,,,,,,,,,,,,,,,,,,,,,,,,,,405.3424467850127,None,2,0.5722100540297106,405.3424467850127,None,,,,,,,,,,,,,,,,None,None,None,,None,None,405.957427515008,None,3,1,0.888081064040307,405.957427515008,None,406.8428710511245,None,None,None,None,,39,001,2023_Jan_30_1619,searchDisc5,2021.2.3,59.982136604128335,
images/exp2c_trial_79_colour1_distractors1_l.png,l,1,1,1,0,,,,,0,106,106,106,,,,,,,,,,,,,,,,,,,,,,,,,,,,,,,,,,,,,,,,,,,406.85785381501773,None,2,0.6525986899505369,406.85785381501773,None,,,,,,,,,,,,,,,,None,None,None,,None,None,407.55968080699677,None,1,1,0.5551382310222834,407.55968080699677,None,408.1073545381252,None,None,None,None,,39,001,2023_Jan_30_1619,searchDisc5,2021.2.3,59.982136604128335,
images/exp1a_trial_70_colour2_distractors4_r.png,r,3,2,4,0,,,,,0,107,107,107,,,,,,,,,,,,,,,,,,,,,,,,,,,,,,,,,,,,,,,,,,,408.12477487901924,None,2,0.5209307320183143,408.12477487901924,None,,,,,,,,,,,,,,,,None,None,None,,None,None,408.6937927270192,None,3,1,0.5217984509654343,408.6937927270192,None,409.2073528171342,None,None,None,None,,39,001,2023_Jan_30_1619,searchDisc5,2021.2.3,59.982136604128335,
images/exp2b_trial_33_colour1_distractors4_r.png,r,3,1,4,0,,,,,0,108,108,108,,,,,,,,,,,,,,,,,,,,,,,,,,,,,,,,,,,,,,,,,,,409.2238953660126,None,2,0.5391392839956097,409.2238953660126,None,,,,,,,,,,,,,,,,None,None,None,,None,None,409.80955537204864,None,3,1,0.5898613509489223,409.80955537204864,None,410.3907918731158,None,None,None,None,,39,001,2023_Jan_30_1619,searchDisc5,2021.2.3,59.982136604128335,
images/exp2b_trial_298_colour3_distractors1_r.png,r,3,3,1,0,,,,,0,109,109,109,,,,,,,,,,,,,,,,,,,,,,,,,,,,,,,,,,,,,,,,,,,410.40714264602866,None,2,0.5200652540079318,410.40714264602866,None,,,,,,,,,,,,,,,,None,None,None,,None,None,410.975746540993,None,3,1,0.5394710509572178,410.975746540993,None,411.50851632312987,None,None,None,None,,39,001,2023_Jan_30_1619,searchDisc5,2021.2.3,59.982136604128335,
images/exp2b_trial_258_colour1_distractors9_r.png,r,3,1,9,0,,,,,0,110,110,110,,,,,,,,,,,,,,,,,,,,,,,,,,,,,,,,,,,,,,,,,,,411.5244744250085,None,2,0.5530654939939268,411.5244744250085,None,,,,,,,,,,,,,,,,None,None,None,,None,None,412.12700781202875,None,3,1,0.7733393560047261,412.12700781202875,None,412.8909447281214,None,None,None,None,,39,001,2023_Jan_30_1619,searchDisc5,2021.2.3,59.982136604128335,
images/exp2b_trial_210_colour1_distractors19_l.png,l,1,1,19,0,,,,,0,111,111,111,,,,,,,,,,,,,,,,,,,,,,,,,,,,,,,,,,,,,,,,,,,412.9087892220123,None,2,0.5210751140257344,412.9087892220123,None,,,,,,,,,,,,,,,,None,None,None,,None,None,413.47677267401014,None,1,1,1.402755065006204,413.47677267401014,None,414.8743046881456,None,None,None,None,,39,001,2023_Jan_30_1619,searchDisc5,2021.2.3,59.982136604128335,
images/exp2b_trial_13_colour3_distractors19_r.png,r,3,3,19,0,,,,,0,112,112,112,,,,,,,,,,,,,,,,,,,,,,,,,,,,,,,,,,,,,,,,,,,414.8908231270034,None,2,0.5554444530280307,414.8908231270034,None,,,,,,,,,,,,,,,,None,None,None,,None,None,415.4912164360285,None,3,1,0.6061328329960816,415.4912164360285,None,416.0921328031283,None,None,None,None,,39,001,2023_Jan_30_1619,searchDisc5,2021.2.3,59.982136604128335,
images/exp2c_trial_190_colour0_distractors0_r.png,r,3,0,0,0,,,,,0,113,113,113,,,,,,,,,,,,,,,,,,,,,,,,,,,,,,,,,,,,,,,,,,,416.1082220739918,None,2,0.5672329649678431,416.1082220739918,None,,,,,,,,,,,,,,,,None,None,None,,None,None,416.7243715050281,None,3,1,0.6059767950209789,416.7243715050281,None,417.3236785890942,None,None,None,None,,39,001,2023_Jan_30_1619,searchDisc5,2021.2.3,59.982136604128335,
images/exp2a_trial_69_colour2_distractors1_r.png,r,3,2,1,0,,,,,0,114,114,114,,,,,,,,,,,,,,,,,,,,,,,,,,,,,,,,,,,,,,,,,,,417.34186572703766,None,2,0.4727106330101378,417.34186572703766,None,,,,,,,,,,,,,,,,None,None,None,,None,None,417.8568699770258,None,3,1,0.5701711139990948,417.8568699770258,None,418.42376346911186,None,None,None,None,,39,001,2023_Jan_30_1619,searchDisc5,2021.2.3,59.982136604128335,
images/exp2a_trial_234_colour3_distractors1_r.png,r,3,3,1,0,,,,,0,115,115,115,,,,,,,,,,,,,,,,,,,,,,,,,,,,,,,,,,,,,,,,,,,418.4417356320191,None,2,0.48864832799881697,418.4417356320191,None,,,,,,,,,,,,,,,,None,None,None,,None,None,418.97466684202664,None,3,1,0.5557689149864018,418.97466684202664,None,419.5242856071156,None,None,None,None,,39,001,2023_Jan_30_1619,searchDisc5,2021.2.3,59.982136604128335,
images/exp2c_trial_276_colour2_distractors1_l.png,l,1,2,1,0,,,,,0,116,116,116,,,,,,,,,,,,,,,,,,,,,,,,,,,,,,,,,,,,,,,,,,,419.54077620903263,None,2,0.52139117999468,419.54077620903263,None,,,,,,,,,,,,,,,,None,None,None,,None,None,420.1098311160458,None,1,1,0.57152664399473,420.1098311160458,None,420.673498146137,None,None,None,None,,39,001,2023_Jan_30_1619,searchDisc5,2021.2.3,59.982136604128335,
images/exp2a_trial_35_colour1_distractors19_r.png,r,3,1,19,0,,,,,0,117,117,117,,,,,,,,,,,,,,,,,,,,,,,,,,,,,,,,,,,,,,,,,,,420.6908219830366,None,2,0.5399590039742179,420.6908219830366,None,,,,,,,,,,,,,,,,None,None,None,,None,None,421.27650790201733,None,3,1,0.6025023059919477,421.27650790201733,None,421.8744304471358,None,None,None,None,,39,001,2023_Jan_30_1619,searchDisc5,2021.2.3,59.982136604128335,
images/exp1a_trial_304_colour1_distractors4_l.png,l,1,1,4,0,,,,,0,118,118,118,,,,,,,,,,,,,,,,,,,,,,,,,,,,,,,,,,,,,,,,,,,421.89374621299794,None,2,0.5543894119909965,421.89374621299794,None,,,,,,,,,,,,,,,,None,None,None,,None,None,422.4910527410102,None,1,1,0.5552237210213207,422.4910527410102,None,423.0413044720946,None,None,None,None,,39,001,2023_Jan_30_1619,searchDisc5,2021.2.3,59.982136604128335,
images/exp1a_trial_133_colour2_distractors1_r.png,r,3,2,1,0,,,,,0,119,119,119,,,,,,,,,,,,,,,,,,,,,,,,,,,,,,,,,,,,,,,,,,,423.05820571799995,None,2,0.5704743170063011,423.05820571799995,None,,,,,,,,,,,,,,,,None,None,None,,None,None,423.67462649202207,None,3,1,0.6061412999988534,423.67462649202207,None,424.27448240512166,None,None,None,None,,39,001,2023_Jan_30_1619,searchDisc5,2021.2.3,59.982136604128335,
images/exp1a_trial_146_colour1_distractors19_l.png,l,1,1,19,0,,,,,0,120,120,120,,,,,,,,,,,,,,,,,,,,,,,,,,,,,,,,,,,,,,,,,,,424.2930232040235,None,2,0.5565954699995928,424.2930232040235,None,,,,,,,,,,,,,,,,None,None,None,,None,None,424.8912806410226,None,1,1,1.2683930339990184,424.8912806410226,None,426.1580175951414,None,None,None,None,,39,001,2023_Jan_30_1619,searchDisc5,2021.2.3,59.982136604128335,
images/exp2b_trial_135_colour2_distractors9_r.png,r,3,2,9,0,,,,,0,121,121,121,,,,,,,,,,,,,,,,,,,,,,,,,,,,,,,,,,,,,,,,,,,426.17406683100853,None,2,0.6185997879947536,426.17406683100853,None,,,,,,,,,,,,,,,,None,None,None,,None,None,426.8414544929983,None,3,1,0.5218856920255348,426.8414544929983,None,427.35802644912036,None,None,None,None,,39,001,2023_Jan_30_1619,searchDisc5,2021.2.3,59.982136604128335,
images/exp2c_trial_97_colour1_distractors4_r.png,r,3,1,4,0,,,,,0,122,122,122,,,,,,,,,,,,,,,,,,,,,,,,,,,,,,,,,,,,,,,,,,,427.3736165360315,None,2,0.48870116099715233,427.3736165360315,None,,,,,,,,,,,,,,,,None,None,None,,None,None,427.91004752204753,None,3,1,0.6559120750171132,427.91004752204753,None,428.55809697411604,None,None,None,None,,39,001,2023_Jan_30_1619,searchDisc5,2021.2.3,59.982136604128335,
images/exp2b_trial_166_colour2_distractors4_r.png,r,3,2,4,0,,,,,0,123,123,123,,,,,,,,,,,,,,,,,,,,,,,,,,,,,,,,,,,,,,,,,,,428.57435449102195,None,2,0.47023938997881487,428.57435449102195,None,,,,,,,,,,,,,,,,None,None,None,,None,None,429.09417031303747,None,3,1,0.6215327400132082,429.09417031303747,None,429.70760259412344,None,None,None,None,,39,001,2023_Jan_30_1619,searchDisc5,2021.2.3,59.982136604128335,
images/exp1a_trial_228_colour1_distractors31_r.png,r,3,1,31,0,,,,,0,124,124,124,,,,,,,,,,,,,,,,,,,,,,,,,,,,,,,,,,,,,,,,,,,429.72647435602266,None,2,0.5559108110028319,429.72647435602266,None,,,,,,,,,,,,,,,,None,None,None,,None,None,430.32461021404015,None,3,1,0.7827237879973836,430.32461021404015,None,431.10801898311473,None,None,None,None,,39,001,2023_Jan_30_1619,searchDisc5,2021.2.3,59.982136604128335,
images/exp1a_trial_246_colour2_distractors9_l.png,l,1,2,9,0,,,,,0,125,125,125,,,,,,,,,,,,,,,,,,,,,,,,,,,,,,,,,,,,,,,,,,,431.1236952220206,None,2,0.6226640599779785,431.1236952220206,None,,,,,,,,,,,,,,,,None,None,None,,None,None,431.79177969304146,None,1,1,0.7183646580087952,431.79177969304146,None,432.5080786791106,None,None,None,None,,39,001,2023_Jan_30_1619,searchDisc5,2021.2.3,59.982136604128335,
images/exp2a_trial_217_colour3_distractors1_l.png,l,1,3,1,0,,,,,0,126,126,126,,,,,,,,,,,,,,,,,,,,,,,,,,,,,,,,,,,,,,,,,,,432.5243460840429,None,2,0.52218069502851,432.5243460840429,None,,,,,,,,,,,,,,,,None,None,None,,None,None,433.09223915904295,None,1,1,0.5554488180205226,433.09223915904295,None,433.64143488814005,None,None,None,None,,39,001,2023_Jan_30_1619,searchDisc5,2021.2.3,59.982136604128335,
images/exp2c_trial_292_colour1_distractors31_r.png,r,3,1,31,0,,,,,0,127,127,127,,,,,,,,,,,,,,,,,,,,,,,,,,,,,,,,,,,,,,,,,,,433.6584191470174,None,2,0.5705363710294478,433.6584191470174,None,,,,,,,,,,,,,,,,None,None,None,,None,None,434.27501709904755,None,3,1,0.5705138750490732,434.27501709904755,None,434.84141732713323,None,None,None,None,,39,001,2023_Jan_30_1619,searchDisc5,2021.2.3,59.982136604128335,
images/exp2b_trial_46_colour3_distractors31_r.png,r,3,3,31,0,,,,,0,128,128,128,,,,,,,,,,,,,,,,,,,,,,,,,,,,,,,,,,,,,,,,,,,434.8586404680391,None,2,0.5887877850327641,434.8586404680391,None,,,,,,,,,,,,,,,,None,None,None,,None,None,435.4935794660123,None,3,1,0.5518492339760996,435.4935794660123,None,436.04149879511095,None,None,None,None,,39,001,2023_Jan_30_1619,searchDisc5,2021.2.3,59.982136604128335,
images/exp2c_trial_139_colour3_distractors4_r.png,r,3,3,4,0,,,,,0,129,129,129,,,,,,,,,,,,,,,,,,,,,,,,,,,,,,,,,,,,,,,,,,,436.05850224604364,None,2,0.5212314000236802,436.05850224604364,None,,,,,,,,,,,,,,,,None,None,None,,None,None,436.6276286719949,None,3,1,0.5889409519731998,436.6276286719949,None,437.208704362117,None,None,None,None,,39,001,2023_Jan_30_1619,searchDisc5,2021.2.3,59.982136604128335,
images/exp2a_trial_142_colour3_distractors31_r.png,r,3,3,31,0,,,,,0,130,130,130,,,,,,,,,,,,,,,,,,,,,,,,,,,,,,,,,,,,,,,,,,,437.22571652400075,None,2,0.5395311360480264,437.22571652400075,None,,,,,,,,,,,,,,,,None,None,None,,None,None,437.8084057920496,None,3,1,0.6681724460213445,437.8084057920496,None,438.4753854571201,None,None,None,None,,39,001,2023_Jan_30_1619,searchDisc5,2021.2.3,59.982136604128335,
images/exp2b_trial_18_colour1_distractors19_l.png,l,1,1,19,0,,,,,0,131,131,131,,,,,,,,,,,,,,,,,,,,,,,,,,,,,,,,,,,,,,,,,,,438.4917439779965,None,2,0.4708238299936056,438.4917439779965,None,,,,,,,,,,,,,,,,None,None,None,,None,None,439.0088634150452,None,1,1,1.15335730597144,439.0088634150452,None,440.1580088801158,None,None,None,None,,39,001,2023_Jan_30_1619,searchDisc5,2021.2.3,59.982136604128335,
images/exp2c_trial_90_colour3_distractors4_l.png,l,1,3,4,0,,,,,0,132,132,132,,,,,,,,,,,,,,,,,,,,,,,,,,,,,,,,,,,,,,,,,,,440.1746987540391,None,2,0.5375634590163827,440.1746987540391,None,,,,,,,,,,,,,,,,None,None,None,,None,None,440.75836414902005,None,1,1,0.623871413001325,440.75836414902005,None,441.3761150181119,None,None,None,None,,39,001,2023_Jan_30_1619,searchDisc5,2021.2.3,59.982136604128335,
images/exp2b_trial_273_colour1_distractors9_l.png,l,1,1,9,0,,,,,0,133,133,133,,,,,,,,,,,,,,,,,,,,,,,,,,,,,,,,,,,,,,,,,,,441.39097624702845,None,2,0.5881072790361941,441.39097624702845,None,,,,,,,,,,,,,,,,None,None,None,,None,None,442.02604125399375,None,1,1,0.6032553329714574,442.02604125399375,None,442.625032908126,None,None,None,None,,39,001,2023_Jan_30_1619,searchDisc5,2021.2.3,59.982136604128335,
images/exp1a_trial_293_colour2_distractors1_r.png,r,3,2,1,0,,,,,0,134,134,134,,,,,,,,,,,,,,,,,,,,,,,,,,,,,,,,,,,,,,,,,,,442.6433539169957,None,2,0.5399623360135593,442.6433539169957,None,,,,,,,,,,,,,,,,None,None,None,,None,None,443.2250568570453,None,3,1,0.503770180977881,443.2250568570453,None,443.72506012810044,None,None,None,None,,39,001,2023_Jan_30_1619,searchDisc5,2021.2.3,59.982136604128335,
images/exp1a_trial_317_colour3_distractors31_l.png,l,1,3,31,0,,,,,0,135,135,135,,,,,,,,,,,,,,,,,,,,,,,,,,,,,,,,,,,,,,,,,,,443.74149107799167,None,2,0.5220744530088268,443.74149107799167,None,,,,,,,,,,,,,,,,None,None,None,,None,None,444.3113756800303,None,3,0,0.6335407189908437,444.3113756800303,None,444.9427673161437,None,None,None,None,,39,001,2023_Jan_30_1619,searchDisc5,2021.2.3,59.982136604128335,
images/exp2c_trial_167_colour2_distractors9_r.png,r,3,2,9,0,,,,,0,136,136,136,,,,,,,,,,,,,,,,,,,,,,,,,,,,,,,,,,,,,,,,,,,444.95828182902187,None,2,0.8530138739733957,444.95828182902187,None,,,,,,,,,,,,,,,,None,None,None,,None,None,445.8584797740332,None,3,1,0.622254122979939,445.8584797740332,None,446.47510899314074,None,None,None,None,,39,001,2023_Jan_30_1619,searchDisc5,2021.2.3,59.982136604128335,
images/exp2c_trial_240_colour1_distractors4_l.png,l,1,1,4,0,,,,,0,137,137,137,,,,,,,,,,,,,,,,,,,,,,,,,,,,,,,,,,,,,,,,,,,446.491935433005,None,2,0.5889795390539803,446.491935433005,None,,,,,,,,,,,,,,,,None,None,None,,None,None,447.1250462940079,None,1,1,0.5379940630518831,447.1250462940079,None,447.6584781851445,None,None,None,None,,39,001,2023_Jan_30_1619,searchDisc5,2021.2.3,59.982136604128335,
images/exp2a_trial_227_colour1_distractors19_r.png,r,3,1,19,0,,,,,0,138,138,138,,,,,,,,,,,,,,,,,,,,,,,,,,,,,,,,,,,,,,,,,,,447.6748874770128,None,2,0.5212828129879199,447.6748874770128,None,,,,,,,,,,,,,,,,None,None,None,,None,None,448.243921640038,None,3,1,0.5540800609742291,448.243921640038,None,448.79309909914735,None,None,None,None,,39,001,2023_Jan_30_1619,searchDisc5,2021.2.3,59.982136604128335,
images/exp1a_trial_261_colour2_distractors1_r.png,r,3,2,1,0,,,,,0,139,139,139,,,,,,,,,,,,,,,,,,,,,,,,,,,,,,,,,,,,,,,,,,,448.8083079670323,None,2,0.536804944043979,448.8083079670323,None,,,,,,,,,,,,,,,,None,None,None,,None,None,449.39397978101624,None,3,1,0.5391688300296664,449.39397978101624,None,449.9255178510968,None,None,None,None,,39,001,2023_Jan_30_1619,searchDisc5,2021.2.3,59.982136604128335,
images/exp2c_trial_70_colour2_distractors4_r.png,r,3,2,4,0,,,,,0,140,140,140,,,,,,,,,,,,,,,,,,,,,,,,,,,,,,,,,,,,,,,,,,,449.9424115890288,None,2,0.5070726369740441,449.9424115890288,None,,,,,,,,,,,,,,,,None,None,None,,None,None,450.4944942560396,None,3,1,0.6201593109872192,450.4944942560396,None,451.1086392171157,None,None,None,None,,39,001,2023_Jan_30_1619,searchDisc5,2021.2.3,59.982136604128335,
images/exp2b_trial_123_colour3_distractors9_l.png,l,1,3,9,0,,,,,0,141,141,141,,,,,,,,,,,,,,,,,,,,,,,,,,,,,,,,,,,,,,,,,,,451.125587432005,None,2,0.5389483839971945,451.125587432005,None,,,,,,,,,,,,,,,,None,None,None,,None,None,451.71112157503376,None,3,0,0.5868208549800329,451.71112157503376,None,452.2920235541125,None,None,None,None,,39,001,2023_Jan_30_1619,searchDisc5,2021.2.3,59.982136604128335,
images/exp2c_trial_252_colour3_distractors19_l.png,l,1,3,19,0,,,,,0,142,142,142,,,,,,,,,,,,,,,,,,,,,,,,,,,,,,,,,,,,,,,,,,,452.3087571920478,None,2,0.6042909380048513,452.3087571920478,None,,,,,,,,,,,,,,,,None,None,None,,None,None,452.9588150130003,None,1,1,1.2037182849599048,452.9588150130003,None,454.15874398809973,None,None,None,None,,39,001,2023_Jan_30_1619,searchDisc5,2021.2.3,59.982136604128335,
images/exp2a_trial_179_colour1_distractors31_l.png,l,1,1,31,0,,,,,0,143,143,143,,,,,,,,,,,,,,,,,,,,,,,,,,,,,,,,,,,,,,,,,,,454.1752292190213,None,2,0.5230227319989353,454.1752292190213,None,,,,,,,,,,,,,,,,None,None,None,,None,None,454.74259711202467,None,1,1,0.5348907490260899,454.74259711202467,None,455.2752921741514,None,None,None,None,,39,001,2023_Jan_30_1619,searchDisc5,2021.2.3,59.982136604128335,
images/exp2b_trial_66_colour1_distractors9_r.png,r,3,1,9,0,,,,,0,144,144,144,,,,,,,,,,,,,,,,,,,,,,,,,,,,,,,,,,,,,,,,,,,455.2937975579989,None,2,0.5547032169997692,455.2937975579989,None,,,,,,,,,,,,,,,,None,None,None,,None,None,455.89327341201715,None,3,1,0.5885121079627424,455.89327341201715,None,456.47534299113903,None,None,None,None,,39,001,2023_Jan_30_1619,searchDisc5,2021.2.3,59.982136604128335,
images/exp2c_trial_277_colour2_distractors4_l.png,l,1,2,4,0,,,,,0,145,145,145,,,,,,,,,,,,,,,,,,,,,,,,,,,,,,,,,,,,,,,,,,,456.49273652402917,None,2,0.6057031480013393,456.49273652402917,None,,,,,,,,,,,,,,,,None,None,None,,None,None,457.1430060050334,None,1,1,0.6710317389806733,457.1430060050334,None,457.808814733132,None,None,None,None,,39,001,2023_Jan_30_1619,searchDisc5,2021.2.3,59.982136604128335,
images/exp2b_trial_184_colour2_distractors31_l.png,l,1,2,31,0,,,,,0,146,146,146,,,,,,,,,,,,,,,,,,,,,,,,,,,,,,,,,,,,,,,,,,,457.82520199002465,None,2,0.6380972070037387,457.82520199002465,None,,,,,,,,,,,,,,,,None,None,None,,None,None,458.50886323599843,None,1,1,0.9693920920253731,458.50886323599843,None,459.475331030105,None,None,None,None,,39,001,2023_Jan_30_1619,searchDisc5,2021.2.3,59.982136604128335,
images/exp1a_trial_116_colour2_distractors1_l.png,l,1,2,1,0,,,,,0,147,147,147,,,,,,,,,,,,,,,,,,,,,,,,,,,,,,,,,,,,,,,,,,,459.4918606870342,None,2,0.556824391009286,459.4918606870342,None,,,,,,,,,,,,,,,,None,None,None,,None,None,460.0942716920399,None,1,1,0.5871404019999318,460.0942716920399,None,460.6752321471169,None,None,None,None,,39,001,2023_Jan_30_1619,searchDisc5,2021.2.3,59.982136604128335,
images/exp2b_trial_237_colour3_distractors19_r.png,r,3,3,19,0,,,,,0,148,148,148,,,,,,,,,,,,,,,,,,,,,,,,,,,,,,,,,,,,,,,,,,,460.6926270770491,None,2,0.5566903189755976,460.6926270770491,None,,,,,,,,,,,,,,,,None,None,None,,None,None,461.2941219320055,None,3,1,0.751730146992486,461.2941219320055,None,462.04222691712783,None,None,None,None,,39,001,2023_Jan_30_1619,searchDisc5,2021.2.3,59.982136604128335,
images/exp1a_trial_255_colour0_distractors0_l.png,l,1,0,0,0,,,,,0,149,149,149,,,,,,,,,,,,,,,,,,,,,,,,,,,,,,,,,,,,,,,,,,,462.06088052503765,None,2,0.538072211027611,462.06088052503765,None,,,,,,,,,,,,,,,,None,None,None,,None,None,462.64235552202445,None,1,1,0.6902800920070149,462.64235552202445,None,463.3256079121085,None,None,None,None,,39,001,2023_Jan_30_1619,searchDisc5,2021.2.3,59.982136604128335,
images/exp1a_trial_308_colour2_distractors1_l.png,l,1,2,1,0,,,,,0,150,150,150,,,,,,,,,,,,,,,,,,,,,,,,,,,,,,,,,,,,,,,,,,,463.3420338979922,None,2,0.5223094220273197,463.3420338979922,None,,,,,,,,,,,,,,,,None,None,None,,None,None,463.91101151000476,None,1,1,0.5520330900326371,463.91101151000476,None,464.4589742351265,None,None,None,None,,39,001,2023_Jan_30_1619,searchDisc5,2021.2.3,59.982136604128335,
images/exp2b_trial_39_colour2_distractors9_r.png,r,3,2,9,0,,,,,0,151,151,151,,,,,,,,,,,,,,,,,,,,,,,,,,,,,,,,,,,,,,,,,,,464.4753605989972,None,2,0.5218752719811164,464.4753605989972,None,,,,,,,,,,,,,,,,None,None,None,,None,None,465.0448351020459,None,3,1,0.6037823219667189,465.0448351020459,None,465.64252389410393,None,None,None,None,,39,001,2023_Jan_30_1619,searchDisc5,2021.2.3,59.982136604128335,
images/exp2b_trial_87_colour2_distractors19_l.png,l,1,2,19,0,,,,,0,152,152,152,,,,,,,,,,,,,,,,,,,,,,,,,,,,,,,,,,,,,,,,,,,465.66161023901077,None,2,0.5554770349990577,465.66161023901077,None,,,,,,,,,,,,,,,,None,None,None,,None,None,466.25937630899716,None,1,1,0.6364746849867515,466.25937630899716,None,466.89257188015034,None,None,None,None,,39,001,2023_Jan_30_1619,searchDisc5,2021.2.3,59.982136604128335,
images/exp2b_trial_317_colour3_distractors31_l.png,l,1,3,31,0,,,,,0,153,153,153,,,,,,,,,,,,,,,,,,,,,,,,,,,,,,,,,,,,,,,,,,,466.90980735904304,None,2,0.5218286049785092,466.90980735904304,None,,,,,,,,,,,,,,,,None,None,None,,None,None,467.47778840904357,None,1,1,0.5865107559948228,467.47778840904357,None,468.06007840014644,None,None,None,None,,39,001,2023_Jan_30_1619,searchDisc5,2021.2.3,59.982136604128335,
images/exp2a_trial_99_colour1_distractors19_r.png,r,3,1,19,0,,,,,0,154,154,154,,,,,,,,,,,,,,,,,,,,,,,,,,,,,,,,,,,,,,,,,,,468.07548839604715,None,2,0.5066365239908919,468.07548839604715,None,,,,,,,,,,,,,,,,None,None,None,,None,None,468.62761049804976,None,3,1,0.635914854996372,468.62761049804976,None,469.2600204281218,None,None,None,None,,39,001,2023_Jan_30_1619,searchDisc5,2021.2.3,59.982136604128335,
images/exp2c_trial_152_colour2_distractors31_l.png,l,1,2,31,0,,,,,0,155,155,155,,,,,,,,,,,,,,,,,,,,,,,,,,,,,,,,,,,,,,,,,,,469.27515248401323,None,2,0.5012555450084619,469.27515248401323,None,,,,,,,,,,,,,,,,None,None,None,,None,None,469.8272910499945,None,1,1,0.5692094779806212,469.8272910499945,None,470.3924433140957,None,None,None,None,,39,001,2023_Jan_30_1619,searchDisc5,2021.2.3,59.982136604128335,
images/exp2c_trial_29_colour3_distractors31_l.png,l,1,3,31,0,,,,,0,156,156,156,,,,,,,,,,,,,,,,,,,,,,,,,,,,,,,,,,,,,,,,,,,470.40980466100154,None,2,0.4868387060123496,470.40980466100154,None,,,,,,,,,,,,,,,,None,None,None,,None,None,470.94266750104725,None,1,1,1.189078267023433,470.94266750104725,None,472.1270013911009,None,None,None,None,,39,001,2023_Jan_30_1619,searchDisc5,2021.2.3,59.982136604128335,
images/exp2a_trial_111_colour1_distractors1_l.png,l,1,1,1,0,,,,,0,157,157,157,,,,,,,,,,,,,,,,,,,,,,,,,,,,,,,,,,,,,,,,,,,472.14309857803164,None,2,0.5220509780338034,472.14309857803164,None,,,,,,,,,,,,,,,,None,None,None,,None,None,472.7123464400065,None,1,1,0.638649903004989,472.7123464400065,None,473.34371214513084,None,None,None,None,,39,001,2023_Jan_30_1619,searchDisc5,2021.2.3,59.982136604128335,
images/exp2a_trial_313_colour3_distractors1_l.png,l,1,3,1,0,,,,,0,158,158,158,,,,,,,,,,,,,,,,,,,,,,,,,,,,,,,,,,,,,,,,,,,473.3598048320273,None,2,0.5066588499466889,473.3598048320273,None,,,,,,,,,,,,,,,,None,None,None,,None,None,473.9118891310063,None,1,1,0.5357384019880556,473.9118891310063,None,474.44223171014454,None,None,None,None,,39,001,2023_Jan_30_1619,searchDisc5,2021.2.3,59.982136604128335,
images/exp2c_trial_129_colour1_distractors4_r.png,r,3,1,4,0,,,,,0,159,159,159,,,,,,,,,,,,,,,,,,,,,,,,,,,,,,,,,,,,,,,,,,,474.45956092502456,None,2,0.537862949015107,474.45956092502456,None,,,,,,,,,,,,,,,,None,None,None,,None,None,475.0430977049982,None,3,1,0.5222807900281623,475.0430977049982,None,475.5593789761362,None,None,None,None,,39,001,2023_Jan_30_1619,searchDisc5,2021.2.3,59.982136604128335,
images/exp2a_trial_22_colour2_distractors9_l.png,l,1,2,9,0,,,,,0,160,160,160,,,,,,,,,,,,,,,,,,,,,,,,,,,,,,,,,,,,,,,,,,,475.57651056704344,None,2,0.5737731409608386,475.57651056704344,None,,,,,,,,,,,,,,,,None,None,None,,None,None,476.19309682102175,None,1,1,0.9651816310361028,476.19309682102175,None,477.1593614631158,None,None,None,None,,39,001,2023_Jan_30_1619,searchDisc5,2021.2.3,59.982136604128335,
images/exp2a_trial_291_colour1_distractors19_r.png,r,3,1,19,0,,,,,0,161,161,161,,,,,,,,,,,,,,,,,,,,,,,,,,,,,,,,,,,,,,,,,,,477.17627813399304,None,2,0.5222170369816013,477.17627813399304,None,,,,,,,,,,,,,,,,None,None,None,,None,None,477.74569201201666,None,3,1,0.6019982970319688,477.74569201201666,None,478.3426483611285,None,None,None,None,,39,001,2023_Jan_30_1619,searchDisc5,2021.2.3,59.982136604128335,
images/exp2a_trial_108_colour3_distractors9_r.png,r,3,3,9,0,,,,,0,162,162,162,,,,,,,,,,,,,,,,,,,,,,,,,,,,,,,,,,,,,,,,,,,478.35979208303615,None,2,0.5547782999929041,478.35979208303615,None,,,,,,,,,,,,,,,,None,None,None,,None,None,478.96052303304896,None,3,1,0.7219572689500637,478.96052303304896,None,479.6760577021225,None,None,None,None,,39,001,2023_Jan_30_1619,searchDisc5,2021.2.3,59.982136604128335,
images/exp2c_trial_113_colour1_distractors9_l.png,l,1,1,9,0,,,,,0,163,163,163,,,,,,,,,,,,,,,,,,,,,,,,,,,,,,,,,,,,,,,,,,,479.6926572090015,None,2,0.5212166020064615,479.6926572090015,None,,,,,,,,,,,,,,,,None,None,None,,None,None,480.26230207504705,None,1,1,0.5544318000320345,480.26230207504705,None,480.80947751809725,None,None,None,None,,39,001,2023_Jan_30_1619,searchDisc5,2021.2.3,59.982136604128335,
images/exp2b_trial_93_colour3_distractors31_l.png,l,1,3,31,0,,,,,0,164,164,164,,,,,,,,,,,,,,,,,,,,,,,,,,,,,,,,,,,,,,,,,,,480.8258599230321,None,2,0.5400000779773109,480.8258599230321,None,,,,,,,,,,,,,,,,None,None,None,,None,None,481.41169873200124,None,1,1,0.7187346169957891,481.41169873200124,None,482.1273114131356,None,None,None,None,,39,001,2023_Jan_30_1619,searchDisc5,2021.2.3,59.982136604128335,
images/exp2c_trial_207_colour1_distractors1_l.png,l,1,1,1,0,,,,,0,165,165,165,,,,,,,,,,,,,,,,,,,,,,,,,,,,,,,,,,,,,,,,,,,482.14264803304104,None,2,0.5398419469711371,482.14264803304104,None,,,,,,,,,,,,,,,,None,None,None,,None,None,482.7281990420306,None,1,1,0.5881820319918916,482.7281990420306,None,483.3113790401432,None,None,None,None,,39,001,2023_Jan_30_1619,searchDisc5,2021.2.3,59.982136604128335,
images/exp1a_trial_296_colour2_distractors19_r.png,r,3,2,19,0,,,,,0,166,166,166,,,,,,,,,,,,,,,,,,,,,,,,,,,,,,,,,,,,,,,,,,,483.3266794329975,None,2,0.5534449190017767,483.3266794329975,None,,,,,,,,,,,,,,,,None,None,None,,None,None,483.92668412503554,None,3,1,0.5341101049561985,483.92668412503554,None,484.45954017214825,None,None,None,None,,39,001,2023_Jan_30_1619,searchDisc5,2021.2.3,59.982136604128335,
images/exp2c_trial_156_colour3_distractors19_l.png,l,1,3,19,0,,,,,0,167,167,167,,,,,,,,,,,,,,,,,,,,,,,,,,,,,,,,,,,,,,,,,,,484.4764869500068,None,2,0.556760111998301,484.4764869500068,None,,,,,,,,,,,,,,,,None,None,None,,None,None,485.07878784503555,None,1,1,0.7181098700384609,485.07878784503555,None,485.7929161251115,None,None,None,None,,39,001,2023_Jan_30_1619,searchDisc5,2021.2.3,59.982136604128335,
images/exp1a_trial_216_colour2_distractors31_l.png,l,1,2,31,0,,,,,0,168,168,168,,,,,,,,,,,,,,,,,,,,,,,,,,,,,,,,,,,,,,,,,,,485.80933506099973,None,2,0.5223966980120167,485.80933506099973,None,,,,,,,,,,,,,,,,None,None,None,,None,None,486.3783472490031,None,1,1,0.5676961740246043,486.3783472490031,None,486.9429620301409,None,None,None,None,,39,001,2023_Jan_30_1619,searchDisc5,2021.2.3,59.982136604128335,
images/exp2a_trial_74_colour3_distractors1_r.png,r,3,3,1,0,,,,,0,169,169,169,,,,,,,,,,,,,,,,,,,,,,,,,,,,,,,,,,,,,,,,,,,486.96011768304743,None,2,0.5220598189625889,486.96011768304743,None,,,,,,,,,,,,,,,,None,None,None,,None,None,487.5283413680154,None,3,1,0.4859079020097852,487.5283413680154,None,488.0093778520997,None,None,None,None,,39,001,2023_Jan_30_1619,searchDisc5,2021.2.3,59.982136604128335,
images/exp2a_trial_174_colour3_distractors31_r.png,r,3,3,31,0,,,,,0,170,170,170,,,,,,,,,,,,,,,,,,,,,,,,,,,,,,,,,,,,,,,,,,,488.02562957804184,None,2,0.5225100080133416,488.02562957804184,None,,,,,,,,,,,,,,,,None,None,None,,None,None,488.59535546199186,None,3,1,0.6144910239963792,488.59535546199186,None,489.2090663031151,None,None,None,None,,39,001,2023_Jan_30_1619,searchDisc5,2021.2.3,59.982136604128335,
images/exp2a_trial_43_colour3_distractors4_r.png,r,3,3,4,0,,,,,0,171,171,171,,,,,,,,,,,,,,,,,,,,,,,,,,,,,,,,,,,,,,,,,,,489.2291622310295,None,2,0.5555324129527435,489.2291622310295,None,,,,,,,,,,,,,,,,None,None,None,,None,None,489.8273189419997,None,3,1,0.48776131198974326,489.8273189419997,None,490.3090077490953,None,None,None,None,,39,001,2023_Jan_30_1619,searchDisc5,2021.2.3,59.982136604128335,
images/exp2b_trial_241_colour1_distractors9_l.png,l,1,1,9,0,,,,,0,172,172,172,,,,,,,,,,,,,,,,,,,,,,,,,,,,,,,,,,,,,,,,,,,490.3290112420218,None,2,0.5886584609979764,490.3290112420218,None,,,,,,,,,,,,,,,,None,None,None,,None,None,490.9598108960199,None,1,1,0.5561398059944622,490.9598108960199,None,491.51073957015177,None,None,None,None,,39,001,2023_Jan_30_1619,searchDisc5,2021.2.3,59.982136604128335,
images/exp2a_trial_235_colour3_distractors4_r.png,r,3,3,4,0,,,,,0,173,173,173,,,,,,,,,,,,,,,,,,,,,,,,,,,,,,,,,,,,,,,,,,,491.527174354007,None,2,0.6374914520420134,491.527174354007,None,,,,,,,,,,,,,,,,None,None,None,,None,None,492.2105744470027,None,3,1,0.6208619239623658,492.2105744470027,None,492.82627876814803,None,None,None,None,,39,001,2023_Jan_30_1619,searchDisc5,2021.2.3,59.982136604128335,
images/exp2b_trial_240_colour1_distractors4_l.png,l,1,1,4,0,,,,,0,174,174,174,,,,,,,,,,,,,,,,,,,,,,,,,,,,,,,,,,,,,,,,,,,492.84514361200854,None,2,0.5723179670167156,492.84514361200854,None,,,,,,,,,,,,,,,,None,None,None,,None,None,493.46039336000104,None,1,1,0.5543807380017824,493.46039336000104,None,494.00970079809775,None,None,None,None,,39,001,2023_Jan_30_1619,searchDisc5,2021.2.3,59.982136604128335,
images/exp1a_trial_136_colour2_distractors19_r.png,r,3,2,19,0,,,,,0,175,175,175,,,,,,,,,,,,,,,,,,,,,,,,,,,,,,,,,,,,,,,,,,,494.0257660910138,None,2,0.5566897310200147,494.0257660910138,None,,,,,,,,,,,,,,,,None,None,None,,None,None,494.6284835890401,None,3,1,0.7828343950095586,494.6284835890401,None,495.40976307310046,None,None,None,None,,39,001,2023_Jan_30_1619,searchDisc5,2021.2.3,59.982136604128335,
images/exp2a_trial_37_colour2_distractors1_r.png,r,3,2,1,0,,,,,0,176,176,176,,,,,,,,,,,,,,,,,,,,,,,,,,,,,,,,,,,,,,,,,,,495.42656683403766,None,2,0.5545920869917609,495.42656683403766,None,,,,,,,,,,,,,,,,None,None,None,,None,None,496.0285814810195,None,3,1,1.1554453159915283,496.0285814810195,None,497.17638496014405,None,None,None,None,,39,001,2023_Jan_30_1619,searchDisc5,2021.2.3,59.982136604128335,
images/exp2c_trial_295_colour2_distractors9_r.png,r,3,2,9,0,,,,,0,177,177,177,,,,,,,,,,,,,,,,,,,,,,,,,,,,,,,,,,,,,,,,,,,497.19343891501194,None,2,0.4880499640130438,497.19343891501194,None,,,,,,,,,,,,,,,,None,None,None,,None,None,497.72713294503046,None,3,1,0.5242710399907082,497.72713294503046,None,498.2442539521318,None,None,None,None,,39,001,2023_Jan_30_1619,searchDisc5,2021.2.3,59.982136604128335,
images/exp1a_trial_74_colour3_distractors1_r.png,r,3,3,1,0,,,,,0,178,178,178,,,,,,,,,,,,,,,,,,,,,,,,,,,,,,,,,,,,,,,,,,,498.25920630502515,None,2,0.5680443500168622,498.25920630502515,None,,,,,,,,,,,,,,,,None,None,None,,None,None,498.8790944160428,None,3,1,0.5547971019987017,498.8790944160428,None,499.425887190114,None,None,None,None,,39,001,2023_Jan_30_1619,searchDisc5,2021.2.3,59.982136604128335,
images/exp2a_trial_230_colour2_distractors4_r.png,r,3,2,4,0,,,,,0,179,179,179,,,,,,,,,,,,,,,,,,,,,,,,,,,,,,,,,,,,,,,,,,,499.4430969810346,None,2,0.5740737649612129,499.4430969810346,None,,,,,,,,,,,,,,,,None,None,None,,None,None,500.0596587960026,None,3,1,1.1858739019953646,500.0596587960026,None,501.243228762137,None,None,None,None,,39,001,2023_Jan_30_1619,searchDisc5,2021.2.3,59.982136604128335,
images/exp1a_trial_253_colour3_distractors31_l.png,l,1,3,31,0,,,,,0,180,180,180,,,,,,,,,,,,,,,,,,,,,,,,,,,,,,,,,,,,,,,,,,,501.2619225050439,None,2,0.5535827620187774,501.2619225050439,None,,,,,,,,,,,,,,,,None,None,None,,None,None,501.8619546040427,None,1,1,0.8334474040311761,501.8619546040427,None,502.6933934920991,None,None,None,None,,39,001,2023_Jan_30_1619,searchDisc5,2021.2.3,59.982136604128335,
images/exp2c_trial_244_colour2_distractors1_l.png,l,1,2,1,0,,,,,0,181,181,181,,,,,,,,,,,,,,,,,,,,,,,,,,,,,,,,,,,,,,,,,,,502.7102760570124,None,2,0.5379607519716956,502.7102760570124,None,,,,,,,,,,,,,,,,None,None,None,,None,None,503.2963627150166,None,1,1,0.7065443500177935,503.2963627150166,None,503.9933043941448,None,None,None,None,,39,001,2023_Jan_30_1619,searchDisc5,2021.2.3,59.982136604128335,
images/exp2c_trial_318_colour0_distractors0_r.png,r,3,0,0,0,,,,,0,182,182,182,,,,,,,,,,,,,,,,,,,,,,,,,,,,,,,,,,,,,,,,,,,504.00907870102674,None,2,0.5077835870324634,504.00907870102674,None,,,,,,,,,,,,,,,,None,None,None,,None,None,504.56201083003543,None,3,1,0.5691526840091683,504.56201083003543,None,505.12673530514,None,None,None,None,,39,001,2023_Jan_30_1619,searchDisc5,2021.2.3,59.982136604128335,
images/exp2a_trial_241_colour1_distractors9_l.png,l,1,1,9,0,,,,,0,183,183,183,,,,,,,,,,,,,,,,,,,,,,,,,,,,,,,,,,,,,,,,,,,505.1440504070488,None,2,0.5563277309993282,505.1440504070488,None,,,,,,,,,,,,,,,,None,None,None,,None,None,505.7461229269975,None,1,1,0.5855937270098366,505.7461229269975,None,506.3266374181432,None,None,None,None,,39,001,2023_Jan_30_1619,searchDisc5,2021.2.3,59.982136604128335,
images/exp2b_trial_309_colour2_distractors4_l.png,l,1,2,4,0,,,,,0,184,184,184,,,,,,,,,,,,,,,,,,,,,,,,,,,,,,,,,,,,,,,,,,,506.34323992201826,None,2,0.506736837036442,506.34323992201826,None,,,,,,,,,,,,,,,,None,None,None,,None,None,506.8959664730355,None,1,1,0.5542547889635898,506.8959664730355,None,507.44422257914556,None,None,None,None,,39,001,2023_Jan_30_1619,searchDisc5,2021.2.3,59.982136604128335,
images/exp2b_trial_37_colour2_distractors1_r.png,r,3,2,1,0,,,,,0,185,185,185,,,,,,,,,,,,,,,,,,,,,,,,,,,,,,,,,,,,,,,,,,,507.46089591499185,None,2,0.48708864295622334,507.46089591499185,None,,,,,,,,,,,,,,,,None,None,None,,None,None,507.9938346040435,None,3,1,0.6390876929508522,507.9938346040435,None,508.62665123814367,None,None,None,None,,39,001,2023_Jan_30_1619,searchDisc5,2021.2.3,59.982136604128335,
images/exp1a_trial_4_colour1_distractors31_r.png,r,3,1,31,0,,,,,0,186,186,186,,,,,,,,,,,,,,,,,,,,,,,,,,,,,,,,,,,,,,,,,,,508.64360155304894,None,2,0.6891055639716797,508.64360155304894,None,,,,,,,,,,,,,,,,None,None,None,,None,None,509.3794456149917,None,3,1,0.8648366490378976,509.3794456149917,None,510.2436306881311,None,None,None,None,,39,001,2023_Jan_30_1619,searchDisc5,2021.2.3,59.982136604128335,
images/exp1a_trial_39_colour2_distractors9_r.png,r,3,2,9,0,,,,,0,187,187,187,,,,,,,,,,,,,,,,,,,,,,,,,,,,,,,,,,,,,,,,,,,510.25990972301224,None,2,0.5375795229920186,510.25990972301224,None,,,,,,,,,,,,,,,,None,None,None,,None,None,510.84595333901234,None,3,1,0.6734812179929577,510.84595333901234,None,511.5133784011297,None,None,None,None,,39,001,2023_Jan_30_1619,searchDisc5,2021.2.3,59.982136604128335,
images/exp2a_trial_283_colour3_distractors9_l.png,l,1,3,9,0,,,,,0,188,188,188,,,,,,,,,,,,,,,,,,,,,,,,,,,,,,,,,,,,,,,,,,,511.5266378860106,None,2,0.4848049569991417,511.5266378860106,None,,,,,,,,,,,,,,,,None,None,None,,None,None,512.0622802409925,None,1,1,0.6043934159679338,512.0622802409925,None,512.660231962119,None,None,None,None,,39,001,2023_Jan_30_1619,searchDisc5,2021.2.3,59.982136604128335,
images/exp2c_trial_38_colour2_distractors4_r.png,r,3,2,4,0,,,,,0,189,189,189,,,,,,,,,,,,,,,,,,,,,,,,,,,,,,,,,,,,,,,,,,,512.6786457330454,None,2,0.4896735080401413,512.6786457330454,None,,,,,,,,,,,,,,,,None,None,None,,None,None,513.2122857650393,None,3,1,0.5879176169983111,513.2122857650393,None,513.7946584791237,None,None,None,None,,39,001,2023_Jan_30_1619,searchDisc5,2021.2.3,59.982136604128335,
images/exp1a_trial_29_colour3_distractors31_l.png,l,1,3,31,0,,,,,0,190,190,190,,,,,,,,,,,,,,,,,,,,,,,,,,,,,,,,,,,,,,,,,,,513.8101495210431,None,2,0.6207172519643791,513.8101495210431,None,,,,,,,,,,,,,,,,None,None,None,,None,None,514.4771661889972,None,1,1,0.6160703930072486,514.4771661889972,None,515.0935387021339,None,None,None,None,,39,001,2023_Jan_30_1619,searchDisc5,2021.2.3,59.982136604128335,
images/exp2c_trial_14_colour3_distractors31_r.png,r,3,3,31,0,,,,,0,191,191,191,,,,,,,,,,,,,,,,,,,,,,,,,,,,,,,,,,,,,,,,,,,515.1106656280463,None,2,0.5558730339980684,515.1106656280463,None,,,,,,,,,,,,,,,,None,None,None,,None,None,515.7126855840324,None,3,1,1.0018557489966042,515.7126855840324,None,516.7104054381082,None,None,None,None,,39,001,2023_Jan_30_1619,searchDisc5,2021.2.3,59.982136604128335,
images/exp1a_trial_153_colour3_distractors1_l.png,l,1,3,1,0,,,,,0,192,192,192,,,,,,,,,,,,,,,,,,,,,,,,,,,,,,,,,,,,,,,,,,,516.7265704320162,None,2,0.47123009501956403,516.7265704320162,None,,,,,,,,,,,,,,,,None,None,None,,None,None,517.2440793940332,None,1,1,0.6390896089724265,517.2440793940332,None,517.877031950123,None,None,None,None,,39,001,2023_Jan_30_1619,searchDisc5,2021.2.3,59.982136604128335,
images/exp2c_trial_65_colour1_distractors4_r.png,r,3,1,4,0,,,,,0,193,193,193,,,,,,,,,,,,,,,,,,,,,,,,,,,,,,,,,,,,,,,,,,,517.8934613530291,None,2,0.5417581300134771,517.8934613530291,None,,,,,,,,,,,,,,,,None,None,None,,None,None,518.4799980350072,None,3,1,0.5346749990130775,518.4799980350072,None,519.0103829791362,None,None,None,None,,39,001,2023_Jan_30_1619,searchDisc5,2021.2.3,59.982136604128335,
images/exp2a_trial_95_colour0_distractors0_l.png,l,1,0,0,0,,,,,0,194,194,194,,,,,,,,,,,,,,,,,,,,,,,,,,,,,,,,,,,,,,,,,,,519.0293404959957,None,2,0.5555183360120282,519.0293404959957,None,,,,,,,,,,,,,,,,None,None,None,,None,None,519.627880679036,None,1,1,0.5217436070088297,519.627880679036,None,520.1437503881345,None,None,None,None,,39,001,2023_Jan_30_1619,searchDisc5,2021.2.3,59.982136604128335,
images/exp1a_trial_96_colour1_distractors1_r.png,r,3,1,1,0,,,,,0,195,195,195,,,,,,,,,,,,,,,,,,,,,,,,,,,,,,,,,,,,,,,,,,,520.1602669919957,None,2,0.5380357200047001,520.1602669919957,None,,,,,,,,,,,,,,,,None,None,None,,None,None,520.7461474660086,None,1,0,0.6722322359564714,520.7461474660086,None,521.4101558741124,None,None,None,None,,39,001,2023_Jan_30_1619,searchDisc5,2021.2.3,59.982136604128335,
images/exp1a_trial_118_colour2_distractors9_l.png,l,1,2,9,0,,,,,0,196,196,196,,,,,,,,,,,,,,,,,,,,,,,,,,,,,,,,,,,,,,,,,,,521.428158847033,None,2,1.3882483170018531,521.428158847033,None,,,,,,,,,,,,,,,,None,None,None,,None,None,522.8608455000212,None,1,1,0.5703702170285396,522.8608455000212,None,523.4272647581122,None,None,None,None,,39,001,2023_Jan_30_1619,searchDisc5,2021.2.3,59.982136604128335,
images/exp1a_trial_265_colour2_distractors31_r.png,r,3,2,31,0,,,,,0,197,197,197,,,,,,,,,,,,,,,,,,,,,,,,,,,,,,,,,,,,,,,,,,,523.4441475440399,None,2,0.5390245579765178,523.4441475440399,None,,,,,,,,,,,,,,,,None,None,None,,None,None,524.0296383830137,None,3,1,0.6833156929933466,524.0296383830137,None,524.7106984001177,None,None,None,None,,39,001,2023_Jan_30_1619,searchDisc5,2021.2.3,59.982136604128335,
images/exp1a_trial_171_colour3_distractors4_r.png,r,3,3,4,0,,,,,0,198,198,198,,,,,,,,,,,,,,,,,,,,,,,,,,,,,,,,,,,,,,,,,,,524.7289788580383,None,2,0.5242016689735465,524.7289788580383,None,,,,,,,,,,,,,,,,None,None,None,,None,None,525.2959756079945,None,3,1,0.5682083769934252,525.2959756079945,None,525.8606859271124,None,None,None,None,,39,001,2023_Jan_30_1619,searchDisc5,2021.2.3,59.982136604128335,
images/exp2c_trial_226_colour1_distractors9_r.png,r,3,1,9,0,,,,,0,199,199,199,,,,,,,,,,,,,,,,,,,,,,,,,,,,,,,,,,,,,,,,,,,525.8770127760363,None,2,0.5564589449786581,525.8770127760363,None,,,,,,,,,,,,,,,,None,None,None,,None,None,526.4795511050033,None,3,1,0.5360336779849604,526.4795511050033,None,527.0105938621157,None,None,None,None,,39,001,2023_Jan_30_1619,searchDisc5,2021.2.3,59.982136604128335,
images/exp1a_trial_252_colour3_distractors19_l.png,l,1,3,19,0,,,,,0,200,200,200,,,,,,,,,,,,,,,,,,,,,,,,,,,,,,,,,,,,,,,,,,,527.027804006997,None,2,0.5561362369917333,527.027804006997,None,,,,,,,,,,,,,,,,None,None,None,,None,None,527.627302065026,None,1,1,0.7331495169783011,527.627302065026,None,528.3597773131507,None,None,None,None,,39,001,2023_Jan_30_1619,searchDisc5,2021.2.3,59.982136604128335,
images/exp2b_trial_51_colour1_distractors31_l.png,l,1,1,31,0,,,,,0,201,201,201,,,,,,,,,,,,,,,,,,,,,,,,,,,,,,,,,,,,,,,,,,,528.3771682429942,None,2,0.5730342810275033,528.3771682429942,None,,,,,,,,,,,,,,,,None,None,None,,None,None,528.9960064690094,None,1,1,1.3683818739955314,528.9960064690094,None,530.3607409541321,None,None,None,None,,39,001,2023_Jan_30_1619,searchDisc5,2021.2.3,59.982136604128335,
images/exp2c_trial_301_colour3_distractors19_r.png,r,3,3,19,0,,,,,0,202,202,202,,,,,,,,,,,,,,,,,,,,,,,,,,,,,,,,,,,,,,,,,,,530.3792838000227,None,2,0.5067350949975662,530.3792838000227,None,,,,,,,,,,,,,,,,None,None,None,,None,None,530.930311529024,None,3,1,0.5181498819729313,530.930311529024,None,531.4442519741308,None,None,None,None,,39,001,2023_Jan_30_1619,searchDisc5,2021.2.3,59.982136604128335,
images/exp2c_trial_275_colour1_distractors31_l.png,l,1,1,31,0,,,,,0,203,203,203,,,,,,,,,,,,,,,,,,,,,,,,,,,,,,,,,,,,,,,,,,,531.4606340550235,None,2,0.6223656970541924,531.4606340550235,None,,,,,,,,,,,,,,,,None,None,None,,None,None,532.1284392760135,None,1,1,0.6187900530057959,532.1284392760135,None,532.7452677931462,None,None,None,None,,39,001,2023_Jan_30_1619,searchDisc5,2021.2.3,59.982136604128335,
images/exp2c_trial_91_colour3_distractors9_l.png,l,1,3,9,0,,,,,0,204,204,204,,,,,,,,,,,,,,,,,,,,,,,,,,,,,,,,,,,,,,,,,,,532.7614040450426,None,2,0.5542062890017405,532.7614040450426,None,,,,,,,,,,,,,,,,None,None,None,,None,None,533.3641270100488,None,1,1,0.7198553790221922,533.3641270100488,None,534.0774975591514,None,None,None,None,,39,001,2023_Jan_30_1619,searchDisc5,2021.2.3,59.982136604128335,
images/exp2c_trial_162_colour1_distractors9_r.png,r,3,1,9,0,,,,,0,205,205,205,,,,,,,,,,,,,,,,,,,,,,,,,,,,,,,,,,,,,,,,,,,534.0939401350333,None,2,0.522362757998053,534.0939401350333,None,,,,,,,,,,,,,,,,None,None,None,,None,None,534.6636833410012,None,3,1,0.5868277290137485,534.6636833410012,None,535.2442759321013,None,None,None,None,,39,001,2023_Jan_30_1619,searchDisc5,2021.2.3,59.982136604128335,
images/exp2a_trial_4_colour1_distractors31_r.png,r,3,1,31,0,,,,,0,206,206,206,,,,,,,,,,,,,,,,,,,,,,,,,,,,,,,,,,,,,,,,,,,535.2607343010022,None,2,0.5232738410122693,535.2607343010022,None,,,,,,,,,,,,,,,,None,None,None,,None,None,535.8299997409922,None,3,1,0.5996750249760225,535.8299997409922,None,536.4275650671509,None,None,None,None,,39,001,2023_Jan_30_1619,searchDisc5,2021.2.3,59.982136604128335,
images/exp1a_trial_224_colour1_distractors1_r.png,r,3,1,1,0,,,,,0,207,207,207,,,,,,,,,,,,,,,,,,,,,,,,,,,,,,,,,,,,,,,,,,,536.4460681730416,None,2,0.5724312899983488,536.4460681730416,None,,,,,,,,,,,,,,,,None,None,None,,None,None,537.0613290870097,None,3,1,0.8546597989625297,537.0613290870097,None,537.9110957771366,None,None,None,None,,39,001,2023_Jan_30_1619,searchDisc5,2021.2.3,59.982136604128335,
images/exp2a_trial_194_colour1_distractors9_r.png,r,3,1,9,0,,,,,0,208,208,208,,,,,,,,,,,,,,,,,,,,,,,,,,,,,,,,,,,,,,,,,,,537.9274818000267,None,2,0.5222348109818995,537.9274818000267,None,,,,,,,,,,,,,,,,None,None,None,,None,None,538.4972682440421,None,3,1,0.6729982430115342,538.4972682440421,None,539.1610938211263,None,None,None,None,,39,001,2023_Jan_30_1619,searchDisc5,2021.2.3,59.982136604128335,
images/exp2a_trial_158_colour0_distractors0_r.png,r,3,0,0,0,,,,,0,209,209,209,,,,,,,,,,,,,,,,,,,,,,,,,,,,,,,,,,,,,,,,,,,539.1781226140447,None,2,0.5219255649717525,539.1781226140447,None,,,,,,,,,,,,,,,,None,None,None,,None,None,539.7438003220013,None,3,1,0.6865514200180769,539.7438003220013,None,540.4276009081107,None,None,None,None,,39,001,2023_Jan_30_1619,searchDisc5,2021.2.3,59.982136604128335,
images/exp2b_trial_149_colour2_distractors4_l.png,l,1,2,4,0,,,,,0,210,210,210,,,,,,,,,,,,,,,,,,,,,,,,,,,,,,,,,,,,,,,,,,,540.4446451130207,None,2,0.5880201109685004,540.4446451130207,None,,,,,,,,,,,,,,,,None,None,None,,None,None,541.0785373520339,None,1,1,0.8055873420089483,541.0785373520339,None,541.8777142321517,None,None,None,None,,39,001,2023_Jan_30_1619,searchDisc5,2021.2.3,59.982136604128335,
images/exp2b_trial_118_colour2_distractors9_l.png,l,1,2,9,0,,,,,0,211,211,211,,,,,,,,,,,,,,,,,,,,,,,,,,,,,,,,,,,,,,,,,,,541.8948040510295,None,2,0.5561056490405463,541.8948040510295,None,,,,,,,,,,,,,,,,None,None,None,,None,None,542.4965436540078,None,1,1,0.6050105050089769,542.4965436540078,None,543.0955955541169,None,None,None,None,,39,001,2023_Jan_30_1619,searchDisc5,2021.2.3,59.982136604128335,
images/exp1a_trial_129_colour1_distractors4_r.png,r,3,1,4,0,,,,,0,212,212,212,,,,,,,,,,,,,,,,,,,,,,,,,,,,,,,,,,,,,,,,,,,543.1112949920353,None,2,0.539987358963117,543.1112949920353,None,,,,,,,,,,,,,,,,None,None,None,,None,None,543.6970992530114,None,3,1,0.5849483259953558,543.6970992530114,None,544.2778684951074,None,None,None,None,,39,001,2023_Jan_30_1619,searchDisc5,2021.2.3,59.982136604128335,
images/exp1a_trial_182_colour2_distractors9_l.png,l,1,2,9,0,,,,,0,213,213,213,,,,,,,,,,,,,,,,,,,,,,,,,,,,,,,,,,,,,,,,,,,544.2948960899957,None,2,0.5728769230190665,544.2948960899957,None,,,,,,,,,,,,,,,,None,None,None,,None,None,544.9132144229952,None,1,1,0.5686852399958298,544.9132144229952,None,545.4780256921251,None,None,None,None,,39,001,2023_Jan_30_1619,searchDisc5,2021.2.3,59.982136604128335,
images/exp2b_trial_159_colour0_distractors0_l.png,l,1,0,0,0,,,,,0,214,214,214,,,,,,,,,,,,,,,,,,,,,,,,,,,,,,,,,,,,,,,,,,,545.4964901499916,None,2,0.5866969740018249,545.4964901499916,None,,,,,,,,,,,,,,,,None,None,None,,None,None,546.1288079800433,None,1,1,0.7730290689505637,546.1288079800433,None,546.8945539741137,None,None,None,None,,39,001,2023_Jan_30_1619,searchDisc5,2021.2.3,59.982136604128335,
images/exp2b_trial_172_colour3_distractors9_r.png,r,3,3,9,0,,,,,0,215,215,215,,,,,,,,,,,,,,,,,,,,,,,,,,,,,,,,,,,,,,,,,,,546.913159629039,None,2,0.4707560049719177,546.913159629039,None,,,,,,,,,,,,,,,,None,None,None,,None,None,547.4309592409991,None,3,1,0.7053009879891761,547.4309592409991,None,548.1279468111054,None,None,None,None,,39,001,2023_Jan_30_1619,searchDisc5,2021.2.3,59.982136604128335,
images/exp2a_trial_275_colour1_distractors31_l.png,l,1,1,31,0,,,,,0,216,216,216,,,,,,,,,,,,,,,,,,,,,,,,,,,,,,,,,,,,,,,,,,,548.1448315340094,None,2,0.48913070297567174,548.1448315340094,None,,,,,,,,,,,,,,,,None,None,None,,None,None,548.6789769420284,None,1,1,0.6177935859886929,548.6789769420284,None,549.2945767481172,None,None,None,None,,39,001,2023_Jan_30_1619,searchDisc5,2021.2.3,59.982136604128335,
images/exp2b_trial_296_colour2_distractors19_r.png,r,3,2,19,0,,,,,0,217,217,217,,,,,,,,,,,,,,,,,,,,,,,,,,,,,,,,,,,,,,,,,,,549.3114623430301,None,2,0.5379311490105465,549.3114623430301,None,,,,,,,,,,,,,,,,None,None,None,,None,None,549.8976116169943,None,3,1,0.5534748680074699,549.8976116169943,None,550.4448844501342,None,None,None,None,,39,001,2023_Jan_30_1619,searchDisc5,2021.2.3,59.982136604128335,
images/exp1a_trial_45_colour3_distractors19_r.png,r,3,3,19,0,,,,,0,218,218,218,,,,,,,,,,,,,,,,,,,,,,,,,,,,,,,,,,,,,,,,,,,550.461993822013,None,2,0.5374155500321649,550.461993822013,None,,,,,,,,,,,,,,,,None,None,None,,None,None,551.0469830780057,None,3,1,0.5850076450151391,551.0469830780057,None,551.6280682951503,None,None,None,None,,39,001,2023_Jan_30_1619,searchDisc5,2021.2.3,59.982136604128335,
images/exp1a_trial_294_colour2_distractors4_r.png,r,3,2,4,0,,,,,0,219,219,219,,,,,,,,,,,,,,,,,,,,,,,,,,,,,,,,,,,,,,,,,,,551.6445148910279,None,2,0.5047660020063631,551.6445148910279,None,,,,,,,,,,,,,,,,None,None,None,,None,None,552.1971813570126,None,3,1,0.6048630899749696,552.1971813570126,None,552.7948499891384,None,None,None,None,,39,001,2023_Jan_30_1619,searchDisc5,2021.2.3,59.982136604128335,
images/exp2c_trial_192_colour1_distractors1_r.png,r,3,1,1,0,,,,,0,220,220,220,,,,,,,,,,,,,,,,,,,,,,,,,,,,,,,,,,,,,,,,,,,552.8112319100183,None,2,0.5065103839733638,552.8112319100183,None,,,,,,,,,,,,,,,,None,None,None,,None,None,553.3635160099948,None,3,1,0.5865770489908755,553.3635160099948,None,553.9447100281425,None,None,None,None,,39,001,2023_Jan_30_1619,searchDisc5,2021.2.3,59.982136604128335,
images/exp2a_trial_112_colour1_distractors4_l.png,l,1,1,4,0,,,,,0,221,221,221,,,,,,,,,,,,,,,,,,,,,,,,,,,,,,,,,,,,,,,,,,,553.9612364780041,None,2,0.5419000780093484,553.9612364780041,None,,,,,,,,,,,,,,,,None,None,None,,None,None,554.5467978690285,None,1,1,0.8196052159764804,554.5467978690285,None,555.3616415021418,None,None,None,None,,39,001,2023_Jan_30_1619,searchDisc5,2021.2.3,59.982136604128335,
images/exp2c_trial_258_colour1_distractors9_r.png,r,3,1,9,0,,,,,0,222,222,222,,,,,,,,,,,,,,,,,,,,,,,,,,,,,,,,,,,,,,,,,,,555.3776815040037,None,2,0.5556830890127458,555.3776815040037,None,,,,,,,,,,,,,,,,None,None,None,,None,None,555.9797491620411,None,3,1,0.6022088909521699,555.9797491620411,None,556.5793665711128,None,None,None,None,,39,001,2023_Jan_30_1619,searchDisc5,2021.2.3,59.982136604128335,
images/exp2b_trial_42_colour3_distractors1_r.png,r,3,3,1,0,,,,,0,223,223,223,,,,,,,,,,,,,,,,,,,,,,,,,,,,,,,,,,,,,,,,,,,556.5952909670305,None,2,0.5377835529507138,556.5952909670305,None,,,,,,,,,,,,,,,,None,None,None,,None,None,557.1802889130195,None,3,1,0.5378924660035409,557.1802889130195,None,557.7115511131299,None,None,None,None,,39,001,2023_Jan_30_1619,searchDisc5,2021.2.3,59.982136604128335,
images/exp2b_trial_229_colour2_distractors1_r.png,r,3,2,1,0,,,,,0,224,224,224,,,,,,,,,,,,,,,,,,,,,,,,,,,,,,,,,,,,,,,,,,,557.7282411600463,None,2,0.5406618289998733,557.7282411600463,None,,,,,,,,,,,,,,,,None,None,None,,None,None,558.3124883880373,None,3,1,0.5532454560161568,558.3124883880373,None,558.8616583941214,None,None,None,None,,39,001,2023_Jan_30_1619,searchDisc5,2021.2.3,59.982136604128335,
