ImageFile,targ_side,correctAnswer,colour,distNo,targetType,trials_2.thisRepN,trials_2.thisTrialN,trials_2.thisN,trials_2.thisIndex,trials.thisRepN,trials.thisTrialN,trials.thisN,trials.thisIndex,text_6.started,text_6.stopped,buttonBox.keys,buttonBox.rt,buttonBox.started,buttonBox.stopped,text_7.started,text_7.stopped,buttonBox_3.keys,buttonBox_3.rt,buttonBox_3.started,buttonBox_3.stopped,text_8.started,text_8.stopped,buttonBox_4.keys,buttonBox_4.rt,buttonBox_4.started,buttonBox_4.stopped,text_9.started,text_9.stopped,buttonBox_5.keys,buttonBox_5.rt,buttonBox_5.started,buttonBox_5.stopped,text_2.started,text_2.stopped,buttonBox_6.keys,buttonBox_6.rt,buttonBox_6.started,buttonBox_6.stopped,text_5.started,text_5.stopped,buttonBox_7.keys,buttonBox_7.rt,image_2.started,image_2.stopped,image_3.started,image_3.stopped,buttonBox_8.keys,buttonBox_8.rt,buttonBox_8.started,buttonBox_8.stopped,polygon.started,polygon.stopped,buttonBox_9.keys,buttonBox_9.rt,buttonBox_9.started,buttonBox_9.stopped,image.started,image.stopped,buttonBox_10.keys,buttonBox_10.corr,buttonBox_10.rt,buttonBox_10.started,buttonBox_10.stopped,text_4.started,text_4.stopped,text.started,text.stopped,buttonBox_11.keys,buttonBox_11.rt,buttonBox_11.started,buttonBox_11.stopped,targetTypeInstruction.started,targetTypeInstruction.stopped,buttonBox_2.keys,buttonBox_2.rt,buttonBox_2.started,buttonBox_2.stopped,dispStimuli.started,dispStimuli.stopped,buttonBox_12.keys,buttonBox_12.corr,buttonBox_12.rt,buttonBox_12.started,buttonBox_12.stopped,breakMessage.started,breakMessage.stopped,buttonBox_13.keys,buttonBox_13.started,buttonBox_13.stopped,buttonBox_13.rt,participant,session,date,expName,psychopyVersion,frameRate,
,,,,,,,,,,,,,,67.88785315697896,None,2,32.828102181025315,67.88785315697896,None,,,,,,,,,,,,,,,,,,,,,,,,,,,,,,,,,,,,,,,,,,,,,,,,,,,,,,,,,,,,,,,,,,,,,,,,,,,,,3,001,2023_Jan_18_1051,searchDisc5,2021.2.3,60.01114358134974,
,,,,,,,,,,,,,,,,,,,,100.70558215799974,None,2,36.69471381700714,100.70558215799974,None,,,,,,,,,,,,,,,,,,,,,,,,,,,,,,,,,,,,,,,,,,,,,,,,,,,,,,,,,,,,,,,,,,,,,,,3,001,2023_Jan_18_1051,searchDisc5,2021.2.3,60.01114358134974,
,,,,,,,,,,,,,,,,,,,,,,,,,,137.40443608898204,None,2,18.797838322992902,137.40443608898204,None,,,,,,,,,,,,,,,,,,,,,,,,,,,,,,,,,,,,,,,,,,,,,,,,,,,,,,,,,,,,,,,,,3,001,2023_Jan_18_1051,searchDisc5,2021.2.3,60.01114358134974,
,,,,,,,,,,,,,,,,,,,,,,,,,,,,,,,,156.20499851100612,None,2,10.514873312989948,156.20499851100612,None,,,,,,,,,,,,,,,,,,,,,,,,,,,,,,,,,,,,,,,,,,,,,,,,,,,,,,,,,,,3,001,2023_Jan_18_1051,searchDisc5,2021.2.3,60.01114358134974,
,,,,,,,,,,,,,,,,,,,,,,,,,,,,,,,,,,,,,,166.72391488499125,None,2,8.798212594992947,167.70648322900524,None,,,,,,,,,,,,,,,,,,,,,,,,,,,,,,,,,,,,,,,,,,,,,,,,,,,,,3,001,2023_Jan_18_1051,searchDisc5,2021.2.3,60.01114358134974,
,,,,,,,,,,,,,,,,,,,,,,,,,,,,,,,,,,,,,,,,,,,,176.50538877700455,None,2,12.598271114984527,,,,,,,,,,,,,,,,,,,,,,,,,,,,,,,,,,,,,,,,,,,,,,,,,3,001,2023_Jan_18_1051,searchDisc5,2021.2.3,60.01114358134974,
,,,,,,,,,,,,,,,,,,,,,,,,,,,,,,,,,,,,,,,,,,,,,,,,192.1058026259998,None,192.1058026259998,None,2,5.949775133980438,192.1058026259998,None,,,,,,,,,,,,,,,,,,,,,,,,,,,,,,,,,,,,,,,,,3,001,2023_Jan_18_1051,searchDisc5,2021.2.3,60.01114358134974,
Practice arrays/exp1a_trial_18_colour1_distractors19_l.png,l,1,,,,0,0,0,8,,,,,,,,,,,,,,,,,,,,,,,,,,,,,,,,,,,,,,,,,,,,,,,198.09158567199484,None,2,27.47009864199208,198.09158567199484,None,225.6112141420017,None,1,1,3.3847458829986863,225.6112141420017,None,228.98952202798682,None,,,,,,,,,,,,,,,,,,,,,,,,,,3,001,2023_Jan_18_1051,searchDisc5,2021.2.3,60.01114358134974,
Practice arrays/exp1a_trial_8_colour2_distractors19_r.png,r,3,,,,0,1,1,3,,,,,,,,,,,,,,,,,,,,,,,,,,,,,,,,,,,,,,,,,,,,,,,230.99243135098368,None,2,1.4493330850091297,230.99243135098368,None,232.49260818300536,None,3,1,0.7659896969853435,232.49260818300536,None,233.25693699799012,None,,,,,,,,,,,,,,,,,,,,,,,,,,3,001,2023_Jan_18_1051,searchDisc5,2021.2.3,60.01114358134974,
Practice arrays/exp1a_trial_1_colour1_distractors4_r.png,r,3,,,,0,2,2,1,,,,,,,,,,,,,,,,,,,,,,,,,,,,,,,,,,,,,,,,,,,,,,,235.25898496698937,None,2,0.8990474639867898,235.25898496698937,None,236.2074551229889,None,3,1,1.0361978529836051,236.2074551229889,None,237.24037606900674,None,,,,,,,,,,,,,,,,,,,,,,,,,,3,001,2023_Jan_18_1051,searchDisc5,2021.2.3,60.01114358134974,
Practice arrays/exp1a_trial_31_colour0_distractors0_l.png,l,1,,,,0,3,3,15,,,,,,,,,,,,,,,,,,,,,,,,,,,,,,,,,,,,,,,,,,,,,,,239.242206394003,None,2,0.7629372259834781,239.242206394003,None,240.05733494798187,None,1,1,0.5253522960119881,240.05733494798187,None,240.57380999199813,None,,,,,,,,,,,,,,,,,,,,,,,,,,3,001,2023_Jan_18_1051,searchDisc5,2021.2.3,60.01114358134974,
Practice arrays/exp1a_trial_25_colour3_distractors1_l.png,l,1,,,,0,4,4,11,,,,,,,,,,,,,,,,,,,,,,,,,,,,,,,,,,,,,,,,,,,,,,,242.57600323698716,None,2,0.8140209070115816,242.57600323698716,None,243.44061223597964,None,1,1,1.1396401780075394,243.44061223597964,None,244.57402289498714,None,,,,,,,,,,,,,,,,,,,,,,,,,,3,001,2023_Jan_18_1051,searchDisc5,2021.2.3,60.01114358134974,
Practice arrays/exp1a_trial_27_colour3_distractors9_l.png,l,1,,,,0,5,5,12,,,,,,,,,,,,,,,,,,,,,,,,,,,,,,,,,,,,,,,,,,,,,,,246.57611396498396,None,2,0.8477839749830309,246.57611396498396,None,247.4763559869898,None,1,1,0.8855215969961137,247.4763559869898,None,248.35749066399876,None,,,,,,,,,,,,,,,,,,,,,,,,,,3,001,2023_Jan_18_1051,searchDisc5,2021.2.3,60.01114358134974,
Practice arrays/exp1a_trial_17_colour1_distractors9_l.png,l,1,,,,0,6,6,7,,,,,,,,,,,,,,,,,,,,,,,,,,,,,,,,,,,,,,,,,,,,,,,250.3593520479917,None,2,0.6137118549959268,250.3593520479917,None,251.02412467598333,None,1,1,1.0348055200011004,251.02412467598333,None,252.0574423049984,None,,,,,,,,,,,,,,,,,,,,,,,,,,3,001,2023_Jan_18_1051,searchDisc5,2021.2.3,60.01114358134974,
Practice arrays/exp1a_trial_30_colour0_distractors0_r.png,r,3,,,,0,7,7,14,,,,,,,,,,,,,,,,,,,,,,,,,,,,,,,,,,,,,,,,,,,,,,,254.05924721100018,None,2,0.43199850601376966,254.05924721100018,None,254.54115539300255,None,3,1,0.7543782100256067,254.54115539300255,None,255.2912185949972,None,,,,,,,,,,,,,,,,,,,,,,,,,,3,001,2023_Jan_18_1051,searchDisc5,2021.2.3,60.01114358134974,
Practice arrays/exp1a_trial_10_colour3_distractors1_r.png,r,3,,,,0,8,8,4,,,,,,,,,,,,,,,,,,,,,,,,,,,,,,,,,,,,,,,,,,,,,,,257.2930481749936,None,2,0.6305686139967293,257.2930481749936,None,257.9742401679978,None,3,1,0.739722467988031,257.9742401679978,None,258.70705010698293,None,,,,,,,,,,,,,,,,,,,,,,,,,,3,001,2023_Jan_18_1051,searchDisc5,2021.2.3,60.01114358134974,
Practice arrays/exp1a_trial_16_colour1_distractors4_l.png,l,1,,,,0,9,9,13,,,,,,,,,,,,,,,,,,,,,,,,,,,,,,,,,,,,,,,,,,,,,,,260.7095374719938,None,2,0.4803381839883514,260.7095374719938,None,261.243401344982,None,1,1,0.905107044003671,261.243401344982,None,262.1412156459992,None,,,,,,,,,,,,,,,,,,,,,,,,,,3,001,2023_Jan_18_1051,searchDisc5,2021.2.3,60.01114358134974,
Practice arrays/exp1a_trial_14_colour3_distractors31_r.png,r,3,,,,0,10,10,6,,,,,,,,,,,,,,,,,,,,,,,,,,,,,,,,,,,,,,,,,,,,,,,264.14285516997916,None,2,0.5137591590173542,264.14285516997916,None,264.7101095299877,None,3,1,0.6849672670068685,264.7101095299877,None,265.3913689479814,None,,,,,,,,,,,,,,,,,,,,,,,,,,3,001,2023_Jan_18_1051,searchDisc5,2021.2.3,60.01114358134974,
Practice arrays/exp1a_trial_21_colour2_distractors4_l.png,l,1,,,,0,11,11,9,,,,,,,,,,,,,,,,,,,,,,,,,,,,,,,,,,,,,,,,,,,,,,,267.393276666,None,2,0.5658248150139116,267.393276666,None,268.00771882999106,None,1,1,0.9515012550109532,268.00771882999106,None,268.9579568610061,None,,,,,,,,,,,,,,,,,,,,,,,,,,3,001,2023_Jan_18_1051,searchDisc5,2021.2.3,60.01114358134974,
Practice arrays/exp1a_trial_23_colour2_distractors19_l.png,l,1,,,,0,12,12,10,,,,,,,,,,,,,,,,,,,,,,,,,,,,,,,,,,,,,,,,,,,,,,,270.9600699500006,None,2,2.4494544090121053,270.9600699500006,None,273.4575833309791,None,1,1,0.6988417440152261,273.4575833309791,None,274.15809777600225,None,,,,,,,,,,,,,,,,,,,,,,,,,,3,001,2023_Jan_18_1051,searchDisc5,2021.2.3,60.01114358134974,
Practice arrays/exp1a_trial_7_colour2_distractors9_r.png,r,3,,,,0,13,13,2,,,,,,,,,,,,,,,,,,,,,,,,,,,,,,,,,,,,,,,,,,,,,,,276.1603190540045,None,2,0.4638815619982779,276.1603190540045,None,276.675042805,None,3,1,0.637124082975788,276.675042805,None,277.30819887298276,None,,,,,,,,,,,,,,,,,,,,,,,,,,3,001,2023_Jan_18_1051,searchDisc5,2021.2.3,60.01114358134974,
Practice arrays/exp1a_trial_12_colour3_distractors9_r.png,r,3,,,,0,14,14,5,,,,,,,,,,,,,,,,,,,,,,,,,,,,,,,,,,,,,,,,,,,,,,,279.3104247220035,None,2,0.5475902980251703,279.3104247220035,None,279.90871969098225,None,3,1,0.5871459820191376,279.90871969098225,None,280.49170047199004,None,,,,,,,,,,,,,,,,,,,,,,,,,,3,001,2023_Jan_18_1051,searchDisc5,2021.2.3,60.01114358134974,
Practice arrays/exp1a_trial_0_colour1_distractors1_r.png,r,3,,,,0,15,15,0,,,,,,,,,,,,,,,,,,,,,,,,,,,,,,,,,,,,,,,,,,,,,,,282.493422214,None,2,0.4320915210118983,282.493422214,None,282.97519510399434,None,1,0,0.5558663010015152,282.97519510399434,None,283.5246177520021,None,,,,,,,,,,,,,,,,,,,,,,,,,,3,001,2023_Jan_18_1051,searchDisc5,2021.2.3,60.01114358134974,
,,,,,,,,,,,,,,,,,,,,,,,,,,,,,,,,,,,,,,,,,,,,,,,,,,,,,,,,,,,,,,,,,,,,,,,285.61047881798004,None,2,6.098264202999417,286.5773260020069,None,,,,,,,,,,,,,,,,,,,,3,001,2023_Jan_18_1051,searchDisc5,2021.2.3,60.01114358134974,
images/exp2a_trial_187_colour3_distractors9_l.png,l,1,3,9,0,,,,,0,0,0,0,,,,,,,,,,,,,,,,,,,,,,,,,,,,,,,,,,,,,,,,,,,303.5084705610061,None,2,2.0122484839812387,303.5084705610061,None,,,,,,,,,,,,,,,,293.26076532900333,None,2,8.266942960995948,295.2440329520032,None,305.5760420069855,None,1,1,0.6630920649913605,305.5760420069855,None,306.25943062998704,None,None,None,None,,3,001,2023_Jan_18_1051,searchDisc5,2021.2.3,60.01114358134974,
images/exp1a_trial_313_colour3_distractors1_l.png,l,1,3,1,0,,,,,0,1,1,1,,,,,,,,,,,,,,,,,,,,,,,,,,,,,,,,,,,,,,,,,,,306.27532830499695,None,2,1.2720524489996023,306.27532830499695,None,,,,,,,,,,,,,,,,None,None,None,,None,None,307.59393852498033,None,1,1,0.5540107669949066,307.59393852498033,None,308.1425952564896,None,None,None,None,,3,001,2023_Jan_18_1051,searchDisc5,2021.2.3,60.01114358134974,
images/exp2b_trial_54_colour2_distractors9_l.png,l,1,2,9,0,,,,,0,2,2,2,,,,,,,,,,,,,,,,,,,,,,,,,,,,,,,,,,,,,,,,,,,308.1587107969972,None,2,0.886706833000062,308.1587107969972,None,,,,,,,,,,,,,,,,None,None,None,,None,None,309.09245069199824,None,1,1,0.6716846459894441,309.09245069199824,None,309.7588113644888,None,None,None,None,,3,001,2023_Jan_18_1051,searchDisc5,2021.2.3,60.01114358134974,
images/exp2a_trial_102_colour2_distractors4_r.png,r,3,2,4,0,,,,,0,3,3,3,,,,,,,,,,,,,,,,,,,,,,,,,,,,,,,,,,,,,,,,,,,309.77586037499714,None,2,0.5703507309954148,309.77586037499714,None,,,,,,,,,,,,,,,,None,None,None,,None,None,310.3950341019954,None,3,1,0.7725507550057955,310.3950341019954,None,311.1591129985027,None,None,None,None,,3,001,2023_Jan_18_1051,searchDisc5,2021.2.3,60.01114358134974,
images/exp2c_trial_152_colour2_distractors31_l.png,l,1,2,31,0,,,,,0,4,4,4,,,,,,,,,,,,,,,,,,,,,,,,,,,,,,,,,,,,,,,,,,,311.17720913898665,None,2,0.5858741019910667,311.17720913898665,None,,,,,,,,,,,,,,,,None,None,None,,None,None,311.80885699598,None,1,1,0.684636448015226,311.80885699598,None,312.49245190450165,None,None,None,None,,3,001,2023_Jan_18_1051,searchDisc5,2021.2.3,60.01114358134974,
images/exp2a_trial_27_colour3_distractors9_l.png,l,1,3,9,0,,,,,0,5,5,5,,,,,,,,,,,,,,,,,,,,,,,,,,,,,,,,,,,,,,,,,,,312.5103034680069,None,2,0.4871717819769401,312.5103034680069,None,,,,,,,,,,,,,,,,None,None,None,,None,None,313.04422854000586,None,1,1,0.6526730570185464,313.04422854000586,None,313.69264475149976,None,None,None,None,,3,001,2023_Jan_18_1051,searchDisc5,2021.2.3,60.01114358134974,
images/exp2a_trial_136_colour2_distractors19_r.png,r,3,2,19,0,,,,,0,6,6,6,,,,,,,,,,,,,,,,,,,,,,,,,,,,,,,,,,,,,,,,,,,313.70865730100195,None,2,0.48782540298998356,313.70865730100195,None,,,,,,,,,,,,,,,,None,None,None,,None,None,314.24267446799786,None,3,1,0.7651356749993283,314.24267446799786,None,315.0092498104932,None,None,None,None,,3,001,2023_Jan_18_1051,searchDisc5,2021.2.3,60.01114358134974,
images/exp2c_trial_55_colour2_distractors19_l.png,l,1,2,19,0,,,,,0,7,7,7,,,,,,,,,,,,,,,,,,,,,,,,,,,,,,,,,,,,,,,,,,,315.02565266098827,None,2,0.5055096769938245,315.02565266098827,None,,,,,,,,,,,,,,,,None,None,None,,None,None,315.576073521981,None,1,1,0.6360360010003205,315.576073521981,None,316.209204332481,None,None,None,None,,3,001,2023_Jan_18_1051,searchDisc5,2021.2.3,60.01114358134974,
images/exp2a_trial_318_colour0_distractors0_r.png,r,3,0,0,0,,,,,0,8,8,8,,,,,,,,,,,,,,,,,,,,,,,,,,,,,,,,,,,,,,,,,,,316.22606030400493,None,2,0.603799014003016,316.22606030400493,None,,,,,,,,,,,,,,,,None,None,None,,None,None,316.8780256979808,None,3,1,0.6585098970099352,316.8780256979808,None,317.52607144949434,None,None,None,None,,3,001,2023_Jan_18_1051,searchDisc5,2021.2.3,60.01114358134974,
images/exp2b_trial_173_colour3_distractors19_r.png,r,3,3,19,0,,,,,0,9,9,9,,,,,,,,,,,,,,,,,,,,,,,,,,,,,,,,,,,,,,,,,,,317.54250469699036,None,2,0.6053573040117044,317.54250469699036,None,,,,,,,,,,,,,,,,None,None,None,,None,None,318.19482233098825,None,3,1,0.6825833540060557,318.19482233098825,None,318.8759560125036,None,None,None,None,,3,001,2023_Jan_18_1051,searchDisc5,2021.2.3,60.01114358134974,
images/exp2c_trial_116_colour2_distractors1_l.png,l,1,2,1,0,,,,,0,10,10,10,,,,,,,,,,,,,,,,,,,,,,,,,,,,,,,,,,,,,,,,,,,318.8944772289833,None,2,0.803662649996113,318.8944772289833,None,,,,,,,,,,,,,,,,None,None,None,,None,None,319.74238794198027,None,1,1,0.9566166400036309,319.74238794198027,None,320.6927296564827,None,None,None,None,,3,001,2023_Jan_18_1051,searchDisc5,2021.2.3,60.01114358134974,
images/exp1a_trial_53_colour2_distractors4_l.png,l,1,2,4,0,,,,,0,11,11,11,,,,,,,,,,,,,,,,,,,,,,,,,,,,,,,,,,,,,,,,,,,320.70884600799764,None,2,0.43780987602076493,320.70884600799764,None,,,,,,,,,,,,,,,,None,None,None,,None,None,321.19492490499397,None,1,1,0.654491330991732,321.19492490499397,None,321.84279901148693,None,None,None,None,,3,001,2023_Jan_18_1051,searchDisc5,2021.2.3,60.01114358134974,
images/exp2b_trial_283_colour3_distractors9_l.png,l,1,3,9,0,,,,,0,12,12,12,,,,,,,,,,,,,,,,,,,,,,,,,,,,,,,,,,,,,,,,,,,321.85933468700387,None,2,0.422825001005549,321.85933468700387,None,,,,,,,,,,,,,,,,None,None,None,,None,None,322.3281824659789,None,1,1,0.671988838003017,322.3281824659789,None,322.99273728950357,None,None,None,None,,3,001,2023_Jan_18_1051,searchDisc5,2021.2.3,60.01114358134974,
images/exp2c_trial_180_colour2_distractors1_l.png,l,1,2,1,0,,,,,0,13,13,13,,,,,,,,,,,,,,,,,,,,,,,,,,,,,,,,,,,,,,,,,,,323.0094479349791,None,2,0.3359523889957927,323.0094479349791,None,,,,,,,,,,,,,,,,None,None,None,,None,None,323.3931484360073,None,1,1,0.5731430489977356,323.3931484360073,None,323.959496715499,None,None,None,None,,3,001,2023_Jan_18_1051,searchDisc5,2021.2.3,60.01114358134974,
images/exp2b_trial_127_colour0_distractors0_l.png,l,1,0,0,0,,,,,0,14,14,14,,,,,,,,,,,,,,,,,,,,,,,,,,,,,,,,,,,,,,,,,,,323.9756667969923,None,2,0.3875117669813335,323.9756667969923,None,,,,,,,,,,,,,,,,None,None,None,,None,None,324.4114974209806,None,1,1,0.5253797009936534,324.4114974209806,None,324.9263453254971,None,None,None,None,,3,001,2023_Jan_18_1051,searchDisc5,2021.2.3,60.01114358134974,
images/exp2c_trial_142_colour3_distractors31_r.png,r,3,3,31,0,,,,,0,15,15,15,,,,,,,,,,,,,,,,,,,,,,,,,,,,,,,,,,,,,,,,,,,324.94234337698435,None,2,0.5545633970177732,324.94234337698435,None,,,,,,,,,,,,,,,,None,None,None,,None,None,325.5449717839947,None,3,1,1.084161487990059,325.5449717839947,None,326.62623948250257,None,None,None,None,,3,001,2023_Jan_18_1051,searchDisc5,2021.2.3,60.01114358134974,
images/exp2c_trial_29_colour3_distractors31_l.png,l,1,3,31,0,,,,,0,16,16,16,,,,,,,,,,,,,,,,,,,,,,,,,,,,,,,,,,,,,,,,,,,326.6422600049991,None,2,0.38938783601042815,326.6422600049991,None,,,,,,,,,,,,,,,,None,None,None,,None,None,327.078436996002,None,1,1,1.1025496769871097,327.078436996002,None,328.17650169749686,None,None,None,None,,3,001,2023_Jan_18_1051,searchDisc5,2021.2.3,60.01114358134974,
images/exp2c_trial_61_colour3_distractors31_l.png,l,1,3,31,0,,,,,0,17,17,17,,,,,,,,,,,,,,,,,,,,,,,,,,,,,,,,,,,,,,,,,,,328.1949430280074,None,2,0.6043311859830283,328.1949430280074,None,,,,,,,,,,,,,,,,None,None,None,,None,None,328.84304367000004,None,1,1,0.8028075539914425,328.84304367000004,None,329.64300059749803,None,None,None,None,,3,001,2023_Jan_18_1051,searchDisc5,2021.2.3,60.01114358134974,
images/exp1a_trial_268_colour3_distractors9_r.png,r,3,3,9,0,,,,,0,18,18,18,,,,,,,,,,,,,,,,,,,,,,,,,,,,,,,,,,,,,,,,,,,329.6591245419986,None,2,0.45413445599842817,329.6591245419986,None,,,,,,,,,,,,,,,,None,None,None,,None,None,330.15971591099515,None,3,1,0.6212493100028951,330.15971591099515,None,330.77645816448785,None,None,None,None,,3,001,2023_Jan_18_1051,searchDisc5,2021.2.3,60.01114358134974,
images/exp1a_trial_224_colour1_distractors1_r.png,r,3,1,1,0,,,,,0,19,19,19,,,,,,,,,,,,,,,,,,,,,,,,,,,,,,,,,,,,,,,,,,,330.7941991300031,None,2,0.5393084799870849,330.7941991300031,None,,,,,,,,,,,,,,,,None,None,None,,None,None,331.37842603898025,None,3,1,0.9362110960064456,331.37842603898025,None,332.30916535250435,None,None,None,None,,3,001,2023_Jan_18_1051,searchDisc5,2021.2.3,60.01114358134974,
images/exp2c_trial_212_colour2_distractors1_l.png,l,1,2,1,0,,,,,0,20,20,20,,,,,,,,,,,,,,,,,,,,,,,,,,,,,,,,,,,,,,,,,,,332.3283295669826,None,2,0.5572269120020792,332.3283295669826,None,,,,,,,,,,,,,,,,None,None,None,,None,None,332.9280119589821,None,1,1,0.6374026399862487,332.9280119589821,None,333.55994983347773,None,None,None,None,,3,001,2023_Jan_18_1051,searchDisc5,2021.2.3,60.01114358134974,
images/exp2c_trial_166_colour2_distractors4_r.png,r,3,2,4,0,,,,,0,21,21,21,,,,,,,,,,,,,,,,,,,,,,,,,,,,,,,,,,,,,,,,,,,333.5764478009951,None,2,0.4207309039775282,333.5764478009951,None,,,,,,,,,,,,,,,,None,None,None,,None,None,334.0453681749932,None,3,1,0.6883405300031882,334.0453681749932,None,334.72643273750145,None,None,None,None,,3,001,2023_Jan_18_1051,searchDisc5,2021.2.3,60.01114358134974,
images/exp2b_trial_8_colour2_distractors19_r.png,r,3,2,19,0,,,,,0,22,22,22,,,,,,,,,,,,,,,,,,,,,,,,,,,,,,,,,,,,,,,,,,,334.74497282897937,None,2,0.4876295760041103,334.74497282897937,None,,,,,,,,,,,,,,,,None,None,None,,None,None,335.2787042679847,None,3,1,0.6039551329740789,335.2787042679847,None,335.8769250674959,None,None,None,None,,3,001,2023_Jan_18_1051,searchDisc5,2021.2.3,60.01114358134974,
images/exp2a_trial_174_colour3_distractors31_r.png,r,3,3,31,0,,,,,0,23,23,23,,,,,,,,,,,,,,,,,,,,,,,,,,,,,,,,,,,,,,,,,,,335.895121042995,None,2,0.4875552710145712,335.895121042995,None,,,,,,,,,,,,,,,,None,None,None,,None,None,336.42889116800507,None,3,1,0.6193262379965745,336.42889116800507,None,337.04320133647707,None,None,None,None,,3,001,2023_Jan_18_1051,searchDisc5,2021.2.3,60.01114358134974,
images/exp1a_trial_267_colour3_distractors4_r.png,r,3,3,4,0,,,,,0,24,24,24,,,,,,,,,,,,,,,,,,,,,,,,,,,,,,,,,,,,,,,,,,,337.05980241598445,None,2,0.48997268700622953,337.05980241598445,None,,,,,,,,,,,,,,,,None,None,None,,None,None,337.59268780399,None,3,1,0.5674476729764137,337.59268780399,None,338.1598999164853,None,None,None,None,,3,001,2023_Jan_18_1051,searchDisc5,2021.2.3,60.01114358134974,
images/exp2c_trial_280_colour2_distractors31_l.png,l,1,2,31,0,,,,,0,25,25,25,,,,,,,,,,,,,,,,,,,,,,,,,,,,,,,,,,,,,,,,,,,338.17637096199905,None,2,0.589518461987609,338.17637096199905,None,,,,,,,,,,,,,,,,None,None,None,,None,None,338.812079522002,None,1,1,0.7861731390003115,338.812079522002,None,339.59350610848924,None,None,None,None,,3,001,2023_Jan_18_1051,searchDisc5,2021.2.3,60.01114358134974,
images/exp2b_trial_245_colour2_distractors4_l.png,l,1,2,4,0,,,,,0,26,26,26,,,,,,,,,,,,,,,,,,,,,,,,,,,,,,,,,,,,,,,,,,,339.6097138649784,None,2,0.385941232991172,339.6097138649784,None,,,,,,,,,,,,,,,,None,None,None,,None,None,340.0431946259923,None,1,1,0.6555511839978863,340.0431946259923,None,340.69346908248554,None,None,None,None,,3,001,2023_Jan_18_1051,searchDisc5,2021.2.3,60.01114358134974,
images/exp2a_trial_229_colour2_distractors1_r.png,r,3,2,1,0,,,,,0,27,27,27,,,,,,,,,,,,,,,,,,,,,,,,,,,,,,,,,,,,,,,,,,,340.70988574199146,None,2,0.38764129698392935,340.70988574199146,None,,,,,,,,,,,,,,,,None,None,None,,None,None,341.1449919169827,None,3,1,0.5897732299927156,341.1449919169827,None,341.72682200848067,None,None,None,None,,3,001,2023_Jan_18_1051,searchDisc5,2021.2.3,60.01114358134974,
images/exp2a_trial_69_colour2_distractors1_r.png,r,3,2,1,0,,,,,0,28,28,28,,,,,,,,,,,,,,,,,,,,,,,,,,,,,,,,,,,,,,,,,,,341.74320460497984,None,2,0.4063556619803421,341.74320460497984,None,,,,,,,,,,,,,,,,None,None,None,,None,None,342.19531726598507,None,3,1,0.6041750309814233,342.19531726598507,None,342.7934623554902,None,None,None,None,,3,001,2023_Jan_18_1051,searchDisc5,2021.2.3,60.01114358134974,
images/exp2a_trial_149_colour2_distractors4_l.png,l,1,2,4,0,,,,,0,29,29,29,,,,,,,,,,,,,,,,,,,,,,,,,,,,,,,,,,,,,,,,,,,342.81215060598333,None,2,0.5885831810010131,342.81215060598333,None,,,,,,,,,,,,,,,,None,None,None,,None,None,343.44344660200295,None,1,1,0.6539540360099636,343.44344660200295,None,344.0934423964791,None,None,None,None,,3,001,2023_Jan_18_1051,searchDisc5,2021.2.3,60.01114358134974,
images/exp1a_trial_60_colour3_distractors19_l.png,l,1,3,19,0,,,,,0,30,30,30,,,,,,,,,,,,,,,,,,,,,,,,,,,,,,,,,,,,,,,,,,,344.1098202150024,None,2,0.35347573200124316,344.1098202150024,None,,,,,,,,,,,,,,,,None,None,None,,None,None,344.5101901299786,None,1,1,0.7020465090172365,344.5101901299786,None,345.2101899644913,None,None,None,None,,3,001,2023_Jan_18_1051,searchDisc5,2021.2.3,60.01114358134974,
images/exp2c_trial_182_colour2_distractors9_l.png,l,1,2,9,0,,,,,0,31,31,31,,,,,,,,,,,,,,,,,,,,,,,,,,,,,,,,,,,,,,,,,,,345.2290003699891,None,2,0.37316970800748095,345.2290003699891,None,,,,,,,,,,,,,,,,None,None,None,,None,None,345.64564796799095,None,1,1,0.5857164109766018,345.64564796799095,None,346.2261332914786,None,None,None,None,,3,001,2023_Jan_18_1051,searchDisc5,2021.2.3,60.01114358134974,
images/exp1a_trial_297_colour2_distractors31_r.png,r,3,2,31,0,,,,,0,32,32,32,,,,,,,,,,,,,,,,,,,,,,,,,,,,,,,,,,,,,,,,,,,346.2432377199875,None,2,0.3551627419947181,346.2432377199875,None,,,,,,,,,,,,,,,,None,None,None,,None,None,346.64556069200626,None,3,1,0.6505625910067465,346.64556069200626,None,347.29359034750087,None,None,None,None,,3,001,2023_Jan_18_1051,searchDisc5,2021.2.3,60.01114358134974,
images/exp1a_trial_24_colour2_distractors31_l.png,l,1,2,31,0,,,,,0,33,33,33,,,,,,,,,,,,,,,,,,,,,,,,,,,,,,,,,,,,,,,,,,,347.310228457005,None,2,0.48736957600340247,347.310228457005,None,,,,,,,,,,,,,,,,None,None,None,,None,None,347.8456133540021,None,1,1,0.6501227050030138,347.8456133540021,None,348.4936535014858,None,None,None,None,,3,001,2023_Jan_18_1051,searchDisc5,2021.2.3,60.01114358134974,
images/exp1a_trial_311_colour2_distractors19_l.png,l,1,2,19,0,,,,,0,34,34,34,,,,,,,,,,,,,,,,,,,,,,,,,,,,,,,,,,,,,,,,,,,348.51005570898997,None,2,0.38764992900541984,348.51005570898997,None,,,,,,,,,,,,,,,,None,None,None,,None,None,348.9456221550063,None,1,1,0.6018315230030566,348.9456221550063,None,349.54346050349704,None,None,None,None,,3,001,2023_Jan_18_1051,searchDisc5,2021.2.3,60.01114358134974,
images/exp2b_trial_65_colour1_distractors4_r.png,r,3,1,4,0,,,,,0,35,35,35,,,,,,,,,,,,,,,,,,,,,,,,,,,,,,,,,,,,,,,,,,,349.56210428499617,None,2,0.39003058400703594,349.56210428499617,None,,,,,,,,,,,,,,,,None,None,None,,None,None,349.9952372520056,None,3,1,0.6705824449891225,349.9952372520056,None,350.66057437048585,None,None,None,None,,3,001,2023_Jan_18_1051,searchDisc5,2021.2.3,60.01114358134974,
images/exp1a_trial_266_colour3_distractors1_r.png,r,3,3,1,0,,,,,0,36,36,36,,,,,,,,,,,,,,,,,,,,,,,,,,,,,,,,,,,,,,,,,,,350.67655595298856,None,2,0.38741394100361504,350.67655595298856,None,,,,,,,,,,,,,,,,None,None,None,,None,None,351.1123054350028,None,3,1,0.5896387730026618,351.1123054350028,None,351.6939017565019,None,None,None,None,,3,001,2023_Jan_18_1051,searchDisc5,2021.2.3,60.01114358134974,
images/exp2a_trial_312_colour2_distractors31_l.png,l,1,2,31,0,,,,,0,37,37,37,,,,,,,,,,,,,,,,,,,,,,,,,,,,,,,,,,,,,,,,,,,351.7101454179792,None,2,0.37070228400989436,351.7101454179792,None,,,,,,,,,,,,,,,,None,None,None,,None,None,352.1304528079927,None,1,1,0.7462905430002138,352.1304528079927,None,352.8769556865009,None,None,None,None,,3,001,2023_Jan_18_1051,searchDisc5,2021.2.3,60.01114358134974,
images/exp1a_trial_195_colour1_distractors19_r.png,r,3,1,19,0,,,,,0,38,38,38,,,,,,,,,,,,,,,,,,,,,,,,,,,,,,,,,,,,,,,,,,,352.8935229619965,None,2,0.3046357419807464,352.8935229619965,None,,,,,,,,,,,,,,,,None,None,None,,None,None,353.2439116409805,None,3,1,1.020067322999239,353.2439116409805,None,354.2606318654871,None,None,None,None,,3,001,2023_Jan_18_1051,searchDisc5,2021.2.3,60.01114358134974,
images/exp2a_trial_190_colour0_distractors0_r.png,r,3,0,0,0,,,,,0,39,39,39,,,,,,,,,,,,,,,,,,,,,,,,,,,,,,,,,,,,,,,,,,,354.2763075649855,None,2,0.369224422989646,354.2763075649855,None,,,,,,,,,,,,,,,,None,None,None,,None,None,354.69588547598687,None,3,1,0.574461139010964,354.69588547598687,None,355.2604567604867,None,None,None,None,,3,001,2023_Jan_18_1051,searchDisc5,2021.2.3,60.01114358134974,
images/exp2c_trial_221_colour3_distractors31_l.png,l,1,3,31,0,,,,,0,40,40,40,,,,,,,,,,,,,,,,,,,,,,,,,,,,,,,,,,,,,,,,,,,355.27616739898804,None,2,0.43824888797826134,355.27616739898804,None,,,,,,,,,,,,,,,,None,None,None,,None,None,355.76284737398964,None,1,1,0.7527074060053565,355.76284737398964,None,356.51044766149425,None,None,None,None,,3,001,2023_Jan_18_1051,searchDisc5,2021.2.3,60.01114358134974,
images/exp2c_trial_71_colour2_distractors9_r.png,r,3,2,9,0,,,,,0,41,41,41,,,,,,,,,,,,,,,,,,,,,,,,,,,,,,,,,,,,,,,,,,,356.52629783100565,None,2,0.33741035001003183,356.52629783100565,None,,,,,,,,,,,,,,,,None,None,None,,None,None,356.91046447498957,None,3,1,1.0373301699873991,356.91046447498957,None,357.9437982564996,None,None,None,None,,3,001,2023_Jan_18_1051,searchDisc5,2021.2.3,60.01114358134974,
images/exp2b_trial_33_colour1_distractors4_r.png,r,3,1,4,0,,,,,0,42,42,42,,,,,,,,,,,,,,,,,,,,,,,,,,,,,,,,,,,,,,,,,,,357.9603253020032,None,2,0.48771689701243304,357.9603253020032,None,,,,,,,,,,,,,,,,None,None,None,,None,None,358.49350143098854,None,3,1,0.5702665380085818,358.49350143098854,None,359.06053838047956,None,None,None,None,,3,001,2023_Jan_18_1051,searchDisc5,2021.2.3,60.01114358134974,
images/exp1a_trial_49_colour1_distractors9_l.png,l,1,1,9,0,,,,,0,43,43,43,,,,,,,,,,,,,,,,,,,,,,,,,,,,,,,,,,,,,,,,,,,359.0769309409952,None,2,0.4575479529739823,359.0769309409952,None,,,,,,,,,,,,,,,,None,None,None,,None,None,359.5766485159984,None,1,1,0.5175117629987653,359.5766485159984,None,360.09331665148784,None,None,None,None,,3,001,2023_Jan_18_1051,searchDisc5,2021.2.3,60.01114358134974,
images/exp2a_trial_3_colour1_distractors19_r.png,r,3,1,19,0,,,,,0,44,44,44,,,,,,,,,,,,,,,,,,,,,,,,,,,,,,,,,,,,,,,,,,,360.11075160998735,None,2,0.3550206499930937,360.11075160998735,None,,,,,,,,,,,,,,,,None,None,None,,None,None,360.51265279899235,None,3,1,0.7540367220062762,360.51265279899235,None,361.26060261747625,None,None,None,None,,3,001,2023_Jan_18_1051,searchDisc5,2021.2.3,60.01114358134974,
images/exp2c_trial_70_colour2_distractors4_r.png,r,3,2,4,0,,,,,0,45,45,45,,,,,,,,,,,,,,,,,,,,,,,,,,,,,,,,,,,,,,,,,,,361.2763620299811,None,2,0.3703345329849981,361.2763620299811,None,,,,,,,,,,,,,,,,None,None,None,,None,None,361.6956359659962,None,3,1,0.7899226199951954,361.6956359659962,None,362.47730532749847,None,None,None,None,,3,001,2023_Jan_18_1051,searchDisc5,2021.2.3,60.01114358134974,
images/exp2a_trial_301_colour3_distractors19_r.png,r,3,3,19,0,,,,,0,46,46,46,,,,,,,,,,,,,,,,,,,,,,,,,,,,,,,,,,,,,,,,,,,362.49380008800654,None,2,0.37127937001059763,362.49380008800654,None,,,,,,,,,,,,,,,,None,None,None,,None,None,362.91071550399647,None,3,1,0.6366403760039248,362.91071550399647,None,363.54394723549194,None,None,None,None,,3,001,2023_Jan_18_1051,searchDisc5,2021.2.3,60.01114358134974,
images/exp2c_trial_219_colour3_distractors9_l.png,l,1,3,9,0,,,,,0,47,47,47,,,,,,,,,,,,,,,,,,,,,,,,,,,,,,,,,,,,,,,,,,,363.5604059640027,None,2,0.404515640984755,363.5604059640027,None,,,,,,,,,,,,,,,,None,None,None,,None,None,364.0129823869793,None,1,1,0.9364356029836927,364.0129823869793,None,364.94427881047886,None,None,None,None,,3,001,2023_Jan_18_1051,searchDisc5,2021.2.3,60.01114358134974,
images/exp2a_trial_157_colour3_distractors31_l.png,l,1,3,31,0,,,,,0,48,48,48,,,,,,,,,,,,,,,,,,,,,,,,,,,,,,,,,,,,,,,,,,,364.96247655700427,None,2,0.30415821200585924,364.96247655700427,None,,,,,,,,,,,,,,,,None,None,None,,None,None,365.31079147799755,None,1,1,0.6360536619904451,365.31079147799755,None,365.943590213501,None,None,None,None,,3,001,2023_Jan_18_1051,searchDisc5,2021.2.3,60.01114358134974,
images/exp2c_trial_143_colour1_distractors1_l.png,l,1,1,1,0,,,,,0,49,49,49,,,,,,,,,,,,,,,,,,,,,,,,,,,,,,,,,,,,,,,,,,,365.9599308719917,None,2,0.33826525299809873,365.9599308719917,None,,,,,,,,,,,,,,,,None,None,None,,None,None,366.3439690840023,None,1,1,0.6561644329922274,366.3439690840023,None,366.9940179744881,None,None,None,None,,3,001,2023_Jan_18_1051,searchDisc5,2021.2.3,60.01114358134974,
images/exp2b_trial_241_colour1_distractors9_l.png,l,1,1,9,0,,,,,0,50,50,50,,,,,,,,,,,,,,,,,,,,,,,,,,,,,,,,,,,,,,,,,,,367.0126249640016,None,2,0.3898216189991217,367.0126249640016,None,,,,,,,,,,,,,,,,None,None,None,,None,None,367.446162156004,None,1,1,0.6521361420163885,367.446162156004,None,368.09386616649863,None,None,None,None,,3,001,2023_Jan_18_1051,searchDisc5,2021.2.3,60.01114358134974,
images/exp2b_trial_10_colour3_distractors1_r.png,r,3,3,1,0,,,,,0,51,51,51,,,,,,,,,,,,,,,,,,,,,,,,,,,,,,,,,,,,,,,,,,,368.11062239599414,None,2,0.354748566984199,368.11062239599414,None,,,,,,,,,,,,,,,,None,None,None,,None,None,368.5127617099788,None,3,1,0.5747970349912066,368.5127617099788,None,369.07742697048525,None,None,None,None,,3,001,2023_Jan_18_1051,searchDisc5,2021.2.3,60.01114358134974,
images/exp2c_trial_69_colour2_distractors1_r.png,r,3,2,1,0,,,,,0,52,52,52,,,,,,,,,,,,,,,,,,,,,,,,,,,,,,,,,,,,,,,,,,,369.0936835159955,None,2,0.3859202330058906,369.0936835159955,None,,,,,,,,,,,,,,,,None,None,None,,None,None,369.5294991970004,None,3,1,0.5893810319830664,369.5294991970004,None,370.1107364435011,None,None,None,None,,3,001,2023_Jan_18_1051,searchDisc5,2021.2.3,60.01114358134974,
images/exp2a_trial_212_colour2_distractors1_l.png,l,1,2,1,0,,,,,0,53,53,53,,,,,,,,,,,,,,,,,,,,,,,,,,,,,,,,,,,,,,,,,,,370.1272999639914,None,2,0.40588158898754045,370.1272999639914,None,,,,,,,,,,,,,,,,None,None,None,,None,None,370.5794205929851,None,1,1,0.6056941639981233,370.5794205929851,None,371.1776998044952,None,None,None,None,,3,001,2023_Jan_18_1051,searchDisc5,2021.2.3,60.01114358134974,
images/exp2c_trial_38_colour2_distractors4_r.png,r,3,2,4,0,,,,,0,54,54,54,,,,,,,,,,,,,,,,,,,,,,,,,,,,,,,,,,,,,,,,,,,371.1960504039889,None,2,0.38823655000305735,371.1960504039889,None,,,,,,,,,,,,,,,,None,None,None,,None,None,371.62954256500234,None,3,1,1.0368778869742528,371.62954256500234,None,372.6607965805015,None,None,None,None,,3,001,2023_Jan_18_1051,searchDisc5,2021.2.3,60.01114358134974,
images/exp2a_trial_183_colour2_distractors19_l.png,l,1,2,19,0,,,,,0,55,55,55,,,,,,,,,,,,,,,,,,,,,,,,,,,,,,,,,,,,,,,,,,,372.67730872900574,None,2,0.37115561799146235,372.67730872900574,None,,,,,,,,,,,,,,,,None,None,None,,None,None,373.09443451900734,None,1,1,0.6655818530125543,373.09443451900734,None,373.76050693048455,None,None,None,None,,3,001,2023_Jan_18_1051,searchDisc5,2021.2.3,60.01114358134974,
images/exp1a_trial_7_colour2_distractors9_r.png,r,3,2,9,0,,,,,0,56,56,56,,,,,,,,,,,,,,,,,,,,,,,,,,,,,,,,,,,,,,,,,,,373.7773574180028,None,2,0.30494411298423074,373.7773574180028,None,,,,,,,,,,,,,,,,None,None,None,,None,None,374.12762659200234,None,3,1,0.6543400250084233,374.12762659200234,None,374.7776339114789,None,None,None,None,,3,001,2023_Jan_18_1051,searchDisc5,2021.2.3,60.01114358134974,
images/exp2b_trial_244_colour2_distractors1_l.png,l,1,2,1,0,,,,,0,57,57,57,,,,,,,,,,,,,,,,,,,,,,,,,,,,,,,,,,,,,,,,,,,374.79409244298586,None,2,0.4061019509972539,374.79409244298586,None,,,,,,,,,,,,,,,,None,None,None,,None,None,375.2459301069903,None,1,1,0.6704727490141522,375.2459301069903,None,375.9104493024788,None,None,None,None,,3,001,2023_Jan_18_1051,searchDisc5,2021.2.3,60.01114358134974,
images/exp2c_trial_129_colour1_distractors4_r.png,r,3,1,4,0,,,,,0,58,58,58,,,,,,,,,,,,,,,,,,,,,,,,,,,,,,,,,,,,,,,,,,,375.92785361700226,None,2,0.3559009569871705,375.92785361700226,None,,,,,,,,,,,,,,,,None,None,None,,None,None,376.32993072399404,None,3,1,0.7379709869856015,376.32993072399404,None,377.0610707724845,None,None,None,None,,3,001,2023_Jan_18_1051,searchDisc5,2021.2.3,60.01114358134974,
images/exp2a_trial_75_colour3_distractors4_r.png,r,3,3,4,0,,,,,0,59,59,59,,,,,,,,,,,,,,,,,,,,,,,,,,,,,,,,,,,,,,,,,,,377.07833796698833,None,2,0.3545607299893163,377.07833796698833,None,,,,,,,,,,,,,,,,None,None,None,,None,None,377.47987518899026,None,3,1,0.606835223006783,377.47987518899026,None,378.0788538034976,None,None,None,None,,3,001,2023_Jan_18_1051,searchDisc5,2021.2.3,60.01114358134974,
images/exp1a_trial_158_colour0_distractors0_r.png,r,3,0,0,0,,,,,0,60,60,60,,,,,,,,,,,,,,,,,,,,,,,,,,,,,,,,,,,,,,,,,,,378.0949422949925,None,2,0.35647097701439634,378.0949422949925,None,,,,,,,,,,,,,,,,None,None,None,,None,None,378.4944742679945,None,3,1,0.5034970600099768,378.4944742679945,None,378.99456736548746,None,None,None,None,,3,001,2023_Jan_18_1051,searchDisc5,2021.2.3,60.01114358134974,
images/exp2a_trial_206_colour3_distractors31_r.png,r,3,3,31,0,,,,,0,61,61,61,,,,,,,,,,,,,,,,,,,,,,,,,,,,,,,,,,,,,,,,,,,379.01157984900055,None,2,0.4402280670183245,379.01157984900055,None,,,,,,,,,,,,,,,,None,None,None,,None,None,379.4952832099807,None,3,1,0.5839167549856938,379.4952832099807,None,380.078173482485,None,None,None,None,,3,001,2023_Jan_18_1051,searchDisc5,2021.2.3,60.01114358134974,
images/exp2c_trial_65_colour1_distractors4_r.png,r,3,1,4,0,,,,,0,62,62,62,,,,,,,,,,,,,,,,,,,,,,,,,,,,,,,,,,,,,,,,,,,380.0952329459833,None,2,0.455398767022416,380.0952329459833,None,,,,,,,,,,,,,,,,None,None,None,,None,None,380.5945899449871,None,3,1,0.6211595569911879,380.5945899449871,None,381.2111708625016,None,None,None,None,,3,001,2023_Jan_18_1051,searchDisc5,2021.2.3,60.01114358134974,
images/exp2a_trial_140_colour3_distractors9_r.png,r,3,3,9,0,,,,,0,63,63,63,,,,,,,,,,,,,,,,,,,,,,,,,,,,,,,,,,,,,,,,,,,381.2283137879858,None,2,0.5887736770091578,381.2283137879858,None,,,,,,,,,,,,,,,,None,None,None,,None,None,381.8613225790032,None,3,1,0.6703537989815231,381.8613225790032,None,382.5277137474768,None,None,None,None,,3,001,2023_Jan_18_1051,searchDisc5,2021.2.3,60.01114358134974,
images/exp2c_trial_147_colour1_distractors31_l.png,l,1,1,31,0,,,,,0,64,64,64,,,,,,,,,,,,,,,,,,,,,,,,,,,,,,,,,,,,,,,,,,,382.54437134598265,None,2,0.5379172250104602,382.54437134598265,None,,,,,,,,,,,,,,,,None,None,None,,None,None,383.13096665000194,None,1,1,0.6516620560141746,383.13096665000194,None,383.7780167894816,None,None,None,None,,3,001,2023_Jan_18_1051,searchDisc5,2021.2.3,60.01114358134974,
images/exp2c_trial_56_colour2_distractors31_l.png,l,1,2,31,0,,,,,0,65,65,65,,,,,,,,,,,,,,,,,,,,,,,,,,,,,,,,,,,,,,,,,,,383.7939399809984,None,2,0.4541247880260926,383.7939399809984,None,,,,,,,,,,,,,,,,None,None,None,,None,None,384.2940849089937,None,1,1,0.6201966060034465,384.2940849089937,None,384.91147793749406,None,None,None,None,,3,001,2023_Jan_18_1051,searchDisc5,2021.2.3,60.01114358134974,
images/exp2b_trial_124_colour3_distractors19_l.png,l,1,3,19,0,,,,,0,66,66,66,,,,,,,,,,,,,,,,,,,,,,,,,,,,,,,,,,,,,,,,,,,384.9287635280052,None,2,0.4075064780190587,384.9287635280052,None,,,,,,,,,,,,,,,,None,None,None,,None,None,385.37861342699034,None,1,1,0.6195768949983176,385.37861342699034,None,385.9946445324895,None,None,None,None,,3,001,2023_Jan_18_1051,searchDisc5,2021.2.3,60.01114358134974,
images/exp2b_trial_255_colour0_distractors0_l.png,l,1,0,0,0,,,,,0,67,67,67,,,,,,,,,,,,,,,,,,,,,,,,,,,,,,,,,,,,,,,,,,,386.0134688959806,None,2,0.43757927100523375,386.0134688959806,None,,,,,,,,,,,,,,,,None,None,None,,None,None,386.4975496130064,None,1,1,0.8886785509821493,386.4975496130064,None,387.37808337148454,None,None,None,None,,3,001,2023_Jan_18_1051,searchDisc5,2021.2.3,60.01114358134974,
images/exp2c_trial_30_colour0_distractors0_r.png,r,3,0,0,0,,,,,0,68,68,68,,,,,,,,,,,,,,,,,,,,,,,,,,,,,,,,,,,,,,,,,,,387.3944283440069,None,2,0.4252909719944,387.3944283440069,None,,,,,,,,,,,,,,,,None,None,None,,None,None,387.8646010879893,None,3,1,0.6185363309923559,387.8646010879893,None,388.47777238949493,None,None,None,None,,3,001,2023_Jan_18_1051,searchDisc5,2021.2.3,60.01114358134974,
images/exp2c_trial_198_colour2_distractors4_r.png,r,3,2,4,0,,,,,0,69,69,69,,,,,,,,,,,,,,,,,,,,,,,,,,,,,,,,,,,,,,,,,,,388.49465546099236,None,2,1.3249276330170687,388.49465546099236,None,,,,,,,,,,,,,,,,None,None,None,,None,None,389.863567753986,None,3,1,0.5684684300213121,389.863567753986,None,390.4280871644878,None,None,None,None,,3,001,2023_Jan_18_1051,searchDisc5,2021.2.3,60.01114358134974,
images/exp2c_trial_190_colour0_distractors0_r.png,r,3,0,0,0,,,,,0,70,70,70,,,,,,,,,,,,,,,,,,,,,,,,,,,,,,,,,,,,,,,,,,,390.4446563939855,None,2,0.40743203900638036,390.4446563939855,None,,,,,,,,,,,,,,,,None,None,None,,None,None,390.89548859899514,None,3,1,0.5033525349863339,390.89548859899514,None,391.3947884564841,None,None,None,None,,3,001,2023_Jan_18_1051,searchDisc5,2021.2.3,60.01114358134974,
images/exp2b_trial_55_colour2_distractors19_l.png,l,1,2,19,0,,,,,0,71,71,71,,,,,,,,,,,,,,,,,,,,,,,,,,,,,,,,,,,,,,,,,,,391.41197035400546,None,2,0.5721388020028826,391.41197035400546,None,,,,,,,,,,,,,,,,None,None,None,,None,None,392.0295142279938,None,1,1,0.5684610810130835,392.0295142279938,None,392.59480143549445,None,None,None,None,,3,001,2023_Jan_18_1051,searchDisc5,2021.2.3,60.01114358134974,
images/exp2b_trial_139_colour3_distractors4_r.png,r,3,3,4,0,,,,,0,72,72,72,,,,,,,,,,,,,,,,,,,,,,,,,,,,,,,,,,,,,,,,,,,392.61231423099525,None,2,0.3881457200041041,392.61231423099525,None,,,,,,,,,,,,,,,,None,None,None,,None,None,393.0451695929805,None,3,1,0.5392411820066627,393.0451695929805,None,393.5791900134791,None,None,None,None,,3,001,2023_Jan_18_1051,searchDisc5,2021.2.3,60.01114358134974,
images/exp2c_trial_139_colour3_distractors4_r.png,r,3,3,4,0,,,,,0,73,73,73,,,,,,,,,,,,,,,,,,,,,,,,,,,,,,,,,,,,,,,,,,,393.5973375409958,None,2,0.40357796201715246,393.5973375409958,None,,,,,,,,,,,,,,,,None,None,None,,None,None,394.0460315379896,None,3,1,0.5717824569728691,394.0460315379896,None,394.61166653547843,None,None,None,None,,3,001,2023_Jan_18_1051,searchDisc5,2021.2.3,60.01114358134974,
images/exp2a_trial_273_colour1_distractors9_l.png,l,1,1,9,0,,,,,0,74,74,74,,,,,,,,,,,,,,,,,,,,,,,,,,,,,,,,,,,,,,,,,,,394.6281106089882,None,2,0.3887344689865131,394.6281106089882,None,,,,,,,,,,,,,,,,None,None,None,,None,None,395.0647545410029,None,1,1,0.5713642110058572,395.0647545410029,None,395.6282199915004,None,None,None,None,,3,001,2023_Jan_18_1051,searchDisc5,2021.2.3,60.01114358134974,
images/exp2c_trial_278_colour2_distractors9_l.png,l,1,2,9,0,,,,,0,75,75,75,,,,,,,,,,,,,,,,,,,,,,,,,,,,,,,,,,,,,,,,,,,395.64548921299865,None,2,0.4544424570049159,395.64548921299865,None,,,,,,,,,,,,,,,,None,None,None,,None,None,396.1459938779881,None,1,1,0.5727695139939897,396.1459938779881,None,396.7126161405031,None,None,None,None,,3,001,2023_Jan_18_1051,searchDisc5,2021.2.3,60.01114358134974,
images/exp1a_trial_118_colour2_distractors9_l.png,l,1,2,9,0,,,,,0,76,76,76,,,,,,,,,,,,,,,,,,,,,,,,,,,,,,,,,,,,,,,,,,,396.7280446079967,None,2,0.32082507701124996,396.7280446079967,None,,,,,,,,,,,,,,,,None,None,None,,None,None,397.09587785898475,None,1,1,0.6531555199762806,397.09587785898475,None,397.7449310594966,None,None,None,None,,3,001,2023_Jan_18_1051,searchDisc5,2021.2.3,60.01114358134974,
images/exp2a_trial_278_colour2_distractors9_l.png,l,1,2,9,0,,,,,0,77,77,77,,,,,,,,,,,,,,,,,,,,,,,,,,,,,,,,,,,,,,,,,,,397.761474059982,None,2,0.33746630800305866,397.761474059982,None,,,,,,,,,,,,,,,,None,None,None,,None,None,398.1479503849987,None,1,1,0.5691284170025028,398.1479503849987,None,398.7117198654887,None,None,None,None,,3,001,2023_Jan_18_1051,searchDisc5,2021.2.3,60.01114358134974,
images/exp2b_trial_152_colour2_distractors31_l.png,l,1,2,31,0,,,,,0,78,78,78,,,,,,,,,,,,,,,,,,,,,,,,,,,,,,,,,,,,,,,,,,,398.72769231398706,None,2,0.3709655549901072,398.72769231398706,None,,,,,,,,,,,,,,,,None,None,None,,None,None,399.145883263991,None,1,1,0.5709385930094868,399.145883263991,None,399.71276928849693,None,None,None,None,,3,001,2023_Jan_18_1051,searchDisc5,2021.2.3,60.01114358134974,
images/exp2b_trial_101_colour2_distractors1_r.png,r,3,2,1,0,,,,,0,79,79,79,,,,,,,,,,,,,,,,,,,,,,,,,,,,,,,,,,,,,,,,,,,399.7276352259796,None,2,0.37009080601274036,399.7276352259796,None,,,,,,,,,,,,,,,,None,None,None,,None,None,400.1471563199884,None,3,1,0.6063243919925299,400.1471563199884,None,400.7450736784813,None,None,None,None,,3,001,2023_Jan_18_1051,searchDisc5,2021.2.3,60.01114358134974,
images/exp2b_trial_157_colour3_distractors31_l.png,l,1,3,31,0,,,,,0,80,80,80,,,,,,,,,,,,,,,,,,,,,,,,,,,,,,,,,,,,,,,,,,,400.7624302589975,None,2,0.35530992300482467,400.7624302589975,None,,,,,,,,,,,,,,,,None,None,None,,None,None,401.16458775900537,None,1,1,0.753473181015579,401.16458775900537,None,401.91186656949867,None,None,None,None,,3,001,2023_Jan_18_1051,searchDisc5,2021.2.3,60.01114358134974,
images/exp2a_trial_170_colour3_distractors1_r.png,r,3,3,1,0,,,,,0,81,81,81,,,,,,,,,,,,,,,,,,,,,,,,,,,,,,,,,,,,,,,,,,,401.9282590030052,None,2,0.32124189400929026,401.9282590030052,None,,,,,,,,,,,,,,,,None,None,None,,None,None,402.29625781899085,None,3,1,0.5548883940209635,402.29625781899085,None,402.84489540148934,None,None,None,None,,3,001,2023_Jan_18_1051,searchDisc5,2021.2.3,60.01114358134974,
images/exp2c_trial_48_colour1_distractors4_l.png,l,1,1,4,0,,,,,0,82,82,82,,,,,,,,,,,,,,,,,,,,,,,,,,,,,,,,,,,,,,,,,,,402.86167109999224,None,2,0.4214664789906237,402.86167109999224,None,,,,,,,,,,,,,,,,None,None,None,,None,None,403.33045056898845,None,1,1,0.6716588710260112,403.33045056898845,None,403.9946098874934,None,None,None,None,,3,001,2023_Jan_18_1051,searchDisc5,2021.2.3,60.01114358134974,
images/exp1a_trial_165_colour2_distractors1_r.png,r,3,2,1,0,,,,,0,83,83,83,,,,,,,,,,,,,,,,,,,,,,,,,,,,,,,,,,,,,,,,,,,404.0118688789953,None,2,0.3552996579965111,404.0118688789953,None,,,,,,,,,,,,,,,,None,None,None,,None,None,404.41288540899404,None,3,1,0.5890012599993497,404.41288540899404,None,404.99483486749523,None,None,None,None,,3,001,2023_Jan_18_1051,searchDisc5,2021.2.3,60.01114358134974,
images/exp2c_trial_6_colour2_distractors4_r.png,r,3,2,4,0,,,,,0,84,84,84,,,,,,,,,,,,,,,,,,,,,,,,,,,,,,,,,,,,,,,,,,,405.0122826799925,None,2,0.4401464959955774,405.0122826799925,None,,,,,,,,,,,,,,,,None,None,None,,None,None,405.4960664329992,None,3,1,0.6211759999860078,405.4960664329992,None,406.11293031550304,None,None,None,None,,3,001,2023_Jan_18_1051,searchDisc5,2021.2.3,60.01114358134974,
images/exp2a_trial_243_colour1_distractors31_l.png,l,1,1,31,0,,,,,0,85,85,85,,,,,,,,,,,,,,,,,,,,,,,,,,,,,,,,,,,,,,,,,,,406.12833179999143,None,2,0.40549867498339154,406.12833179999143,None,,,,,,,,,,,,,,,,None,None,None,,None,None,406.5815140850027,None,1,1,0.6020551469991915,406.5815140850027,None,407.1795922625024,None,None,None,None,,3,001,2023_Jan_18_1051,searchDisc5,2021.2.3,60.01114358134974,
images/exp2b_trial_271_colour1_distractors1_l.png,l,1,1,1,0,,,,,0,86,86,86,,,,,,,,,,,,,,,,,,,,,,,,,,,,,,,,,,,,,,,,,,,407.1949704689905,None,2,0.3727869179856498,407.1949704689905,None,,,,,,,,,,,,,,,,None,None,None,,None,None,407.61411671800306,None,1,1,0.5537922130024526,407.61411671800306,None,408.1619923654798,None,None,None,None,,3,001,2023_Jan_18_1051,searchDisc5,2021.2.3,60.01114358134974,
images/exp2a_trial_71_colour2_distractors9_r.png,r,3,2,9,0,,,,,0,87,87,87,,,,,,,,,,,,,,,,,,,,,,,,,,,,,,,,,,,,,,,,,,,408.17835691399523,None,2,0.3878961589944083,408.17835691399523,None,,,,,,,,,,,,,,,,None,None,None,,None,None,408.6140909479873,None,3,1,0.7840178170008585,408.6140909479873,None,409.394635341494,None,None,None,None,,3,001,2023_Jan_18_1051,searchDisc5,2021.2.3,60.01114358134974,
images/exp1a_trial_82_colour1_distractors19_l.png,l,1,1,19,0,,,,,0,88,88,88,,,,,,,,,,,,,,,,,,,,,,,,,,,,,,,,,,,,,,,,,,,409.412032008986,None,2,0.4049672959954478,409.412032008986,None,,,,,,,,,,,,,,,,None,None,None,,None,None,409.8650752810063,None,1,1,0.6689903480000794,409.8650752810063,None,410.5286848955002,None,None,None,None,,3,001,2023_Jan_18_1051,searchDisc5,2021.2.3,60.01114358134974,
images/exp2b_trial_266_colour3_distractors1_r.png,r,3,3,1,0,,,,,0,89,89,89,,,,,,,,,,,,,,,,,,,,,,,,,,,,,,,,,,,,,,,,,,,410.54532318899874,None,2,0.3378680479945615,410.54532318899874,None,,,,,,,,,,,,,,,,None,None,None,,None,None,410.93099128999165,None,3,1,0.689907199004665,410.93099128999165,None,411.61197506550525,None,None,None,None,,3,001,2023_Jan_18_1051,searchDisc5,2021.2.3,60.01114358134974,
images/exp2a_trial_216_colour2_distractors31_l.png,l,1,2,31,0,,,,,0,90,90,90,,,,,,,,,,,,,,,,,,,,,,,,,,,,,,,,,,,,,,,,,,,411.6285205629829,None,2,0.4066111979773268,411.6285205629829,None,,,,,,,,,,,,,,,,None,None,None,,None,None,412.0848817449878,None,1,1,0.6773391700116917,412.0848817449878,None,412.7620450284885,None,None,None,None,,3,001,2023_Jan_18_1051,searchDisc5,2021.2.3,60.01114358134974,
images/exp2a_trial_286_colour0_distractors0_r.png,r,3,0,0,0,,,,,0,91,91,91,,,,,,,,,,,,,,,,,,,,,,,,,,,,,,,,,,,,,,,,,,,412.7813692780037,None,2,0.37319703001412563,412.7813692780037,None,,,,,,,,,,,,,,,,None,None,None,,None,None,413.19709230199805,None,3,1,0.6389515140035655,413.19709230199805,None,413.8286988375039,None,None,None,None,,3,001,2023_Jan_18_1051,searchDisc5,2021.2.3,60.01114358134974,
images/exp1a_trial_281_colour3_distractors1_l.png,l,1,3,1,0,,,,,0,92,92,92,,,,,,,,,,,,,,,,,,,,,,,,,,,,,,,,,,,,,,,,,,,413.8445462039963,None,2,0.4205854649771936,413.8445462039963,None,,,,,,,,,,,,,,,,None,None,None,,None,None,414.31474342397996,None,1,1,0.5382933420187328,414.31474342397996,None,414.845501397489,None,None,None,None,,3,001,2023_Jan_18_1051,searchDisc5,2021.2.3,60.01114358134974,
images/exp2a_trial_65_colour1_distractors4_r.png,r,3,1,4,0,,,,,0,93,93,93,,,,,,,,,,,,,,,,,,,,,,,,,,,,,,,,,,,,,,,,,,,414.8625881089829,None,2,0.40541551797650754,414.8625881089829,None,,,,,,,,,,,,,,,,None,None,None,,None,None,415.31474983898806,None,3,1,0.604623825987801,415.31474983898806,None,415.912139687498,None,None,None,None,,3,001,2023_Jan_18_1051,searchDisc5,2021.2.3,60.01114358134974,
images/exp2a_trial_107_colour3_distractors4_r.png,r,3,3,4,0,,,,,0,94,94,94,,,,,,,,,,,,,,,,,,,,,,,,,,,,,,,,,,,,,,,,,,,415.9314336809912,None,2,0.4054381109890528,415.9314336809912,None,,,,,,,,,,,,,,,,None,None,None,,None,None,416.3791149960016,None,3,1,0.6577840780082624,416.3791149960016,None,417.03193970049324,None,None,None,None,,3,001,2023_Jan_18_1051,searchDisc5,2021.2.3,60.01114358134974,
images/exp2a_trial_24_colour2_distractors31_l.png,l,1,2,31,0,,,,,0,95,95,95,,,,,,,,,,,,,,,,,,,,,,,,,,,,,,,,,,,,,,,,,,,417.04823024899815,None,2,0.35529043900896795,417.04823024899815,None,,,,,,,,,,,,,,,,None,None,None,,None,None,417.4536946739827,None,1,1,0.7418811139941681,417.4536946739827,None,418.1955827324855,None,None,None,None,,3,001,2023_Jan_18_1051,searchDisc5,2021.2.3,60.01114358134974,
images/exp2c_trial_245_colour2_distractors4_l.png,l,1,2,4,0,,,,,0,96,96,96,,,,,,,,,,,,,,,,,,,,,,,,,,,,,,,,,,,,,,,,,,,418.2133047799871,None,2,0.30352634500013664,418.2133047799871,None,,,,,,,,,,,,,,,,None,None,None,,None,None,418.5623475500033,None,1,1,0.5904564330121502,418.5623475500033,None,419.1456814464909,None,None,None,None,,3,001,2023_Jan_18_1051,searchDisc5,2021.2.3,60.01114358134974,
images/exp2a_trial_9_colour2_distractors31_r.png,r,3,2,31,0,,,,,0,97,97,97,,,,,,,,,,,,,,,,,,,,,,,,,,,,,,,,,,,,,,,,,,,419.1621420540032,None,2,0.3387197109987028,419.1621420540032,None,,,,,,,,,,,,,,,,None,None,None,,None,None,419.54554018899216,None,3,1,0.8782500179950148,419.54554018899216,None,420.42891004848934,None,None,None,None,,3,001,2023_Jan_18_1051,searchDisc5,2021.2.3,60.01114358134974,
images/exp2c_trial_293_colour2_distractors1_r.png,r,3,2,1,0,,,,,0,98,98,98,,,,,,,,,,,,,,,,,,,,,,,,,,,,,,,,,,,,,,,,,,,420.44541645399295,None,2,0.37201566400472075,420.44541645399295,None,,,,,,,,,,,,,,,,None,None,None,,None,None,420.86517644498963,None,3,1,0.522107666998636,420.86517644498963,None,421.3788931504969,None,None,None,None,,3,001,2023_Jan_18_1051,searchDisc5,2021.2.3,60.01114358134974,
images/exp2b_trial_77_colour3_distractors19_r.png,r,3,3,19,0,,,,,0,99,99,99,,,,,,,,,,,,,,,,,,,,,,,,,,,,,,,,,,,,,,,,,,,421.39574529300444,None,2,0.5224136960168835,421.39574529300444,None,,,,,,,,,,,,,,,,None,None,None,,None,None,421.9624350829981,None,3,1,0.6524391839921009,421.9624350829981,None,422.61244874649856,None,None,None,None,,3,001,2023_Jan_18_1051,searchDisc5,2021.2.3,60.01114358134974,
images/exp2c_trial_271_colour1_distractors1_l.png,l,1,1,1,0,,,,,0,100,100,100,,,,,,,,,,,,,,,,,,,,,,,,,,,,,,,,,,,,,,,,,,,422.629910491989,None,2,0.42330189800122753,422.629910491989,None,,,,,,,,,,,,,,,,None,None,None,,None,None,423.09656603698386,None,1,1,0.7376549089967739,423.09656603698386,None,423.82906020349765,None,None,None,None,,3,001,2023_Jan_18_1051,searchDisc5,2021.2.3,60.01114358134974,
images/exp2c_trial_155_colour3_distractors9_l.png,l,1,3,9,0,,,,,0,101,101,101,,,,,,,,,,,,,,,,,,,,,,,,,,,,,,,,,,,,,,,,,,,423.8461374799954,None,2,0.23782663300517015,423.8461374799954,None,,,,,,,,,,,,,,,,None,None,None,,None,None,424.12945433400455,None,1,1,0.6889980639971327,424.12945433400455,None,424.8124268864776,None,None,None,None,,3,001,2023_Jan_18_1051,searchDisc5,2021.2.3,60.01114358134974,
images/exp2b_trial_277_colour2_distractors4_l.png,l,1,2,4,0,,,,,0,102,102,102,,,,,,,,,,,,,,,,,,,,,,,,,,,,,,,,,,,,,,,,,,,424.8295243860048,None,2,0.3378999739943538,424.8295243860048,None,,,,,,,,,,,,,,,,None,None,None,,None,None,425.21250203999807,None,1,1,0.590057865018025,425.21250203999807,None,425.7968365504785,None,None,None,None,,3,001,2023_Jan_18_1051,searchDisc5,2021.2.3,60.01114358134974,
images/exp2a_trial_35_colour1_distractors19_r.png,r,3,1,19,0,,,,,0,103,103,103,,,,,,,,,,,,,,,,,,,,,,,,,,,,,,,,,,,,,,,,,,,425.81227599299746,None,2,0.33678962499834597,425.81227599299746,None,,,,,,,,,,,,,,,,None,None,None,,None,None,426.19619864597917,None,3,1,0.655432034021942,426.19619864597917,None,426.8457852694992,None,None,None,None,,3,001,2023_Jan_18_1051,searchDisc5,2021.2.3,60.01114358134974,
images/exp2a_trial_52_colour2_distractors1_l.png,l,1,2,1,0,,,,,0,104,104,104,,,,,,,,,,,,,,,,,,,,,,,,,,,,,,,,,,,,,,,,,,,426.86152735099313,None,2,0.38871397997718304,426.86152735099313,None,,,,,,,,,,,,,,,,None,None,None,,None,None,427.29796680799336,None,1,1,0.6864991830079816,427.29796680799336,None,427.9791201604967,None,None,None,None,,3,001,2023_Jan_18_1051,searchDisc5,2021.2.3,60.01114358134974,
images/exp2a_trial_257_colour1_distractors4_r.png,r,3,1,4,0,,,,,0,105,105,105,,,,,,,,,,,,,,,,,,,,,,,,,,,,,,,,,,,,,,,,,,,427.9976493639988,None,2,0.3569928759825416,427.9976493639988,None,,,,,,,,,,,,,,,,None,None,None,,None,None,428.3982382719987,None,3,1,0.6361399139859714,428.3982382719987,None,429.02923263447883,None,None,None,None,,3,001,2023_Jan_18_1051,searchDisc5,2021.2.3,60.01114358134974,
images/exp1a_trial_145_colour1_distractors9_l.png,l,1,1,9,0,,,,,0,106,106,106,,,,,,,,,,,,,,,,,,,,,,,,,,,,,,,,,,,,,,,,,,,429.0463397410058,None,2,0.3878262660000473,429.0463397410058,None,,,,,,,,,,,,,,,,None,None,None,,None,None,429.4820219389803,None,1,1,0.7541595160146244,429.4820219389803,None,430.22909771349805,None,None,None,None,,3,001,2023_Jan_18_1051,searchDisc5,2021.2.3,60.01114358134974,
images/exp1a_trial_236_colour3_distractors9_r.png,r,3,3,9,0,,,,,0,107,107,107,,,,,,,,,,,,,,,,,,,,,,,,,,,,,,,,,,,,,,,,,,,430.24648601099034,None,2,0.33786969500943087,430.24648601099034,None,,,,,,,,,,,,,,,,None,None,None,,None,None,430.6322969390021,None,3,1,0.9540674389863852,430.6322969390021,None,431.57896622749104,None,None,None,None,,3,001,2023_Jan_18_1051,searchDisc5,2021.2.3,60.01114358134974,
images/exp2b_trial_28_colour3_distractors19_l.png,l,1,3,19,0,,,,,0,108,108,108,,,,,,,,,,,,,,,,,,,,,,,,,,,,,,,,,,,,,,,,,,,431.596223259985,None,2,0.355393277015537,431.596223259985,None,,,,,,,,,,,,,,,,None,None,None,,None,None,431.99610584098264,None,1,1,0.5702512159768958,431.99610584098264,None,432.5625863025052,None,None,None,None,,3,001,2023_Jan_18_1051,searchDisc5,2021.2.3,60.01114358134974,
images/exp2b_trial_49_colour1_distractors9_l.png,l,1,1,9,0,,,,,0,109,109,109,,,,,,,,,,,,,,,,,,,,,,,,,,,,,,,,,,,,,,,,,,,432.5802059219859,None,2,0.3534895589982625,432.5802059219859,None,,,,,,,,,,,,,,,,None,None,None,,None,None,432.98210338599165,None,1,1,0.7045587720058393,432.98210338599165,None,433.67854115848604,None,None,None,None,,3,001,2023_Jan_18_1051,searchDisc5,2021.2.3,60.01114358134974,
images/exp2a_trial_96_colour1_distractors1_r.png,r,3,1,1,0,,,,,0,110,110,110,,,,,,,,,,,,,,,,,,,,,,,,,,,,,,,,,,,,,,,,,,,433.69662592199165,None,2,0.389562816999387,433.69662592199165,None,,,,,,,,,,,,,,,,None,None,None,,None,None,434.13256020800327,None,3,1,0.555179112998303,434.13256020800327,None,434.67933978549263,None,None,None,None,,3,001,2023_Jan_18_1051,searchDisc5,2021.2.3,60.01114358134974,
images/exp2b_trial_301_colour3_distractors19_r.png,r,3,3,19,0,,,,,0,111,111,111,,,,,,,,,,,,,,,,,,,,,,,,,,,,,,,,,,,,,,,,,,,434.69666728700395,None,2,0.40736481102067046,434.69666728700395,None,,,,,,,,,,,,,,,,None,None,None,,None,None,435.1484244889871,None,3,1,0.6183827880013268,435.1484244889871,None,435.76379704849387,None,None,None,None,,3,001,2023_Jan_18_1051,searchDisc5,2021.2.3,60.01114358134974,
images/exp2a_trial_261_colour2_distractors1_r.png,r,3,2,1,0,,,,,0,112,112,112,,,,,,,,,,,,,,,,,,,,,,,,,,,,,,,,,,,,,,,,,,,435.7792367999791,None,2,0.40445801001624204,435.7792367999791,None,,,,,,,,,,,,,,,,None,None,None,,None,None,436.23229447499034,None,1,0,0.4912451090058312,436.23229447499034,None,436.71387434248754,None,None,None,None,,3,001,2023_Jan_18_1051,searchDisc5,2021.2.3,60.01114358134974,
images/exp2a_trial_249_colour3_distractors1_l.png,l,1,3,1,0,,,,,0,113,113,113,,,,,,,,,,,,,,,,,,,,,,,,,,,,,,,,,,,,,,,,,,,436.72999744699337,None,2,1.754123714985326,436.72999744699337,None,,,,,,,,,,,,,,,,None,None,None,,None,None,438.53189786997973,None,1,1,0.553412582987221,438.53189786997973,None,439.0794819244911,None,None,None,None,,3,001,2023_Jan_18_1051,searchDisc5,2021.2.3,60.01114358134974,
images/exp1a_trial_130_colour1_distractors9_r.png,r,3,1,9,0,,,,,0,114,114,114,,,,,,,,,,,,,,,,,,,,,,,,,,,,,,,,,,,,,,,,,,,439.09601609400124,None,2,0.771092300012242,439.09601609400124,None,,,,,,,,,,,,,,,,None,None,None,,None,None,439.9158056479937,None,1,0,0.5544170549837872,439.9158056479937,None,440.4638527804782,None,None,None,None,,3,001,2023_Jan_18_1051,searchDisc5,2021.2.3,60.01114358134974,
images/exp1a_trial_262_colour2_distractors4_r.png,r,3,2,4,0,,,,,0,115,115,115,,,,,,,,,,,,,,,,,,,,,,,,,,,,,,,,,,,,,,,,,,,440.47917132099974,None,2,1.156280313996831,440.47917132099974,None,,,,,,,,,,,,,,,,None,None,None,,None,None,441.6816606229986,None,3,1,0.6703993160044774,441.6816606229986,None,442.3482842674857,None,None,None,None,,3,001,2023_Jan_18_1051,searchDisc5,2021.2.3,60.01114358134974,
images/exp2a_trial_158_colour0_distractors0_r.png,r,3,0,0,0,,,,,0,116,116,116,,,,,,,,,,,,,,,,,,,,,,,,,,,,,,,,,,,,,,,,,,,442.3634457589942,None,2,0.5516582099953666,442.3634457589942,None,,,,,,,,,,,,,,,,None,None,None,,None,None,442.96344275498996,None,3,1,0.5589648199966177,442.96344275498996,None,443.5139547854924,None,None,None,None,,3,001,2023_Jan_18_1051,searchDisc5,2021.2.3,60.01114358134974,
images/exp2a_trial_116_colour2_distractors1_l.png,l,1,2,1,0,,,,,0,117,117,117,,,,,,,,,,,,,,,,,,,,,,,,,,,,,,,,,,,,,,,,,,,443.5297434889944,None,2,0.47002569399774075,443.5297434889944,None,,,,,,,,,,,,,,,,None,None,None,,None,None,444.0467770639807,None,1,1,0.6556401920097414,444.0467770639807,None,444.69632676448964,None,None,None,None,,3,001,2023_Jan_18_1051,searchDisc5,2021.2.3,60.01114358134974,
images/exp2b_trial_274_colour1_distractors19_l.png,l,1,1,19,0,,,,,0,118,118,118,,,,,,,,,,,,,,,,,,,,,,,,,,,,,,,,,,,,,,,,,,,444.71290380699793,None,2,0.45402714898227714,444.71290380699793,None,,,,,,,,,,,,,,,,None,None,None,,None,None,445.2131562260038,None,1,1,0.6871406539867166,445.2131562260038,None,445.8960556214879,None,None,None,None,,3,001,2023_Jan_18_1051,searchDisc5,2021.2.3,60.01114358134974,
images/exp2c_trial_242_colour1_distractors19_l.png,l,1,1,19,0,,,,,0,119,119,119,,,,,,,,,,,,,,,,,,,,,,,,,,,,,,,,,,,,,,,,,,,445.9133110329858,None,2,0.43894100800389424,445.9133110329858,None,,,,,,,,,,,,,,,,None,None,None,,None,None,446.398484876001,None,1,1,0.736432410980342,446.398484876001,None,447.1297881335049,None,None,None,None,,3,001,2023_Jan_18_1051,searchDisc5,2021.2.3,60.01114358134974,
images/exp2c_trial_291_colour1_distractors19_r.png,r,3,1,19,0,,,,,0,120,120,120,,,,,,,,,,,,,,,,,,,,,,,,,,,,,,,,,,,,,,,,,,,447.146767934988,None,2,0.42316977799055167,447.146767934988,None,,,,,,,,,,,,,,,,None,None,None,,None,None,447.6151385080011,None,3,1,0.6017237739870325,447.6151385080011,None,448.21300998049264,None,None,None,None,,3,001,2023_Jan_18_1051,searchDisc5,2021.2.3,60.01114358134974,
images/exp2b_trial_60_colour3_distractors19_l.png,l,1,3,19,0,,,,,0,121,121,121,,,,,,,,,,,,,,,,,,,,,,,,,,,,,,,,,,,,,,,,,,,448.22962318500504,None,2,0.4572750089864712,448.22962318500504,None,,,,,,,,,,,,,,,,None,None,None,,None,None,448.7317673759826,None,1,1,0.8335114069923293,448.7317673759826,None,449.5630185764894,None,None,None,None,,3,001,2023_Jan_18_1051,searchDisc5,2021.2.3,60.01114358134974,
images/exp1a_trial_117_colour2_distractors4_l.png,l,1,2,4,0,,,,,0,122,122,122,,,,,,,,,,,,,,,,,,,,,,,,,,,,,,,,,,,,,,,,,,,449.5803975269955,None,2,0.4573503300198354,449.5803975269955,None,,,,,,,,,,,,,,,,None,None,None,,None,None,450.0826950449846,None,1,1,0.6864805630175397,450.0826950449846,None,450.7637885665026,None,None,None,None,,3,001,2023_Jan_18_1051,searchDisc5,2021.2.3,60.01114358134974,
images/exp2b_trial_151_colour2_distractors19_l.png,l,1,2,19,0,,,,,0,123,123,123,,,,,,,,,,,,,,,,,,,,,,,,,,,,,,,,,,,,,,,,,,,450.7796313139843,None,2,0.4377624889893923,450.7796313139843,None,,,,,,,,,,,,,,,,None,None,None,,None,None,451.2640321609797,None,1,1,0.6033866879879497,451.2640321609797,None,451.86328931747994,None,None,None,None,,3,001,2023_Jan_18_1051,searchDisc5,2021.2.3,60.01114358134974,
images/exp2c_trial_41_colour2_distractors31_r.png,r,3,2,31,0,,,,,0,124,124,124,,,,,,,,,,,,,,,,,,,,,,,,,,,,,,,,,,,,,,,,,,,451.880308613996,None,2,0.4568917930009775,451.880308613996,None,,,,,,,,,,,,,,,,None,None,None,,None,None,452.3806401650072,None,3,1,0.6503943669958971,452.3806401650072,None,453.02985803950287,None,None,None,None,,3,001,2023_Jan_18_1051,searchDisc5,2021.2.3,60.01114358134974,
images/exp2a_trial_61_colour3_distractors31_l.png,l,1,3,31,0,,,,,0,125,125,125,,,,,,,,,,,,,,,,,,,,,,,,,,,,,,,,,,,,,,,,,,,453.0468603069894,None,2,0.47117202199297026,453.0468603069894,None,,,,,,,,,,,,,,,,None,None,None,,None,None,453.56408609598293,None,1,1,0.6864354169811122,453.56408609598293,None,454.2465126654861,None,None,None,None,,3,001,2023_Jan_18_1051,searchDisc5,2021.2.3,60.01114358134974,
images/exp2b_trial_78_colour3_distractors31_r.png,r,3,3,31,0,,,,,0,126,126,126,,,,,,,,,,,,,,,,,,,,,,,,,,,,,,,,,,,,,,,,,,,454.2639947659918,None,2,0.6885542960080784,454.2639947659918,None,,,,,,,,,,,,,,,,None,None,None,,None,None,454.996671040979,None,3,1,0.71888539698557,454.996671040979,None,455.7132968274964,None,None,None,None,,3,001,2023_Jan_18_1051,searchDisc5,2021.2.3,60.01114358134974,
images/exp2c_trial_268_colour3_distractors9_r.png,r,3,3,9,0,,,,,0,127,127,127,,,,,,,,,,,,,,,,,,,,,,,,,,,,,,,,,,,,,,,,,,,455.7288533159881,None,2,0.4726806080143433,455.7288533159881,None,,,,,,,,,,,,,,,,None,None,None,,None,None,456.2463263910031,None,3,1,0.7022959390014876,456.2463263910031,None,456.9460140195006,None,None,None,None,,3,001,2023_Jan_18_1051,searchDisc5,2021.2.3,60.01114358134974,
images/exp2a_trial_258_colour1_distractors9_r.png,r,3,1,9,0,,,,,0,128,128,128,,,,,,,,,,,,,,,,,,,,,,,,,,,,,,,,,,,,,,,,,,,456.96415296400664,None,2,0.4732068630110007,456.96415296400664,None,,,,,,,,,,,,,,,,None,None,None,,None,None,457.48301826498937,None,3,1,0.6719806180044543,457.48301826498937,None,458.14664590549364,None,None,None,None,,3,001,2023_Jan_18_1051,searchDisc5,2021.2.3,60.01114358134974,
images/exp1a_trial_135_colour2_distractors9_r.png,r,3,2,9,0,,,,,0,129,129,129,,,,,,,,,,,,,,,,,,,,,,,,,,,,,,,,,,,,,,,,,,,458.16408631700324,None,2,0.485755808011163,458.16408631700324,None,,,,,,,,,,,,,,,,None,None,None,,None,None,458.69832409897936,None,3,1,0.7706507059920114,458.69832409897936,None,459.46328134949727,None,None,None,None,,3,001,2023_Jan_18_1051,searchDisc5,2021.2.3,60.01114358134974,
images/exp2a_trial_113_colour1_distractors9_l.png,l,1,1,9,0,,,,,0,130,130,130,,,,,,,,,,,,,,,,,,,,,,,,,,,,,,,,,,,,,,,,,,,459.48266973599675,None,2,1.0736933699809015,459.48266973599675,None,,,,,,,,,,,,,,,,None,None,None,,None,None,460.59744056899217,None,1,1,0.9863757500133943,460.59744056899217,None,461.58007309648383,None,None,None,None,,3,001,2023_Jan_18_1051,searchDisc5,2021.2.3,60.01114358134974,
images/exp2b_trial_166_colour2_distractors4_r.png,r,3,2,4,0,,,,,0,131,131,131,,,,,,,,,,,,,,,,,,,,,,,,,,,,,,,,,,,,,,,,,,,461.5959402729932,None,2,0.4729210450022947,461.5959402729932,None,,,,,,,,,,,,,,,,None,None,None,,None,None,462.1144773749984,None,3,1,0.7034826799936127,462.1144773749984,None,462.8134757164953,None,None,None,None,,3,001,2023_Jan_18_1051,searchDisc5,2021.2.3,60.01114358134974,
images/exp1a_trial_221_colour3_distractors31_l.png,l,1,3,31,0,,,,,0,132,132,132,,,,,,,,,,,,,,,,,,,,,,,,,,,,,,,,,,,,,,,,,,,462.83199344199966,None,2,0.4544504719960969,462.83199344199966,None,,,,,,,,,,,,,,,,None,None,None,,None,None,463.3325606879953,None,1,1,0.733881197986193,463.3325606879953,None,464.06350000148814,None,None,None,None,,3,001,2023_Jan_18_1051,searchDisc5,2021.2.3,60.01114358134974,
images/exp2b_trial_243_colour1_distractors31_l.png,l,1,1,31,0,,,,,0,133,133,133,,,,,,,,,,,,,,,,,,,,,,,,,,,,,,,,,,,,,,,,,,,464.08078148498316,None,2,0.4042238109977916,464.08078148498316,None,,,,,,,,,,,,,,,,None,None,None,,None,None,464.53309313900536,None,1,1,0.6869867460045498,464.53309313900536,None,465.21363426149765,None,None,None,None,,3,001,2023_Jan_18_1051,searchDisc5,2021.2.3,60.01114358134974,
images/exp2a_trial_105_colour2_distractors31_r.png,r,3,2,31,0,,,,,0,134,134,134,,,,,,,,,,,,,,,,,,,,,,,,,,,,,,,,,,,,,,,,,,,465.2300650679972,None,2,0.42112531000748277,465.2300650679972,None,,,,,,,,,,,,,,,,None,None,None,,None,None,465.7014697580016,None,3,1,0.7467187579895835,465.7014697580016,None,466.448032000495,None,None,None,None,,3,001,2023_Jan_18_1051,searchDisc5,2021.2.3,60.01114358134974,
images/exp2b_trial_24_colour2_distractors31_l.png,l,1,2,31,0,,,,,0,135,135,135,,,,,,,,,,,,,,,,,,,,,,,,,,,,,,,,,,,,,,,,,,,466.46588711199,None,2,0.4376333940017503,466.46588711199,None,,,,,,,,,,,,,,,,None,None,None,,None,None,466.94696043699514,None,1,1,0.9187641449971125,466.94696043699514,None,467.8635909814766,None,None,None,None,,3,001,2023_Jan_18_1051,searchDisc5,2021.2.3,60.01114358134974,
images/exp2c_trial_222_colour0_distractors0_r.png,r,3,0,0,0,,,,,0,136,136,136,,,,,,,,,,,,,,,,,,,,,,,,,,,,,,,,,,,,,,,,,,,467.88292062599794,None,2,0.8731588810042012,467.88292062599794,None,,,,,,,,,,,,,,,,None,None,None,,None,None,468.7991522089869,None,3,1,0.7054677569831256,468.7991522089869,None,469.49794259549526,None,None,None,None,,3,001,2023_Jan_18_1051,searchDisc5,2021.2.3,60.01114358134974,
images/exp2c_trial_22_colour2_distractors9_l.png,l,1,2,9,0,,,,,0,137,137,137,,,,,,,,,,,,,,,,,,,,,,,,,,,,,,,,,,,,,,,,,,,469.5132527179958,None,2,0.9203384680149611,469.5132527179958,None,,,,,,,,,,,,,,,,None,None,None,,None,None,470.48290710998117,None,1,1,0.6047009080066346,470.48290710998117,None,471.08025732247916,None,None,None,None,,3,001,2023_Jan_18_1051,searchDisc5,2021.2.3,60.01114358134974,
images/exp2b_trial_126_colour0_distractors0_r.png,r,3,0,0,0,,,,,0,138,138,138,,,,,,,,,,,,,,,,,,,,,,,,,,,,,,,,,,,,,,,,,,,471.09683331198175,None,2,0.4721103320189286,471.09683331198175,None,,,,,,,,,,,,,,,,None,None,None,,None,None,471.6131655659992,None,3,1,0.5741413729847409,471.6131655659992,None,472.1802713074867,None,None,None,None,,3,001,2023_Jan_18_1051,searchDisc5,2021.2.3,60.01114358134974,
images/exp2b_trial_156_colour3_distractors19_l.png,l,1,3,19,0,,,,,0,139,139,139,,,,,,,,,,,,,,,,,,,,,,,,,,,,,,,,,,,,,,,,,,,472.19769560499117,None,2,0.4702930370112881,472.19769560499117,None,,,,,,,,,,,,,,,,None,None,None,,None,None,472.7134506809816,None,1,1,0.6203670830000192,472.7134506809816,None,473.3301573034987,None,None,None,None,,3,001,2023_Jan_18_1051,searchDisc5,2021.2.3,60.01114358134974,
images/exp2c_trial_66_colour1_distractors9_r.png,r,3,1,9,0,,,,,0,140,140,140,,,,,,,,,,,,,,,,,,,,,,,,,,,,,,,,,,,,,,,,,,,473.3468749479798,None,2,0.47246960300253704,473.3468749479798,None,,,,,,,,,,,,,,,,None,None,None,,None,None,473.8639383169939,None,3,1,0.6181511030008551,473.8639383169939,None,474.4802040174982,None,None,None,None,,3,001,2023_Jan_18_1051,searchDisc5,2021.2.3,60.01114358134974,
images/exp2c_trial_45_colour3_distractors19_r.png,r,3,3,19,0,,,,,0,141,141,141,,,,,,,,,,,,,,,,,,,,,,,,,,,,,,,,,,,,,,,,,,,474.49735641799634,None,2,1.039049438026268,474.49735641799634,None,,,,,,,,,,,,,,,,None,None,None,,None,None,475.58058136998443,None,3,1,0.6020404640003107,475.58058136998443,None,476.17984282747784,None,None,None,None,,3,001,2023_Jan_18_1051,searchDisc5,2021.2.3,60.01114358134974,
images/exp2c_trial_84_colour2_distractors1_l.png,l,1,2,1,0,,,,,0,142,142,142,,,,,,,,,,,,,,,,,,,,,,,,,,,,,,,,,,,,,,,,,,,476.19721162097994,None,2,0.5559861740039196,476.19721162097994,None,,,,,,,,,,,,,,,,None,None,None,,None,None,476.79934769897955,None,1,1,0.5056136150087696,476.79934769897955,None,477.29714878050436,None,None,None,None,,3,001,2023_Jan_18_1051,searchDisc5,2021.2.3,60.01114358134974,
images/exp2a_trial_231_colour2_distractors9_r.png,r,3,2,9,0,,,,,0,143,143,143,,,,,,,,,,,,,,,,,,,,,,,,,,,,,,,,,,,,,,,,,,,477.3136988680053,None,2,0.5397122320136987,477.3136988680053,None,,,,,,,,,,,,,,,,None,None,None,,None,None,477.8996589150047,None,3,1,0.9981233529979363,477.8996589150047,None,478.8970736795018,None,None,None,None,,3,001,2023_Jan_18_1051,searchDisc5,2021.2.3,60.01114358134974,
images/exp2c_trial_78_colour3_distractors31_r.png,r,3,3,31,0,,,,,0,144,144,144,,,,,,,,,,,,,,,,,,,,,,,,,,,,,,,,,,,,,,,,,,,478.9140627500019,None,2,0.4714401719975285,478.9140627500019,None,,,,,,,,,,,,,,,,None,None,None,,None,None,479.43274211799144,None,3,1,0.7697899909981061,479.43274211799144,None,480.1973325814906,None,None,None,None,,3,001,2023_Jan_18_1051,searchDisc5,2021.2.3,60.01114358134974,
images/exp2b_trial_9_colour2_distractors31_r.png,r,3,2,31,0,,,,,0,145,145,145,,,,,,,,,,,,,,,,,,,,,,,,,,,,,,,,,,,,,,,,,,,480.21445941898855,None,2,0.48836175198084675,480.21445941898855,None,,,,,,,,,,,,,,,,None,None,None,,None,None,480.74997157100006,None,3,1,0.6524119169916958,480.74997157100006,None,481.3972943834815,None,None,None,None,,3,001,2023_Jan_18_1051,searchDisc5,2021.2.3,60.01114358134974,
images/exp1a_trial_189_colour3_distractors31_l.png,l,1,3,31,0,,,,,0,146,146,146,,,,,,,,,,,,,,,,,,,,,,,,,,,,,,,,,,,,,,,,,,,481.41434815799585,None,2,0.6568852399941534,481.41434815799585,None,,,,,,,,,,,,,,,,None,None,None,,None,None,482.1147453029989,None,1,1,0.6473778619838413,482.1147453029989,None,482.7642686164909,None,None,None,None,,3,001,2023_Jan_18_1051,searchDisc5,2021.2.3,60.01114358134974,
images/exp2b_trial_15_colour1_distractors1_l.png,l,1,1,1,0,,,,,0,147,147,147,,,,,,,,,,,,,,,,,,,,,,,,,,,,,,,,,,,,,,,,,,,482.7806414270017,None,2,0.4546160339959897,482.7806414270017,None,,,,,,,,,,,,,,,,None,None,None,,None,None,483.2807836839929,None,1,1,0.671754734008573,483.2807836839929,None,483.94683962549607,None,None,None,None,,3,001,2023_Jan_18_1051,searchDisc5,2021.2.3,60.01114358134974,
images/exp2b_trial_58_colour3_distractors4_l.png,l,1,3,4,0,,,,,0,148,148,148,,,,,,,,,,,,,,,,,,,,,,,,,,,,,,,,,,,,,,,,,,,483.96483933299896,None,2,0.6399972869839985,483.96483933299896,None,,,,,,,,,,,,,,,,None,None,None,,None,None,484.6484466260008,None,1,1,0.4708269839757122,484.6484466260008,None,485.1140520034969,None,None,None,None,,3,001,2023_Jan_18_1051,searchDisc5,2021.2.3,60.01114358134974,
images/exp2a_trial_282_colour3_distractors4_l.png,l,1,3,4,0,,,,,0,149,149,149,,,,,,,,,,,,,,,,,,,,,,,,,,,,,,,,,,,,,,,,,,,485.13050355398445,None,2,0.5212436220026575,485.13050355398445,None,,,,,,,,,,,,,,,,None,None,None,,None,None,485.6989033090067,None,1,1,0.4737259770045057,485.6989033090067,None,486.1641247334919,None,None,None,None,,3,001,2023_Jan_18_1051,searchDisc5,2021.2.3,60.01114358134974,
images/exp2c_trial_170_colour3_distractors1_r.png,r,3,3,1,0,,,,,0,150,150,150,,,,,,,,,,,,,,,,,,,,,,,,,,,,,,,,,,,,,,,,,,,486.180968708999,None,2,1.1373149339924566,486.180968708999,None,,,,,,,,,,,,,,,,None,None,None,,None,None,487.36489521400654,None,3,1,0.5390770189987961,487.36489521400654,None,487.89768192548945,None,None,None,None,,3,001,2023_Jan_18_1051,searchDisc5,2021.2.3,60.01114358134974,
images/exp2a_trial_189_colour3_distractors31_l.png,l,1,3,31,0,,,,,0,151,151,151,,,,,,,,,,,,,,,,,,,,,,,,,,,,,,,,,,,,,,,,,,,487.91494782597874,None,2,0.45524929999373853,487.91494782597874,None,,,,,,,,,,,,,,,,None,None,None,,None,None,488.4143494099844,None,1,1,0.6355613129853737,488.4143494099844,None,489.04684581149195,None,None,None,None,,3,001,2023_Jan_18_1051,searchDisc5,2021.2.3,60.01114358134974,
images/exp2c_trial_156_colour3_distractors19_l.png,l,1,3,19,0,,,,,0,152,152,152,,,,,,,,,,,,,,,,,,,,,,,,,,,,,,,,,,,,,,,,,,,489.0650584049872,None,2,0.4412003440083936,489.0650584049872,None,,,,,,,,,,,,,,,,None,None,None,,None,None,489.54850968698156,None,1,1,0.6684014430211391,489.54850968698156,None,490.2144409314933,None,None,None,None,,3,001,2023_Jan_18_1051,searchDisc5,2021.2.3,60.01114358134974,
images/exp2c_trial_0_colour1_distractors1_r.png,r,3,1,1,0,,,,,0,153,153,153,,,,,,,,,,,,,,,,,,,,,,,,,,,,,,,,,,,,,,,,,,,490.2313240899821,None,2,0.4695455660112202,490.2313240899821,None,,,,,,,,,,,,,,,,None,None,None,,None,None,490.74762819398893,None,3,1,0.6069842249853536,490.74762819398893,None,491.34767018248385,None,None,None,None,,3,001,2023_Jan_18_1051,searchDisc5,2021.2.3,60.01114358134974,
images/exp2a_trial_15_colour1_distractors1_l.png,l,1,1,1,0,,,,,0,154,154,154,,,,,,,,,,,,,,,,,,,,,,,,,,,,,,,,,,,,,,,,,,,491.3650023539958,None,2,1.2570844609872438,491.3650023539958,None,,,,,,,,,,,,,,,,None,None,None,,None,None,492.6650866300042,None,1,1,0.5211422730062623,492.6650866300042,None,493.1818651274807,None,None,None,None,,3,001,2023_Jan_18_1051,searchDisc5,2021.2.3,60.01114358134974,
images/exp2a_trial_88_colour2_distractors31_l.png,l,1,2,31,0,,,,,0,155,155,155,,,,,,,,,,,,,,,,,,,,,,,,,,,,,,,,,,,,,,,,,,,493.1978573949891,None,2,0.504471274005482,493.1978573949891,None,,,,,,,,,,,,,,,,None,None,None,,None,None,493.74788275099127,None,1,1,0.7782643450191244,493.74788275099127,None,494.53098651250184,None,None,None,None,,3,001,2023_Jan_18_1051,searchDisc5,2021.2.3,60.01114358134974,
images/exp2c_trial_191_colour0_distractors0_l.png,l,1,0,0,0,,,,,0,156,156,156,,,,,,,,,,,,,,,,,,,,,,,,,,,,,,,,,,,,,,,,,,,494.5476981999818,None,2,0.38726452202536166,494.5476981999818,None,,,,,,,,,,,,,,,,None,None,None,,None,None,494.98309812898515,None,1,1,0.5574292899982538,494.98309812898515,None,495.53215585248836,None,None,None,None,,3,001,2023_Jan_18_1051,searchDisc5,2021.2.3,60.01114358134974,
images/exp2c_trial_27_colour3_distractors9_l.png,l,1,3,9,0,,,,,0,157,157,157,,,,,,,,,,,,,,,,,,,,,,,,,,,,,,,,,,,,,,,,,,,495.5480817820062,None,2,0.7242577500001062,495.5480817820062,None,,,,,,,,,,,,,,,,None,None,None,,None,None,496.3146637369937,None,1,1,0.4842713160032872,496.3146637369937,None,496.7977138444985,None,None,None,None,,3,001,2023_Jan_18_1051,searchDisc5,2021.2.3,60.01114358134974,
images/exp2b_trial_25_colour3_distractors1_l.png,l,1,3,1,0,,,,,0,158,158,158,,,,,,,,,,,,,,,,,,,,,,,,,,,,,,,,,,,,,,,,,,,496.81482824200066,None,2,1.0544784310040995,496.81482824200066,None,,,,,,,,,,,,,,,,None,None,None,,None,None,497.91450143398833,None,1,1,0.42395486202440225,497.91450143398833,None,498.33215074548207,None,None,None,None,,3,001,2023_Jan_18_1051,searchDisc5,2021.2.3,60.01114358134974,
images/exp1a_trial_283_colour3_distractors9_l.png,l,1,3,9,0,,,,,0,159,159,159,,,,,,,,,,,,,,,,,,,,,,,,,,,,,,,,,,,,,,,,,,,498.34745107998606,None,2,1.4199136499955785,498.34745107998606,None,,,,,,,,,,,,,,,,None,None,None,,None,None,499.81457561798743,None,1,1,0.5537069150013849,499.81457561798743,None,500.3636652194982,None,None,None,None,,3,001,2023_Jan_18_1051,searchDisc5,2021.2.3,60.01114358134974,
images/exp2c_trial_89_colour3_distractors1_l.png,l,1,3,1,0,,,,,0,160,160,160,,,,,,,,,,,,,,,,,,,,,,,,,,,,,,,,,,,,,,,,,,,500.38190246300655,None,2,0.376742478023516,500.38190246300655,None,,,,,,,,,,,,,,,,None,None,None,,None,None,500.7991893120052,None,1,1,0.5514829409949016,500.7991893120052,None,501.347825168501,None,None,None,None,,3,001,2023_Jan_18_1051,searchDisc5,2021.2.3,60.01114358134974,
images/exp2a_trial_6_colour2_distractors4_r.png,r,3,2,4,0,,,,,0,161,161,161,,,,,,,,,,,,,,,,,,,,,,,,,,,,,,,,,,,,,,,,,,,501.36507566200453,None,2,0.9555090040084906,501.36507566200453,None,,,,,,,,,,,,,,,,None,None,None,,None,None,502.3647370149847,None,3,1,0.686709098983556,502.3647370149847,None,503.0479087714775,None,None,None,None,,3,001,2023_Jan_18_1051,searchDisc5,2021.2.3,60.01114358134974,
images/exp2a_trial_45_colour3_distractors19_r.png,r,3,3,19,0,,,,,0,162,162,162,,,,,,,,,,,,,,,,,,,,,,,,,,,,,,,,,,,,,,,,,,,503.0672893879819,None,2,0.45551367598818615,503.0672893879819,None,,,,,,,,,,,,,,,,None,None,None,,None,None,503.56764141799067,None,3,1,0.5695700029900763,503.56764141799067,None,504.13129219248367,None,None,None,None,,3,001,2023_Jan_18_1051,searchDisc5,2021.2.3,60.01114358134974,
images/exp2a_trial_51_colour1_distractors31_l.png,l,1,1,31,0,,,,,0,163,163,163,,,,,,,,,,,,,,,,,,,,,,,,,,,,,,,,,,,,,,,,,,,504.1473529569921,None,2,1.2400036599719897,504.1473529569921,None,,,,,,,,,,,,,,,,None,None,None,,None,None,505.4344499029976,None,1,1,0.5834372749959584,505.4344499029976,None,506.01460229647637,None,None,None,None,,3,001,2023_Jan_18_1051,searchDisc5,2021.2.3,60.01114358134974,
images/exp2c_trial_195_colour1_distractors19_r.png,r,3,1,19,0,,,,,0,164,164,164,,,,,,,,,,,,,,,,,,,,,,,,,,,,,,,,,,,,,,,,,,,506.0322758060065,None,2,0.3905088969913777,506.0322758060065,None,,,,,,,,,,,,,,,,None,None,None,,None,None,506.46777560398914,None,3,1,0.6509046910214238,506.46777560398914,None,507.1146362854779,None,None,None,None,,3,001,2023_Jan_18_1051,searchDisc5,2021.2.3,60.01114358134974,
images/exp2a_trial_218_colour3_distractors4_l.png,l,1,3,4,0,,,,,0,165,165,165,,,,,,,,,,,,,,,,,,,,,,,,,,,,,,,,,,,,,,,,,,,507.13196175399935,None,2,0.47207914499449544,507.13196175399935,None,,,,,,,,,,,,,,,,None,None,None,,None,None,507.64909256098326,None,1,1,0.5709965919959359,507.64909256098326,None,508.21484203349974,None,None,None,None,,3,001,2023_Jan_18_1051,searchDisc5,2021.2.3,60.01114358134974,
images/exp2a_trial_72_colour2_distractors19_r.png,r,3,2,19,0,,,,,0,166,166,166,,,,,,,,,,,,,,,,,,,,,,,,,,,,,,,,,,,,,,,,,,,508.23129300097935,None,2,0.4878002319892403,508.23129300097935,None,,,,,,,,,,,,,,,,None,None,None,,None,None,508.76686404200154,None,3,1,0.7161114430055022,508.76686404200154,None,509.48133623249305,None,None,None,None,,3,001,2023_Jan_18_1051,searchDisc5,2021.2.3,60.01114358134974,
images/exp2b_trial_232_colour2_distractors19_r.png,r,3,2,19,0,,,,,0,167,167,167,,,,,,,,,,,,,,,,,,,,,,,,,,,,,,,,,,,,,,,,,,,509.4984205929795,None,2,0.487970519985538,509.4984205929795,None,,,,,,,,,,,,,,,,None,None,None,,None,None,510.0322086160013,None,3,1,0.6365343230136205,510.0322086160013,None,510.6644358684862,None,None,None,None,,3,001,2023_Jan_18_1051,searchDisc5,2021.2.3,60.01114358134974,
images/exp2a_trial_26_colour3_distractors4_l.png,l,1,3,4,0,,,,,0,168,168,168,,,,,,,,,,,,,,,,,,,,,,,,,,,,,,,,,,,,,,,,,,,510.6823153559817,None,2,0.45432075500139035,510.6823153559817,None,,,,,,,,,,,,,,,,None,None,None,,None,None,511.18154505299754,None,1,1,0.5558439890155569,511.18154505299754,None,511.7314724384778,None,None,None,None,,3,001,2023_Jan_18_1051,searchDisc5,2021.2.3,60.01114358134974,
images/exp1a_trial_73_colour2_distractors31_r.png,r,3,2,31,0,,,,,0,169,169,169,,,,,,,,,,,,,,,,,,,,,,,,,,,,,,,,,,,,,,,,,,,511.74872738099657,None,2,0.47216673000366427,511.74872738099657,None,,,,,,,,,,,,,,,,None,None,None,,None,None,512.2649341000069,None,3,1,0.5987680400139652,512.2649341000069,None,512.8649472274847,None,None,None,None,,3,001,2023_Jan_18_1051,searchDisc5,2021.2.3,60.01114358134974,
images/exp1a_trial_307_colour1_distractors31_l.png,l,1,1,31,0,,,,,0,170,170,170,,,,,,,,,,,,,,,,,,,,,,,,,,,,,,,,,,,,,,,,,,,512.8820035999815,None,2,0.4710514819889795,512.8820035999815,None,,,,,,,,,,,,,,,,None,None,None,,None,None,513.3993968809955,None,1,1,0.6843410620058421,513.3993968809955,None,514.0814485324809,None,None,None,None,,3,001,2023_Jan_18_1051,searchDisc5,2021.2.3,60.01114358134974,
images/exp1a_trial_16_colour1_distractors4_l.png,l,1,1,4,0,,,,,0,171,171,171,,,,,,,,,,,,,,,,,,,,,,,,,,,,,,,,,,,,,,,,,,,514.0993842309981,None,2,0.4377194150001742,514.0993842309981,None,,,,,,,,,,,,,,,,None,None,None,,None,None,514.5827791999909,None,1,1,0.5718982329999562,514.5827791999909,None,515.148240455499,None,None,None,None,,3,001,2023_Jan_18_1051,searchDisc5,2021.2.3,60.01114358134974,
images/exp2a_trial_236_colour3_distractors9_r.png,r,3,3,9,0,,,,,0,172,172,172,,,,,,,,,,,,,,,,,,,,,,,,,,,,,,,,,,,,,,,,,,,515.165913890989,None,2,0.42082313101855107,515.165913890989,None,,,,,,,,,,,,,,,,None,None,None,,None,None,515.6321005130012,None,3,1,0.6724127900088206,515.6321005130012,None,516.2993883794843,None,None,None,None,,3,001,2023_Jan_18_1051,searchDisc5,2021.2.3,60.01114358134974,
images/exp2a_trial_186_colour3_distractors4_l.png,l,1,3,4,0,,,,,0,173,173,173,,,,,,,,,,,,,,,,,,,,,,,,,,,,,,,,,,,,,,,,,,,516.3169084939873,None,2,0.4376801799808163,516.3169084939873,None,,,,,,,,,,,,,,,,None,None,None,,None,None,516.7983119669952,None,1,1,0.5735591039992869,516.7983119669952,None,517.3672021694802,None,None,None,None,,3,001,2023_Jan_18_1051,searchDisc5,2021.2.3,60.01114358134974,
images/exp2a_trial_215_colour2_distractors19_l.png,l,1,2,19,0,,,,,0,174,174,174,,,,,,,,,,,,,,,,,,,,,,,,,,,,,,,,,,,,,,,,,,,517.3823987070064,None,2,1.369462934002513,517.3823987070064,None,,,,,,,,,,,,,,,,None,None,None,,None,None,518.8008351599856,None,1,1,0.6817549520055763,518.8008351599856,None,519.4811866684904,None,None,None,None,,3,001,2023_Jan_18_1051,searchDisc5,2021.2.3,60.01114358134974,
images/exp2b_trial_275_colour1_distractors31_l.png,l,1,1,31,0,,,,,0,175,175,175,,,,,,,,,,,,,,,,,,,,,,,,,,,,,,,,,,,,,,,,,,,519.4986448959971,None,2,0.4251161599822808,519.4986448959971,None,,,,,,,,,,,,,,,,None,None,None,,None,None,519.9661081589875,None,1,1,0.5500707769824658,519.9661081589875,None,520.5150485324993,None,None,None,None,,3,001,2023_Jan_18_1051,searchDisc5,2021.2.3,60.01114358134974,
images/exp2c_trial_169_colour2_distractors31_r.png,r,3,2,31,0,,,,,0,176,176,176,,,,,,,,,,,,,,,,,,,,,,,,,,,,,,,,,,,,,,,,,,,520.5320580109837,None,2,0.7879282549838535,520.5320580109837,None,,,,,,,,,,,,,,,,None,None,None,,None,None,521.3651844419946,None,3,1,0.73818268100149,521.3651844419946,None,522.1005192964949,None,None,None,None,,3,001,2023_Jan_18_1051,searchDisc5,2021.2.3,60.01114358134974,
images/exp1a_trial_65_colour1_distractors4_r.png,r,3,1,4,0,,,,,0,177,177,177,,,,,,,,,,,,,,,,,,,,,,,,,,,,,,,,,,,,,,,,,,,522.1178810590063,None,2,0.43561261700233445,522.1178810590063,None,,,,,,,,,,,,,,,,None,None,None,,None,None,522.5994905859989,None,3,1,0.7386039569973946,522.5994905859989,None,523.3317621434835,None,None,None,None,,3,001,2023_Jan_18_1051,searchDisc5,2021.2.3,60.01114358134974,
images/exp2b_trial_290_colour1_distractors9_r.png,r,3,1,9,0,,,,,0,178,178,178,,,,,,,,,,,,,,,,,,,,,,,,,,,,,,,,,,,,,,,,,,,523.3509031529829,None,2,0.3741093240096234,523.3509031529829,None,,,,,,,,,,,,,,,,None,None,None,,None,None,523.7672850590025,None,3,1,0.6681787600100506,523.7672850590025,None,524.4317890175007,None,None,None,None,,3,001,2023_Jan_18_1051,searchDisc5,2021.2.3,60.01114358134974,
images/exp2c_trial_184_colour2_distractors31_l.png,l,1,2,31,0,,,,,0,179,179,179,,,,,,,,,,,,,,,,,,,,,,,,,,,,,,,,,,,,,,,,,,,524.449198058981,None,2,0.3881048320035916,524.449198058981,None,,,,,,,,,,,,,,,,None,None,None,,None,None,524.882241424988,None,1,1,0.5690277230169158,524.882241424988,None,525.4484712874837,None,None,None,None,,3,001,2023_Jan_18_1051,searchDisc5,2021.2.3,60.01114358134974,
images/exp2a_trial_310_colour2_distractors9_l.png,l,1,2,9,0,,,,,0,180,180,180,,,,,,,,,,,,,,,,,,,,,,,,,,,,,,,,,,,,,,,,,,,525.4657033679832,None,2,0.48793813202064484,525.4657033679832,None,,,,,,,,,,,,,,,,None,None,None,,None,None,526.001500110986,None,1,1,0.752148705010768,526.001500110986,None,526.7486094144842,None,None,None,None,,3,001,2023_Jan_18_1051,searchDisc5,2021.2.3,60.01114358134974,
images/exp2a_trial_142_colour3_distractors31_r.png,r,3,3,31,0,,,,,0,181,181,181,,,,,,,,,,,,,,,,,,,,,,,,,,,,,,,,,,,,,,,,,,,526.7660534429888,None,2,0.3563411830109544,526.7660534429888,None,,,,,,,,,,,,,,,,None,None,None,,None,None,527.1673763190047,None,3,1,0.7341404470207635,527.1673763190047,None,527.8985621654865,None,None,None,None,,3,001,2023_Jan_18_1051,searchDisc5,2021.2.3,60.01114358134974,
images/exp1a_trial_176_colour1_distractors4_l.png,l,1,1,4,0,,,,,0,182,182,182,,,,,,,,,,,,,,,,,,,,,,,,,,,,,,,,,,,,,,,,,,,527.9158861839969,None,2,0.5061125530046411,527.9158861839969,None,,,,,,,,,,,,,,,,None,None,None,,None,None,528.4664477839833,None,1,1,0.720824108022498,528.4664477839833,None,529.1819247044768,None,None,None,None,,3,001,2023_Jan_18_1051,searchDisc5,2021.2.3,60.01114358134974,
images/exp2a_trial_175_colour1_distractors1_l.png,l,1,1,1,0,,,,,0,183,183,183,,,,,,,,,,,,,,,,,,,,,,,,,,,,,,,,,,,,,,,,,,,529.1993611329817,None,2,0.48854939398006536,529.1993611329817,None,,,,,,,,,,,,,,,,None,None,None,,None,None,529.73127131199,None,1,1,0.7563808080158196,529.73127131199,None,530.4830236124835,None,None,None,None,,3,001,2023_Jan_18_1051,searchDisc5,2021.2.3,60.01114358134974,
images/exp1a_trial_129_colour1_distractors4_r.png,r,3,1,4,0,,,,,0,184,184,184,,,,,,,,,,,,,,,,,,,,,,,,,,,,,,,,,,,,,,,,,,,530.4984634129796,None,2,0.3732672579935752,530.4984634129796,None,,,,,,,,,,,,,,,,None,None,None,,None,None,530.918621047982,None,3,1,0.7520017230126541,530.918621047982,None,531.6652656044898,None,None,None,None,,3,001,2023_Jan_18_1051,searchDisc5,2021.2.3,60.01114358134974,
images/exp2b_trial_295_colour2_distractors9_r.png,r,3,2,9,0,,,,,0,185,185,185,,,,,,,,,,,,,,,,,,,,,,,,,,,,,,,,,,,,,,,,,,,531.6818300150044,None,2,0.43870044499635696,531.6818300150044,None,,,,,,,,,,,,,,,,None,None,None,,None,None,532.1647622440069,None,3,1,0.7044296639796812,532.1647622440069,None,532.8654824014957,None,None,None,None,,3,001,2023_Jan_18_1051,searchDisc5,2021.2.3,60.01114358134974,
images/exp1a_trial_280_colour2_distractors31_l.png,l,1,2,31,0,,,,,0,186,186,186,,,,,,,,,,,,,,,,,,,,,,,,,,,,,,,,,,,,,,,,,,,532.8815373899997,None,2,0.38773791000130586,532.8815373899997,None,,,,,,,,,,,,,,,,None,None,None,,None,None,533.3179025699792,None,1,1,0.7821988799842075,533.3179025699792,None,534.0981706114981,None,None,None,None,,3,001,2023_Jan_18_1051,searchDisc5,2021.2.3,60.01114358134974,
images/exp2b_trial_202_colour3_distractors1_r.png,r,3,3,1,0,,,,,0,187,187,187,,,,,,,,,,,,,,,,,,,,,,,,,,,,,,,,,,,,,,,,,,,534.1160145110043,None,2,0.37125583601300605,534.1160145110043,None,,,,,,,,,,,,,,,,None,None,None,,None,None,534.5334920719906,None,3,1,0.8896098040277138,534.5334920719906,None,535.4155874114804,None,None,None,None,,3,001,2023_Jan_18_1051,searchDisc5,2021.2.3,60.01114358134974,
images/exp2c_trial_102_colour2_distractors4_r.png,r,3,2,4,0,,,,,0,188,188,188,,,,,,,,,,,,,,,,,,,,,,,,,,,,,,,,,,,,,,,,,,,535.4327016320021,None,2,0.43772520500351675,535.4327016320021,None,,,,,,,,,,,,,,,,None,None,None,,None,None,535.9177096530038,None,3,1,0.8390969930042047,535.9177096530038,None,536.7489304864866,None,None,None,None,,3,001,2023_Jan_18_1051,searchDisc5,2021.2.3,60.01114358134974,
images/exp2b_trial_297_colour2_distractors31_r.png,r,3,2,31,0,,,,,0,189,189,189,,,,,,,,,,,,,,,,,,,,,,,,,,,,,,,,,,,,,,,,,,,536.7661887489958,None,2,0.4542427569977008,536.7661887489958,None,,,,,,,,,,,,,,,,None,None,None,,None,None,537.2684669570008,None,3,1,0.7365624570229556,537.2684669570008,None,537.9988303194841,None,None,None,None,,3,001,2023_Jan_18_1051,searchDisc5,2021.2.3,60.01114358134974,
images/exp2c_trial_309_colour2_distractors4_l.png,l,1,2,4,0,,,,,0,190,190,190,,,,,,,,,,,,,,,,,,,,,,,,,,,,,,,,,,,,,,,,,,,538.0160837099829,None,2,0.42117121201590635,538.0160837099829,None,,,,,,,,,,,,,,,,None,None,None,,None,None,538.4822714389884,None,1,1,0.522293838992482,538.4822714389884,None,538.9988965494995,None,None,None,None,,3,001,2023_Jan_18_1051,searchDisc5,2021.2.3,60.01114358134974,
images/exp1a_trial_58_colour3_distractors4_l.png,l,1,3,4,0,,,,,0,191,191,191,,,,,,,,,,,,,,,,,,,,,,,,,,,,,,,,,,,,,,,,,,,539.0183435140061,None,2,0.5063774900045246,539.0183435140061,None,,,,,,,,,,,,,,,,None,None,None,,None,None,539.5682210850064,None,1,1,0.7387433279945981,539.5682210850064,None,540.2989121304854,None,None,None,None,,3,001,2023_Jan_18_1051,searchDisc5,2021.2.3,60.01114358134974,
images/exp1a_trial_237_colour3_distractors19_r.png,r,3,3,19,0,,,,,0,192,192,192,,,,,,,,,,,,,,,,,,,,,,,,,,,,,,,,,,,,,,,,,,,540.3161537160049,None,2,0.3526333630143199,540.3161537160049,None,,,,,,,,,,,,,,,,None,None,None,,None,None,540.7182442369813,None,3,1,0.6015450359846,540.7182442369813,None,541.3154808904947,None,None,None,None,,3,001,2023_Jan_18_1051,searchDisc5,2021.2.3,60.01114358134974,
images/exp2a_trial_146_colour1_distractors19_l.png,l,1,1,19,0,,,,,0,193,193,193,,,,,,,,,,,,,,,,,,,,,,,,,,,,,,,,,,,,,,,,,,,541.3348141489842,None,2,0.40521956302109174,541.3348141489842,None,,,,,,,,,,,,,,,,None,None,None,,None,None,541.7832479469944,None,1,1,0.7032382180041168,541.7832479469944,None,542.4822687205015,None,None,None,None,,3,001,2023_Jan_18_1051,searchDisc5,2021.2.3,60.01114358134974,
images/exp1a_trial_284_colour3_distractors19_l.png,l,1,3,19,0,,,,,0,194,194,194,,,,,,,,,,,,,,,,,,,,,,,,,,,,,,,,,,,,,,,,,,,542.5006438629935,None,2,0.37116838298970833,542.5006438629935,None,,,,,,,,,,,,,,,,None,None,None,,None,None,542.9189514619939,None,1,1,0.5354240989836399,542.9189514619939,None,543.4490378484916,None,None,None,None,,3,001,2023_Jan_18_1051,searchDisc5,2021.2.3,60.01114358134974,
images/exp2b_trial_203_colour3_distractors4_r.png,r,3,3,4,0,,,,,0,195,195,195,,,,,,,,,,,,,,,,,,,,,,,,,,,,,,,,,,,,,,,,,,,543.4665100069833,None,2,0.40618213900597766,543.4665100069833,None,,,,,,,,,,,,,,,,None,None,None,,None,None,543.9159586250025,None,3,1,0.6217897399910726,543.9159586250025,None,544.5333278044855,None,None,None,None,,3,001,2023_Jan_18_1051,searchDisc5,2021.2.3,60.01114358134974,
images/exp2b_trial_175_colour1_distractors1_l.png,l,1,1,1,0,,,,,0,196,196,196,,,,,,,,,,,,,,,,,,,,,,,,,,,,,,,,,,,,,,,,,,,544.5480621850002,None,2,0.38734929700149223,544.5480621850002,None,,,,,,,,,,,,,,,,None,None,None,,None,None,544.985522108007,None,1,1,0.4570559480052907,544.985522108007,None,545.4335392255016,None,None,None,None,,3,001,2023_Jan_18_1051,searchDisc5,2021.2.3,60.01114358134974,
images/exp1a_trial_269_colour3_distractors19_r.png,r,3,3,19,0,,,,,0,197,197,197,,,,,,,,,,,,,,,,,,,,,,,,,,,,,,,,,,,,,,,,,,,545.4510352920042,None,2,0.35771596801350825,545.4510352920042,None,,,,,,,,,,,,,,,,None,None,None,,None,None,545.851387090981,None,3,1,0.5487670169968624,545.851387090981,None,546.4001616274909,None,None,None,None,,3,001,2023_Jan_18_1051,searchDisc5,2021.2.3,60.01114358134974,
images/exp1a_trial_110_colour3_distractors31_r.png,r,3,3,31,0,,,,,0,198,198,198,,,,,,,,,,,,,,,,,,,,,,,,,,,,,,,,,,,,,,,,,,,546.4157225759991,None,2,0.3709096469974611,546.4157225759991,None,,,,,,,,,,,,,,,,None,None,None,,None,None,546.8347702680039,None,3,1,0.6326366899884306,546.8347702680039,None,547.4654158824851,None,None,None,None,,3,001,2023_Jan_18_1051,searchDisc5,2021.2.3,60.01114358134974,
images/exp2b_trial_285_colour3_distractors31_l.png,l,1,3,31,0,,,,,0,199,199,199,,,,,,,,,,,,,,,,,,,,,,,,,,,,,,,,,,,,,,,,,,,547.4822610239789,None,2,0.35516745000495575,547.4822610239789,None,,,,,,,,,,,,,,,,None,None,None,,None,None,547.8828050669981,None,1,1,0.585551433992805,547.8828050669981,None,548.465241993501,None,None,None,None,,3,001,2023_Jan_18_1051,searchDisc5,2021.2.3,60.01114358134974,
images/exp2b_trial_248_colour2_distractors31_l.png,l,1,2,31,0,,,,,0,200,200,200,,,,,,,,,,,,,,,,,,,,,,,,,,,,,,,,,,,,,,,,,,,548.4826114049938,None,2,0.35518164501991123,548.4826114049938,None,,,,,,,,,,,,,,,,None,None,None,,None,None,548.8834214929957,None,1,1,0.6363842560094781,548.8834214929957,None,549.5157639034878,None,None,None,None,,3,001,2023_Jan_18_1051,searchDisc5,2021.2.3,60.01114358134974,
images/exp2a_trial_21_colour2_distractors4_l.png,l,1,2,4,0,,,,,0,201,201,201,,,,,,,,,,,,,,,,,,,,,,,,,,,,,,,,,,,,,,,,,,,549.5330679430044,None,2,0.35465025098528713,549.5330679430044,None,,,,,,,,,,,,,,,,None,None,None,,None,None,549.934655421006,None,1,1,0.5068549300194718,549.934655421006,None,550.4334822285018,None,None,None,None,,3,001,2023_Jan_18_1051,searchDisc5,2021.2.3,60.01114358134974,
images/exp2c_trial_64_colour1_distractors1_r.png,r,3,1,1,0,,,,,0,202,202,202,,,,,,,,,,,,,,,,,,,,,,,,,,,,,,,,,,,,,,,,,,,550.4497442340071,None,2,0.3869270200084429,550.4497442340071,None,,,,,,,,,,,,,,,,None,None,None,,None,None,550.8856264359783,None,3,1,0.6210040510050021,550.8856264359783,None,551.4994810004864,None,None,None,None,,3,001,2023_Jan_18_1051,searchDisc5,2021.2.3,60.01114358134974,
images/exp1a_trial_1_colour1_distractors4_r.png,r,3,1,4,0,,,,,0,203,203,203,,,,,,,,,,,,,,,,,,,,,,,,,,,,,,,,,,,,,,,,,,,551.5158008220023,None,2,0.4049473959894385,551.5158008220023,None,,,,,,,,,,,,,,,,None,None,None,,None,None,551.968195747002,None,3,1,1.3899130900099408,551.968195747002,None,553.3504070664785,None,None,None,None,,3,001,2023_Jan_18_1051,searchDisc5,2021.2.3,60.01114358134974,
images/exp1a_trial_302_colour3_distractors31_r.png,r,3,3,31,0,,,,,0,204,204,204,,,,,,,,,,,,,,,,,,,,,,,,,,,,,,,,,,,,,,,,,,,553.36608539999,None,2,0.4538246629817877,553.36608539999,None,,,,,,,,,,,,,,,,None,None,None,,None,None,553.8685006519954,None,3,1,0.7149204690067563,553.8685006519954,None,554.5825648144964,None,None,None,None,,3,001,2023_Jan_18_1051,searchDisc5,2021.2.3,60.01114358134974,
images/exp2c_trial_90_colour3_distractors4_l.png,l,1,3,4,0,,,,,0,205,205,205,,,,,,,,,,,,,,,,,,,,,,,,,,,,,,,,,,,,,,,,,,,554.5991104359855,None,2,0.35669993597548455,554.5991104359855,None,,,,,,,,,,,,,,,,None,None,None,,None,None,555.0021892219956,None,1,1,0.636684047000017,555.0021892219956,None,555.6325378684996,None,None,None,None,,3,001,2023_Jan_18_1051,searchDisc5,2021.2.3,60.01114358134974,
images/exp2b_trial_31_colour0_distractors0_l.png,l,1,0,0,0,,,,,0,206,206,206,,,,,,,,,,,,,,,,,,,,,,,,,,,,,,,,,,,,,,,,,,,555.6498133099813,None,2,0.35476804900099523,555.6498133099813,None,,,,,,,,,,,,,,,,None,None,None,,None,None,556.0494264359877,None,1,1,0.507711181009654,556.0494264359877,None,556.5505302804959,None,None,None,None,,3,001,2023_Jan_18_1051,searchDisc5,2021.2.3,60.01114358134974,
images/exp2b_trial_153_colour3_distractors1_l.png,l,1,3,1,0,,,,,0,207,207,207,,,,,,,,,,,,,,,,,,,,,,,,,,,,,,,,,,,,,,,,,,,556.5655287989939,None,2,0.3393937440123409,556.5655287989939,None,,,,,,,,,,,,,,,,None,None,None,,None,None,556.9514732520038,None,1,1,0.6701347740017809,556.9514732520038,None,557.6161083064944,None,None,None,None,,3,001,2023_Jan_18_1051,searchDisc5,2021.2.3,60.01114358134974,
images/exp1a_trial_174_colour3_distractors31_r.png,r,3,3,31,0,,,,,0,208,208,208,,,,,,,,,,,,,,,,,,,,,,,,,,,,,,,,,,,,,,,,,,,557.6326786470017,None,2,0.3537098450178746,557.6326786470017,None,,,,,,,,,,,,,,,,None,None,None,,None,None,558.0337167950056,None,3,1,0.6844404409930576,558.0337167950056,None,558.7160829734785,None,None,None,None,,3,001,2023_Jan_18_1051,searchDisc5,2021.2.3,60.01114358134974,
images/exp1a_trial_15_colour1_distractors1_l.png,l,1,1,1,0,,,,,0,209,209,209,,,,,,,,,,,,,,,,,,,,,,,,,,,,,,,,,,,,,,,,,,,558.7332025399955,None,2,0.3547951169894077,558.7332025399955,None,,,,,,,,,,,,,,,,None,None,None,,None,None,559.1351100569882,None,1,1,0.8391684660164174,559.1351100569882,None,559.9661672935035,None,None,None,None,,3,001,2023_Jan_18_1051,searchDisc5,2021.2.3,60.01114358134974,
images/exp2a_trial_184_colour2_distractors31_l.png,l,1,2,31,0,,,,,0,210,210,210,,,,,,,,,,,,,,,,,,,,,,,,,,,,,,,,,,,,,,,,,,,559.9832893419953,None,2,0.3220545450167265,559.9832893419953,None,,,,,,,,,,,,,,,,None,None,None,,None,None,560.3513303409854,None,1,1,0.7454683689866215,560.3513303409854,None,561.1005282054975,None,None,None,None,,3,001,2023_Jan_18_1051,searchDisc5,2021.2.3,60.01114358134974,
images/exp1a_trial_171_colour3_distractors4_r.png,r,3,3,4,0,,,,,0,211,211,211,,,,,,,,,,,,,,,,,,,,,,,,,,,,,,,,,,,,,,,,,,,561.1159532799793,None,2,0.2867861830163747,561.1159532799793,None,,,,,,,,,,,,,,,,None,None,None,,None,None,561.4495509739791,None,3,1,0.6559352879994549,561.4495509739791,None,562.0996224944975,None,None,None,None,,3,001,2023_Jan_18_1051,searchDisc5,2021.2.3,60.01114358134974,
images/exp2c_trial_225_colour1_distractors4_r.png,r,3,1,4,0,,,,,0,212,212,212,,,,,,,,,,,,,,,,,,,,,,,,,,,,,,,,,,,,,,,,,,,562.1166305879888,None,2,0.4196045900171157,562.1166305879888,None,,,,,,,,,,,,,,,,None,None,None,,None,None,562.5856619800034,None,3,1,0.6234998859872576,562.5856619800034,None,563.1995557274931,None,None,None,None,,3,001,2023_Jan_18_1051,searchDisc5,2021.2.3,60.01114358134974,
images/exp2b_trial_50_colour1_distractors19_l.png,l,1,1,19,0,,,,,0,213,213,213,,,,,,,,,,,,,,,,,,,,,,,,,,,,,,,,,,,,,,,,,,,563.217182405002,None,2,0.440111955977045,563.217182405002,None,,,,,,,,,,,,,,,,None,None,None,,None,None,563.7005152619968,None,1,1,0.6511529519921169,563.7005152619968,None,564.3494312514813,None,None,None,None,,3,001,2023_Jan_18_1051,searchDisc5,2021.2.3,60.01114358134974,
images/exp2b_trial_294_colour2_distractors4_r.png,r,3,2,4,0,,,,,0,214,214,214,,,,,,,,,,,,,,,,,,,,,,,,,,,,,,,,,,,,,,,,,,,564.3668254670047,None,2,0.407726197008742,564.3668254670047,None,,,,,,,,,,,,,,,,None,None,None,,None,None,564.8184201050026,None,3,1,0.6051814639940858,564.8184201050026,None,565.4173152264993,None,None,None,None,,3,001,2023_Jan_18_1051,searchDisc5,2021.2.3,60.01114358134974,
images/exp2b_trial_182_colour2_distractors9_l.png,l,1,2,9,0,,,,,0,215,215,215,,,,,,,,,,,,,,,,,,,,,,,,,,,,,,,,,,,,,,,,,,,565.4357068209792,None,2,0.48663691797992215,565.4357068209792,None,,,,,,,,,,,,,,,,None,None,None,,None,None,565.968433417991,None,1,1,0.5851563720207196,565.968433417991,None,566.5497153254837,None,None,None,None,,3,001,2023_Jan_18_1051,searchDisc5,2021.2.3,60.01114358134974,
images/exp2c_trial_19_colour1_distractors31_l.png,l,1,1,31,0,,,,,0,216,216,216,,,,,,,,,,,,,,,,,,,,,,,,,,,,,,,,,,,,,,,,,,,566.5661349110014,None,2,0.6872490030073095,566.5661349110014,None,,,,,,,,,,,,,,,,None,None,None,,None,None,567.3001036729838,None,1,1,0.5862492220185231,567.3001036729838,None,567.8830064594949,None,None,None,None,,3,001,2023_Jan_18_1051,searchDisc5,2021.2.3,60.01114358134974,
images/exp2a_trial_168_colour2_distractors19_r.png,r,3,2,19,0,,,,,0,217,217,217,,,,,,,,,,,,,,,,,,,,,,,,,,,,,,,,,,,,,,,,,,,567.9003053529887,None,2,0.4239945160225034,567.9003053529887,None,,,,,,,,,,,,,,,,None,None,None,,None,None,568.371942992002,None,3,1,0.6610487010038923,568.371942992002,None,569.033019049486,None,None,None,None,,3,001,2023_Jan_18_1051,searchDisc5,2021.2.3,60.01114358134974,
images/exp2b_trial_5_colour2_distractors1_r.png,r,3,2,1,0,,,,,0,218,218,218,,,,,,,,,,,,,,,,,,,,,,,,,,,,,,,,,,,,,,,,,,,569.0501702829788,None,2,0.4233904909924604,569.0501702829788,None,,,,,,,,,,,,,,,,None,None,None,,None,None,569.5166536459874,None,3,1,0.6549639079894405,569.5166536459874,None,570.167405712491,None,None,None,None,,3,001,2023_Jan_18_1051,searchDisc5,2021.2.3,60.01114358134974,
images/exp1a_trial_29_colour3_distractors31_l.png,l,1,3,31,0,,,,,0,219,219,219,,,,,,,,,,,,,,,,,,,,,,,,,,,,,,,,,,,,,,,,,,,570.1827795509889,None,2,0.43686507700476795,570.1827795509889,None,,,,,,,,,,,,,,,,None,None,None,,None,None,570.6672223219939,None,1,1,0.6181791209965013,570.6672223219939,None,571.2842701484769,None,None,None,None,,3,001,2023_Jan_18_1051,searchDisc5,2021.2.3,60.01114358134974,
images/exp1a_trial_132_colour1_distractors31_r.png,r,3,1,31,0,,,,,0,220,220,220,,,,,,,,,,,,,,,,,,,,,,,,,,,,,,,,,,,,,,,,,,,571.3007055939815,None,2,0.42165727500105277,571.3007055939815,None,,,,,,,,,,,,,,,,None,None,None,,None,None,571.7690132049902,None,3,1,1.0000372380018234,571.7690132049902,None,572.7667458094802,None,None,None,None,,3,001,2023_Jan_18_1051,searchDisc5,2021.2.3,60.01114358134974,
images/exp2a_trial_64_colour1_distractors1_r.png,r,3,1,1,0,,,,,0,221,221,221,,,,,,,,,,,,,,,,,,,,,,,,,,,,,,,,,,,,,,,,,,,572.7822341069987,None,2,0.42213789498782717,572.7822341069987,None,,,,,,,,,,,,,,,,None,None,None,,None,None,573.2500196069886,None,3,1,0.8046476620074827,573.2500196069886,None,574.0507651884836,None,None,None,None,,3,001,2023_Jan_18_1051,searchDisc5,2021.2.3,60.01114358134974,
images/exp2a_trial_208_colour1_distractors4_l.png,l,1,1,4,0,,,,,0,222,222,222,,,,,,,,,,,,,,,,,,,,,,,,,,,,,,,,,,,,,,,,,,,574.0690269790066,None,2,0.43786669298424385,574.0690269790066,None,,,,,,,,,,,,,,,,None,None,None,,None,None,574.5523050820048,None,1,1,0.5383329280011822,574.5523050820048,None,575.0832217864954,None,None,None,None,,3,001,2023_Jan_18_1051,searchDisc5,2021.2.3,60.01114358134974,
images/exp2a_trial_201_colour2_distractors31_r.png,r,3,2,31,0,,,,,0,223,223,223,,,,,,,,,,,,,,,,,,,,,,,,,,,,,,,,,,,,,,,,,,,575.1001854100032,None,2,0.4234271449968219,575.1001854100032,None,,,,,,,,,,,,,,,,None,None,None,,None,None,575.5723830960051,None,3,1,0.6270376709871925,575.5723830960051,None,576.199449972497,None,None,None,None,,3,001,2023_Jan_18_1051,searchDisc5,2021.2.3,60.01114358134974,
images/exp1a_trial_149_colour2_distractors4_l.png,l,1,2,4,0,,,,,0,224,224,224,,,,,,,,,,,,,,,,,,,,,,,,,,,,,,,,,,,,,,,,,,,576.2170328399807,None,2,0.43941206301678903,576.2170328399807,None,,,,,,,,,,,,,,,,None,None,None,,None,None,576.7010939889879,None,1,1,0.6032513800018933,576.7010939889879,None,577.2992282725027,None,None,None,None,,3,001,2023_Jan_18_1051,searchDisc5,2021.2.3,60.01114358134974,
images/exp2b_trial_135_colour2_distractors9_r.png,r,3,2,9,0,,,,,0,225,225,225,,,,,,,,,,,,,,,,,,,,,,,,,,,,,,,,,,,,,,,,,,,577.3172938750067,None,2,0.390717347007012,577.3172938750067,None,,,,,,,,,,,,,,,,None,None,None,,None,None,577.7525377449929,None,3,1,0.6026358550006989,577.7525377449929,None,578.3501069534832,None,None,None,None,,3,001,2023_Jan_18_1051,searchDisc5,2021.2.3,60.01114358134974,
