ImageFile,targ_side,correctAnswer,colour,distNo,targetType,trials_2.thisRepN,trials_2.thisTrialN,trials_2.thisN,trials_2.thisIndex,trials.thisRepN,trials.thisTrialN,trials.thisN,trials.thisIndex,text_6.started,text_6.stopped,buttonBox.keys,buttonBox.rt,buttonBox.started,buttonBox.stopped,text_7.started,text_7.stopped,buttonBox_3.keys,buttonBox_3.rt,buttonBox_3.started,buttonBox_3.stopped,text_8.started,text_8.stopped,buttonBox_4.keys,buttonBox_4.rt,buttonBox_4.started,buttonBox_4.stopped,text_9.started,text_9.stopped,buttonBox_5.keys,buttonBox_5.rt,buttonBox_5.started,buttonBox_5.stopped,text_2.started,text_2.stopped,buttonBox_6.keys,buttonBox_6.rt,buttonBox_6.started,buttonBox_6.stopped,text_5.started,text_5.stopped,buttonBox_7.keys,buttonBox_7.rt,image_2.started,image_2.stopped,image_3.started,image_3.stopped,buttonBox_8.keys,buttonBox_8.rt,buttonBox_8.started,buttonBox_8.stopped,polygon.started,polygon.stopped,buttonBox_9.keys,buttonBox_9.rt,buttonBox_9.started,buttonBox_9.stopped,image.started,image.stopped,buttonBox_10.keys,buttonBox_10.corr,buttonBox_10.rt,buttonBox_10.started,buttonBox_10.stopped,text_4.started,text_4.stopped,text.started,text.stopped,buttonBox_11.keys,buttonBox_11.rt,buttonBox_11.started,buttonBox_11.stopped,targetTypeInstruction.started,targetTypeInstruction.stopped,buttonBox_2.keys,buttonBox_2.rt,buttonBox_2.started,buttonBox_2.stopped,dispStimuli.started,dispStimuli.stopped,buttonBox_12.keys,buttonBox_12.corr,buttonBox_12.rt,buttonBox_12.started,buttonBox_12.stopped,breakMessage.started,breakMessage.stopped,buttonBox_13.keys,buttonBox_13.started,buttonBox_13.stopped,buttonBox_13.rt,participant,session,date,expName,psychopyVersion,frameRate,
,,,,,,,,,,,,,,67.61307310900884,None,2,11.24141509499168,67.61307310900884,None,,,,,,,,,,,,,,,,,,,,,,,,,,,,,,,,,,,,,,,,,,,,,,,,,,,,,,,,,,,,,,,,,,,,,,,,,,,,,40,001,2023_Jan_30_1717,searchDisc5,2021.2.3,60.28189489782824,
,,,,,,,,,,,,,,,,,,,,78.84690839902032,None,2,30.546280579990707,78.84690839902032,None,,,,,,,,,,,,,,,,,,,,,,,,,,,,,,,,,,,,,,,,,,,,,,,,,,,,,,,,,,,,,,,,,,,,,,,40,001,2023_Jan_30_1717,searchDisc5,2021.2.3,60.28189489782824,
,,,,,,,,,,,,,,,,,,,,,,,,,,109.39565876801498,None,2,1.633108775014989,109.39565876801498,None,,,,,,,,,,,,,,,,,,,,,,,,,,,,,,,,,,,,,,,,,,,,,,,,,,,,,,,,,,,,,,,,,40,001,2023_Jan_30_1717,searchDisc5,2021.2.3,60.28189489782824,
,,,,,,,,,,,,,,,,,,,,,,,,,,,,,,,,111.02903327299282,None,2,2.2813835270353593,111.02903327299282,None,,,,,,,,,,,,,,,,,,,,,,,,,,,,,,,,,,,,,,,,,,,,,,,,,,,,,,,,,,,40,001,2023_Jan_30_1717,searchDisc5,2021.2.3,60.28189489782824,
,,,,,,,,,,,,,,,,,,,,,,,,,,,,,,,,,,,,,,113.31477479700698,None,2,8.702391098020598,114.29787502501858,None,,,,,,,,,,,,,,,,,,,,,,,,,,,,,,,,,,,,,,,,,,,,,,,,,,,,,40,001,2023_Jan_30_1717,searchDisc5,2021.2.3,60.28189489782824,
,,,,,,,,,,,,,,,,,,,,,,,,,,,,,,,,,,,,,,,,,,,,122.99802129802993,None,2,7.498324774031062,,,,,,,,,,,,,,,,,,,,,,,,,,,,,,,,,,,,,,,,,,,,,,,,,40,001,2023_Jan_30_1717,searchDisc5,2021.2.3,60.28189489782824,
,,,,,,,,,,,,,,,,,,,,,,,,,,,,,,,,,,,,,,,,,,,,,,,,133.49620629404671,None,133.49620629404671,None,2,8.366568637953606,133.49620629404671,None,,,,,,,,,,,,,,,,,,,,,,,,,,,,,,,,,,,,,,,,,40,001,2023_Jan_30_1717,searchDisc5,2021.2.3,60.28189489782824,
Practice arrays/exp1a_trial_8_colour2_distractors19_r.png,r,3,,,,0,0,0,3,,,,,,,,,,,,,,,,,,,,,,,,,,,,,,,,,,,,,,,,,,,,,,,141.89660375803942,None,2,4.869488778989762,141.89660375803942,None,146.81749243999366,None,3,1,2.035785579995718,146.81749243999366,None,148.84649035101756,None,,,,,,,,,,,,,,,,,,,,,,,,,,40,001,2023_Jan_30_1717,searchDisc5,2021.2.3,60.28189489782824,
Practice arrays/exp1a_trial_18_colour1_distractors19_l.png,l,1,,,,0,1,1,8,,,,,,,,,,,,,,,,,,,,,,,,,,,,,,,,,,,,,,,,,,,,,,,150.8486954330001,None,2,1.896914701035712,150.8486954330001,None,152.79937633202644,None,1,1,2.318648505024612,152.79937633202644,None,155.11381274304586,None,,,,,,,,,,,,,,,,,,,,,,,,,,40,001,2023_Jan_30_1717,searchDisc5,2021.2.3,60.28189489782824,
Practice arrays/exp1a_trial_10_colour3_distractors1_r.png,r,3,,,,0,2,2,4,,,,,,,,,,,,,,,,,,,,,,,,,,,,,,,,,,,,,,,,,,,,,,,157.11568508000346,None,2,0.749254230002407,157.11568508000346,None,157.91389125800924,None,3,1,0.8562113970401697,157.91389125800924,None,158.7636644860031,None,,,,,,,,,,,,,,,,,,,,,,,,,,40,001,2023_Jan_30_1717,searchDisc5,2021.2.3,60.28189489782824,
Practice arrays/exp1a_trial_7_colour2_distractors9_r.png,r,3,,,,0,3,3,2,,,,,,,,,,,,,,,,,,,,,,,,,,,,,,,,,,,,,,,,,,,,,,,160.76574992900714,None,2,0.4139541830518283,160.76574992900714,None,161.23059417004697,None,3,1,0.7895040370058268,161.23059417004697,None,162.01381880004192,None,,,,,,,,,,,,,,,,,,,,,,,,,,40,001,2023_Jan_30_1717,searchDisc5,2021.2.3,60.28189489782824,
Practice arrays/exp1a_trial_12_colour3_distractors9_r.png,r,3,,,,0,4,4,5,,,,,,,,,,,,,,,,,,,,,,,,,,,,,,,,,,,,,,,,,,,,,,,164.01598403602839,None,2,1.3470966159948148,164.01598403602839,None,165.4140379159944,None,3,1,1.3047454269835725,165.4140379159944,None,166.71381189802196,None,,,,,,,,,,,,,,,,,,,,,,,,,,40,001,2023_Jan_30_1717,searchDisc5,2021.2.3,60.28189489782824,
Practice arrays/exp1a_trial_23_colour2_distractors19_l.png,l,1,,,,0,5,5,10,,,,,,,,,,,,,,,,,,,,,,,,,,,,,,,,,,,,,,,,,,,,,,,168.7156793960021,None,2,0.6303857949678786,168.7156793960021,None,169.3976807220024,None,1,1,0.7860920889652334,169.3976807220024,None,170.18039519403828,None,,,,,,,,,,,,,,,,,,,,,,,,,,40,001,2023_Jan_30_1717,searchDisc5,2021.2.3,60.28189489782824,
Practice arrays/exp1a_trial_1_colour1_distractors4_r.png,r,3,,,,0,6,6,1,,,,,,,,,,,,,,,,,,,,,,,,,,,,,,,,,,,,,,,,,,,,,,,172.18284491199302,None,2,0.5325898370356299,172.18284491199302,None,172.7636670480133,None,3,1,1.2034955230192281,172.7636670480133,None,173.9641277170158,None,,,,,,,,,,,,,,,,,,,,,,,,,,40,001,2023_Jan_30_1717,searchDisc5,2021.2.3,60.28189489782824,
Practice arrays/exp1a_trial_17_colour1_distractors9_l.png,l,1,,,,0,7,7,7,,,,,,,,,,,,,,,,,,,,,,,,,,,,,,,,,,,,,,,,,,,,,,,175.9661721070297,None,2,0.3149043000303209,175.9661721070297,None,176.333013853,None,1,1,0.9499173439689912,176.333013853,None,177.2807502350188,None,,,,,,,,,,,,,,,,,,,,,,,,,,40,001,2023_Jan_30_1717,searchDisc5,2021.2.3,60.28189489782824,
Practice arrays/exp1a_trial_16_colour1_distractors4_l.png,l,1,,,,0,8,8,13,,,,,,,,,,,,,,,,,,,,,,,,,,,,,,,,,,,,,,,,,,,,,,,179.28307581902482,None,2,0.36718787299469113,179.28307581902482,None,179.6998056769953,None,1,1,2.2359205110115,179.6998056769953,None,181.93108373502037,None,,,,,,,,,,,,,,,,,,,,,,,,,,40,001,2023_Jan_30_1717,searchDisc5,2021.2.3,60.28189489782824,
Practice arrays/exp1a_trial_31_colour0_distractors0_l.png,l,1,,,,0,9,9,15,,,,,,,,,,,,,,,,,,,,,,,,,,,,,,,,,,,,,,,,,,,,,,,183.93272276001517,None,2,0.8304024820099585,183.93272276001517,None,184.816350314999,None,1,1,1.673912948986981,184.816350314999,None,186.48107136803446,None,,,,,,,,,,,,,,,,,,,,,,,,,,40,001,2023_Jan_30_1717,searchDisc5,2021.2.3,60.28189489782824,
Practice arrays/exp1a_trial_21_colour2_distractors4_l.png,l,1,,,,0,10,10,9,,,,,,,,,,,,,,,,,,,,,,,,,,,,,,,,,,,,,,,,,,,,,,,188.48332595999818,None,2,0.43043767800554633,188.48332595999818,None,188.9648418360157,None,1,1,0.6730257419985719,188.9648418360157,None,189.63122905301861,None,,,,,,,,,,,,,,,,,,,,,,,,,,40,001,2023_Jan_30_1717,searchDisc5,2021.2.3,60.28189489782824,
Practice arrays/exp1a_trial_27_colour3_distractors9_l.png,l,1,,,,0,11,11,12,,,,,,,,,,,,,,,,,,,,,,,,,,,,,,,,,,,,,,,,,,,,,,,191.63322254701052,None,2,0.5978298489935696,191.63322254701052,None,192.28143531200476,None,1,1,0.8882514249999076,192.28143531200476,None,193.16468716802774,None,,,,,,,,,,,,,,,,,,,,,,,,,,40,001,2023_Jan_30_1717,searchDisc5,2021.2.3,60.28189489782824,
Practice arrays/exp1a_trial_25_colour3_distractors1_l.png,l,1,,,,0,12,12,11,,,,,,,,,,,,,,,,,,,,,,,,,,,,,,,,,,,,,,,,,,,,,,,195.16637946403353,None,2,0.4636839730083011,195.16637946403353,None,195.68295364402002,None,1,1,0.7730640200315975,195.68295364402002,None,196.44804709602613,None,,,,,,,,,,,,,,,,,,,,,,,,,,40,001,2023_Jan_30_1717,searchDisc5,2021.2.3,60.28189489782824,
Practice arrays/exp1a_trial_14_colour3_distractors31_r.png,r,3,,,,0,13,13,6,,,,,,,,,,,,,,,,,,,,,,,,,,,,,,,,,,,,,,,,,,,,,,,198.4497226200183,None,2,0.5638379669981077,198.4497226200183,None,199.0644532860024,None,3,1,1.150174395996146,199.0644532860024,None,200.21480399899883,None,,,,,,,,,,,,,,,,,,,,,,,,,,40,001,2023_Jan_30_1717,searchDisc5,2021.2.3,60.28189489782824,
Practice arrays/exp1a_trial_0_colour1_distractors1_r.png,r,3,,,,0,14,14,0,,,,,,,,,,,,,,,,,,,,,,,,,,,,,,,,,,,,,,,,,,,,,,,202.21685069502564,None,2,0.3987493769964203,202.21685069502564,None,202.6649898129981,None,3,1,1.622267311962787,202.6649898129981,None,204.28172154101776,None,,,,,,,,,,,,,,,,,,,,,,,,,,40,001,2023_Jan_30_1717,searchDisc5,2021.2.3,60.28189489782824,
Practice arrays/exp1a_trial_30_colour0_distractors0_r.png,r,3,,,,0,15,15,14,,,,,,,,,,,,,,,,,,,,,,,,,,,,,,,,,,,,,,,,,,,,,,,206.283388181997,None,2,0.5468977469718084,206.283388181997,None,206.88195974304108,None,3,1,0.7404497900279239,206.88195974304108,None,207.61495489801746,None,,,,,,,,,,,,,,,,,,,,,,,,,,40,001,2023_Jan_30_1717,searchDisc5,2021.2.3,60.28189489782824,
,,,,,,,,,,,,,,,,,,,,,,,,,,,,,,,,,,,,,,,,,,,,,,,,,,,,,,,,,,,,,,,,,,,,,,,209.70004180801334,None,2,3.798133547999896,210.68372390803415,None,,,,,,,,,,,,,,,,,,,,40,001,2023_Jan_30_1717,searchDisc5,2021.2.3,60.28189489782824,
images/exp1a_trial_153_colour3_distractors1_l.png,l,1,3,1,0,,,,,0,0,0,0,,,,,,,,,,,,,,,,,,,,,,,,,,,,,,,,,,,,,,,,,,,221.18147838901496,None,2,1.5937237499747425,221.18147838901496,None,,,,,,,,,,,,,,,,215.0666815370205,None,2,4.133614683989435,217.05042490700725,None,222.8420733900275,None,1,1,0.7962562220054679,222.8420733900275,None,223.64863787259674,None,None,None,None,,40,001,2023_Jan_30_1717,searchDisc5,2021.2.3,60.28189489782824,
images/exp2a_trial_184_colour2_distractors31_l.png,l,1,2,31,0,,,,,0,1,1,1,,,,,,,,,,,,,,,,,,,,,,,,,,,,,,,,,,,,,,,,,,,223.66532934701536,None,2,0.5723654309986159,223.66532934701536,None,,,,,,,,,,,,,,,,None,None,None,,None,None,224.28799215500476,None,1,1,1.3609644700190984,224.28799215500476,None,225.64869947332772,None,None,None,None,,40,001,2023_Jan_30_1717,searchDisc5,2021.2.3,60.28189489782824,
images/exp1a_trial_180_colour2_distractors1_l.png,l,1,2,1,0,,,,,0,2,2,2,,,,,,,,,,,,,,,,,,,,,,,,,,,,,,,,,,,,,,,,,,,225.66498300503008,None,2,0.568927715998143,225.66498300503008,None,,,,,,,,,,,,,,,,None,None,None,,None,None,226.28425595199224,None,1,1,0.8542676420183852,226.28425595199224,None,227.1321464603243,None,None,None,None,,40,001,2023_Jan_30_1717,searchDisc5,2021.2.3,60.28189489782824,
images/exp1a_trial_0_colour1_distractors1_r.png,r,3,1,1,0,,,,,0,3,3,3,,,,,,,,,,,,,,,,,,,,,,,,,,,,,,,,,,,,,,,,,,,227.15069364802912,None,2,0.5391963719739579,227.15069364802912,None,,,,,,,,,,,,,,,,None,None,None,,None,None,227.7344728379976,None,3,1,0.7683765479596332,227.7344728379976,None,228.49886375133065,None,None,None,None,,40,001,2023_Jan_30_1717,searchDisc5,2021.2.3,60.28189489782824,
images/exp2a_trial_114_colour1_distractors19_l.png,l,1,1,19,0,,,,,0,4,4,4,,,,,,,,,,,,,,,,,,,,,,,,,,,,,,,,,,,,,,,,,,,228.51737811299972,None,2,0.4531269120052457,228.51737811299972,None,,,,,,,,,,,,,,,,None,None,None,,None,None,229.01552339701448,None,1,1,0.6873262110166252,229.01552339701448,None,229.6988520793093,None,None,None,None,,40,001,2023_Jan_30_1717,searchDisc5,2021.2.3,60.28189489782824,
images/exp2a_trial_193_colour1_distractors4_r.png,r,3,1,4,0,,,,,0,5,5,5,,,,,,,,,,,,,,,,,,,,,,,,,,,,,,,,,,,,,,,,,,,229.7156605970231,None,2,0.5386342009878717,229.7156605970231,None,,,,,,,,,,,,,,,,None,None,None,,None,None,230.30105059902417,None,3,1,0.6560035799629986,230.30105059902417,None,230.94879294830025,None,None,None,None,,40,001,2023_Jan_30_1717,searchDisc5,2021.2.3,60.28189489782824,
images/exp2b_trial_116_colour2_distractors1_l.png,l,1,2,1,0,,,,,0,6,6,6,,,,,,,,,,,,,,,,,,,,,,,,,,,,,,,,,,,,,,,,,,,230.96481436502654,None,2,0.40300437703263015,230.96481436502654,None,,,,,,,,,,,,,,,,None,None,None,,None,None,231.4176639050129,None,1,1,0.8068948750151321,231.4176639050129,None,232.21557726731407,None,None,None,None,,40,001,2023_Jan_30_1717,searchDisc5,2021.2.3,60.28189489782824,
images/exp2a_trial_65_colour1_distractors4_r.png,r,3,1,4,0,,,,,0,7,7,7,,,,,,,,,,,,,,,,,,,,,,,,,,,,,,,,,,,,,,,,,,,232.2322067900095,None,2,0.45602967601735145,232.2322067900095,None,,,,,,,,,,,,,,,,None,None,None,,None,None,232.7345023130183,None,3,1,0.6036190940067172,232.7345023130183,None,233.3324532843253,None,None,None,None,,40,001,2023_Jan_30_1717,searchDisc5,2021.2.3,60.28189489782824,
images/exp1a_trial_142_colour3_distractors31_r.png,r,3,3,31,0,,,,,0,8,8,8,,,,,,,,,,,,,,,,,,,,,,,,,,,,,,,,,,,,,,,,,,,233.35063087800518,None,2,0.42320619098609313,233.35063087800518,None,,,,,,,,,,,,,,,,None,None,None,,None,None,233.8187207110459,None,3,1,0.9132516429526731,233.8187207110459,None,234.7318017373036,None,None,None,None,,40,001,2023_Jan_30_1717,searchDisc5,2021.2.3,60.28189489782824,
images/exp2b_trial_244_colour2_distractors1_l.png,l,1,2,1,0,,,,,0,9,9,9,,,,,,,,,,,,,,,,,,,,,,,,,,,,,,,,,,,,,,,,,,,234.748262602021,None,2,0.4235873249708675,234.748262602021,None,,,,,,,,,,,,,,,,None,None,None,,None,None,235.2173296510009,None,1,1,0.6384752120357007,235.2173296510009,None,235.84918759329594,None,None,None,None,,40,001,2023_Jan_30_1717,searchDisc5,2021.2.3,60.28189489782824,
images/exp2a_trial_261_colour2_distractors1_r.png,r,3,2,1,0,,,,,0,10,10,10,,,,,,,,,,,,,,,,,,,,,,,,,,,,,,,,,,,,,,,,,,,235.86548496602336,None,2,0.4864994250237942,235.86548496602336,None,,,,,,,,,,,,,,,,None,None,None,,None,None,236.3992861279985,None,3,1,0.8227722279843874,236.3992861279985,None,237.21575383932213,None,None,None,None,,40,001,2023_Jan_30_1717,searchDisc5,2021.2.3,60.28189489782824,
images/exp2c_trial_145_colour1_distractors9_l.png,l,1,1,9,0,,,,,0,11,11,11,,,,,,,,,,,,,,,,,,,,,,,,,,,,,,,,,,,,,,,,,,,237.23240904102568,None,2,0.4047561420011334,237.23240904102568,None,,,,,,,,,,,,,,,,None,None,None,,None,None,237.6845999940415,None,1,1,0.6720530139864422,237.6845999940415,None,238.34905284529668,None,None,None,None,,40,001,2023_Jan_30_1717,searchDisc5,2021.2.3,60.28189489782824,
images/exp2a_trial_174_colour3_distractors31_r.png,r,3,3,31,0,,,,,0,12,12,12,,,,,,,,,,,,,,,,,,,,,,,,,,,,,,,,,,,,,,,,,,,238.3652168789995,None,2,0.387571258994285,238.3652168789995,None,,,,,,,,,,,,,,,,None,None,None,,None,None,238.80138525401708,None,3,1,0.6537403700058348,238.80138525401708,None,239.44930266131996,None,None,None,None,,40,001,2023_Jan_30_1717,searchDisc5,2021.2.3,60.28189489782824,
images/exp2c_trial_101_colour2_distractors1_r.png,r,3,2,1,0,,,,,0,13,13,13,,,,,,,,,,,,,,,,,,,,,,,,,,,,,,,,,,,,,,,,,,,239.46581639000215,None,2,0.35421165300067514,239.46581639000215,None,,,,,,,,,,,,,,,,None,None,None,,None,None,239.86607977299718,None,3,1,0.7065606549731456,239.86607977299718,None,240.5657586643065,None,None,None,None,,40,001,2023_Jan_30_1717,searchDisc5,2021.2.3,60.28189489782824,
images/exp2c_trial_76_colour3_distractors9_r.png,r,3,3,9,0,,,,,0,14,14,14,,,,,,,,,,,,,,,,,,,,,,,,,,,,,,,,,,,,,,,,,,,240.58448490401497,None,2,0.40674265200505033,240.58448490401497,None,,,,,,,,,,,,,,,,None,None,None,,None,None,241.03467383200768,None,3,1,1.1553381119738333,241.03467383200768,None,242.18253684529918,None,None,None,None,,40,001,2023_Jan_30_1717,searchDisc5,2021.2.3,60.28189489782824,
images/exp2b_trial_278_colour2_distractors9_l.png,l,1,2,9,0,,,,,0,15,15,15,,,,,,,,,,,,,,,,,,,,,,,,,,,,,,,,,,,,,,,,,,,242.1992168360157,None,2,0.45471625099889934,242.1992168360157,None,,,,,,,,,,,,,,,,None,None,None,,None,None,242.69891447003465,None,1,1,0.9714274210273288,242.69891447003465,None,243.66612512429128,None,None,None,None,,40,001,2023_Jan_30_1717,searchDisc5,2021.2.3,60.28189489782824,
images/exp2b_trial_215_colour2_distractors19_l.png,l,1,2,19,0,,,,,0,16,16,16,,,,,,,,,,,,,,,,,,,,,,,,,,,,,,,,,,,,,,,,,,,243.68240529904142,None,2,0.4193598830024712,243.68240529904142,None,,,,,,,,,,,,,,,,None,None,None,,None,None,244.15147522103507,None,1,1,0.8210953469970264,244.15147522103507,None,244.96599351832992,None,None,None,None,,40,001,2023_Jan_30_1717,searchDisc5,2021.2.3,60.28189489782824,
images/exp2b_trial_216_colour2_distractors31_l.png,l,1,2,31,0,,,,,0,17,17,17,,,,,,,,,,,,,,,,,,,,,,,,,,,,,,,,,,,,,,,,,,,244.98250790400198,None,2,0.3712271699914709,244.98250790400198,None,,,,,,,,,,,,,,,,None,None,None,,None,None,245.4014414230478,None,1,1,0.7870675000012852,245.4014414230478,None,246.18263944934006,None,None,None,None,,40,001,2023_Jan_30_1717,searchDisc5,2021.2.3,60.28189489782824,
images/exp2a_trial_51_colour1_distractors31_l.png,l,1,1,31,0,,,,,0,18,18,18,,,,,,,,,,,,,,,,,,,,,,,,,,,,,,,,,,,,,,,,,,,246.1993018380017,None,2,0.33763605798594654,246.1993018380017,None,,,,,,,,,,,,,,,,None,None,None,,None,None,246.58283402799862,None,1,1,0.7200997669715434,246.58283402799862,None,247.29931177434628,None,None,None,None,,40,001,2023_Jan_30_1717,searchDisc5,2021.2.3,60.28189489782824,
images/exp1a_trial_108_colour3_distractors9_r.png,r,3,3,9,0,,,,,0,19,19,19,,,,,,,,,,,,,,,,,,,,,,,,,,,,,,,,,,,,,,,,,,,247.3176597499987,None,2,0.33790271100588143,247.3176597499987,None,,,,,,,,,,,,,,,,None,None,None,,None,None,247.69949953904143,None,3,1,0.9878621369716711,247.69949953904143,None,248.68302664233488,None,None,None,None,,40,001,2023_Jan_30_1717,searchDisc5,2021.2.3,60.28189489782824,
images/exp1a_trial_195_colour1_distractors19_r.png,r,3,1,19,0,,,,,0,20,20,20,,,,,,,,,,,,,,,,,,,,,,,,,,,,,,,,,,,,,,,,,,,248.69942010199884,None,2,0.3397218710160814,248.69942010199884,None,,,,,,,,,,,,,,,,None,None,None,,None,None,249.082677480008,None,3,1,1.1830143220140599,249.082677480008,None,250.26603977932245,None,None,None,None,,40,001,2023_Jan_30_1717,searchDisc5,2021.2.3,60.28189489782824,
images/exp2c_trial_22_colour2_distractors9_l.png,l,1,2,9,0,,,,,0,21,21,21,,,,,,,,,,,,,,,,,,,,,,,,,,,,,,,,,,,,,,,,,,,250.28214979701443,None,2,0.32320897898171097,250.28214979701443,None,,,,,,,,,,,,,,,,None,None,None,,None,None,250.65156333404593,None,1,1,0.9701583469868638,250.65156333404593,None,251.61625683531747,None,None,None,None,,40,001,2023_Jan_30_1717,searchDisc5,2021.2.3,60.28189489782824,
images/exp2b_trial_208_colour1_distractors4_l.png,l,1,1,4,0,,,,,0,22,22,22,,,,,,,,,,,,,,,,,,,,,,,,,,,,,,,,,,,,,,,,,,,251.63258382002823,None,2,0.3542513099964708,251.63258382002823,None,,,,,,,,,,,,,,,,None,None,None,,None,None,252.03281497303396,None,1,1,0.8394943700404838,252.03281497303396,None,252.86608677529148,None,None,None,None,,40,001,2023_Jan_30_1717,searchDisc5,2021.2.3,60.28189489782824,
images/exp2b_trial_213_colour2_distractors4_l.png,l,1,2,4,0,,,,,0,23,23,23,,,,,,,,,,,,,,,,,,,,,,,,,,,,,,,,,,,,,,,,,,,252.8823572890251,None,2,0.3380218519596383,252.8823572890251,None,,,,,,,,,,,,,,,,None,None,None,,None,None,253.2663640290266,None,1,1,0.9058084670105018,253.2663640290266,None,254.16617338833748,None,None,None,None,,40,001,2023_Jan_30_1717,searchDisc5,2021.2.3,60.28189489782824,
images/exp2c_trial_260_colour1_distractors31_r.png,r,3,1,31,0,,,,,0,24,24,24,,,,,,,,,,,,,,,,,,,,,,,,,,,,,,,,,,,,,,,,,,,254.18457743700128,None,2,0.3398837889544666,254.18457743700128,None,,,,,,,,,,,,,,,,None,None,None,,None,None,254.56844799901592,None,3,1,0.9516804160084575,254.56844799901592,None,255.5164972023049,None,None,None,None,,40,001,2023_Jan_30_1717,searchDisc5,2021.2.3,60.28189489782824,
images/exp2b_trial_139_colour3_distractors4_r.png,r,3,3,4,0,,,,,0,25,25,25,,,,,,,,,,,,,,,,,,,,,,,,,,,,,,,,,,,,,,,,,,,255.5328310750192,None,2,0.3377567689749412,255.5328310750192,None,,,,,,,,,,,,,,,,None,None,None,,None,None,255.91652392601827,None,3,1,0.7540963490027934,255.91652392601827,None,256.666270791291,None,None,None,None,,40,001,2023_Jan_30_1717,searchDisc5,2021.2.3,60.28189489782824,
images/exp2a_trial_244_colour2_distractors1_l.png,l,1,2,1,0,,,,,0,26,26,26,,,,,,,,,,,,,,,,,,,,,,,,,,,,,,,,,,,,,,,,,,,256.6830330869998,None,2,0.35421883198432624,256.6830330869998,None,,,,,,,,,,,,,,,,None,None,None,,None,None,257.0830737260403,None,1,1,0.8232244480168447,257.0830737260403,None,257.8997490903421,None,None,None,None,,40,001,2023_Jan_30_1717,searchDisc5,2021.2.3,60.28189489782824,
images/exp1a_trial_247_colour2_distractors19_l.png,l,1,2,19,0,,,,,0,27,27,27,,,,,,,,,,,,,,,,,,,,,,,,,,,,,,,,,,,,,,,,,,,257.91629195801215,None,2,0.3539074489963241,257.91629195801215,None,,,,,,,,,,,,,,,,None,None,None,,None,None,258.316001609026,None,1,1,1.1521354879951105,258.316001609026,None,259.4656319752976,None,None,None,None,,40,001,2023_Jan_30_1717,searchDisc5,2021.2.3,60.28189489782824,
images/exp2a_trial_140_colour3_distractors9_r.png,r,3,3,9,0,,,,,0,28,28,28,,,,,,,,,,,,,,,,,,,,,,,,,,,,,,,,,,,,,,,,,,,259.4828562720213,None,2,0.338600464980118,259.4828562720213,None,,,,,,,,,,,,,,,,None,None,None,,None,None,259.8665267089964,None,3,1,0.8887730429996736,259.8665267089964,None,260.7495713713288,None,None,None,None,,40,001,2023_Jan_30_1717,searchDisc5,2021.2.3,60.28189489782824,
images/exp2b_trial_51_colour1_distractors31_l.png,l,1,1,31,0,,,,,0,29,29,29,,,,,,,,,,,,,,,,,,,,,,,,,,,,,,,,,,,,,,,,,,,260.7677560049924,None,2,0.3226248580031097,260.7677560049924,None,,,,,,,,,,,,,,,,None,None,None,,None,None,261.1332838240196,None,1,1,1.4521858399966732,261.1332838240196,None,262.58315538833267,None,None,None,None,,40,001,2023_Jan_30_1717,searchDisc5,2021.2.3,60.28189489782824,
images/exp2b_trial_66_colour1_distractors9_r.png,r,3,1,9,0,,,,,0,30,30,30,,,,,,,,,,,,,,,,,,,,,,,,,,,,,,,,,,,,,,,,,,,262.5995689300471,None,2,0.32091608498012647,262.5995689300471,None,,,,,,,,,,,,,,,,None,None,None,,None,None,262.9661280460423,None,3,1,1.0728301630006172,262.9661280460423,None,264.03293967529316,None,None,None,None,,40,001,2023_Jan_30_1717,searchDisc5,2021.2.3,60.28189489782824,
images/exp2b_trial_123_colour3_distractors9_l.png,l,1,3,9,0,,,,,0,31,31,31,,,,,,,,,,,,,,,,,,,,,,,,,,,,,,,,,,,,,,,,,,,264.0497035920271,None,2,0.33942484203726053,264.0497035920271,None,,,,,,,,,,,,,,,,None,None,None,,None,None,264.4324716120027,None,1,1,0.90350394701818,264.4324716120027,None,265.33314376630005,None,None,None,None,,40,001,2023_Jan_30_1717,searchDisc5,2021.2.3,60.28189489782824,
images/exp1a_trial_278_colour2_distractors9_l.png,l,1,2,9,0,,,,,0,32,32,32,,,,,,,,,,,,,,,,,,,,,,,,,,,,,,,,,,,,,,,,,,,265.34929802204715,None,2,0.33797438599867746,265.34929802204715,None,,,,,,,,,,,,,,,,None,None,None,,None,None,265.73345267004333,None,1,1,1.0875160489813425,265.73345267004333,None,266.81652226133156,None,None,None,None,,40,001,2023_Jan_30_1717,searchDisc5,2021.2.3,60.28189489782824,
images/exp1a_trial_100_colour1_distractors31_r.png,r,3,1,31,0,,,,,0,33,33,33,,,,,,,,,,,,,,,,,,,,,,,,,,,,,,,,,,,,,,,,,,,266.83316938002827,None,2,0.45651275396812707,266.83316938002827,None,,,,,,,,,,,,,,,,None,None,None,,None,None,267.33339149004314,272.33324636501493,3,1,5.048851929954253,267.33339149004314,None,272.3832541593292,None,None,None,None,,40,001,2023_Jan_30_1717,searchDisc5,2021.2.3,60.28189489782824,
images/exp2b_trial_317_colour3_distractors31_l.png,l,1,3,31,0,,,,,0,34,34,34,,,,,,,,,,,,,,,,,,,,,,,,,,,,,,,,,,,,,,,,,,,272.4018891529995,None,2,0.4208981799893081,272.4018891529995,None,,,,,,,,,,,,,,,,None,None,None,,None,None,272.86650062404806,None,1,1,0.9882295859861188,272.86650062404806,None,273.8499200073129,None,None,None,None,,40,001,2023_Jan_30_1717,searchDisc5,2021.2.3,60.28189489782824,
images/exp2c_trial_183_colour2_distractors19_l.png,l,1,2,19,0,,,,,0,35,35,35,,,,,,,,,,,,,,,,,,,,,,,,,,,,,,,,,,,,,,,,,,,273.8687217780389,None,2,0.3363432749756612,273.8687217780389,None,,,,,,,,,,,,,,,,None,None,None,,None,None,274.2520958590321,None,1,1,0.721494625962805,274.2520958590321,None,274.96705978232785,None,None,None,None,,40,001,2023_Jan_30_1717,searchDisc5,2021.2.3,60.28189489782824,
images/exp2c_trial_18_colour1_distractors19_l.png,l,1,1,19,0,,,,,0,36,36,36,,,,,,,,,,,,,,,,,,,,,,,,,,,,,,,,,,,,,,,,,,,274.9832932529971,None,2,0.3709831340238452,274.9832932529971,None,,,,,,,,,,,,,,,,None,None,None,,None,None,275.3995368540054,None,1,1,1.1536024459637702,275.3995368540054,None,276.5500823923212,None,None,None,None,,40,001,2023_Jan_30_1717,searchDisc5,2021.2.3,60.28189489782824,
images/exp2c_trial_160_colour1_distractors1_r.png,r,3,1,1,0,,,,,0,37,37,37,,,,,,,,,,,,,,,,,,,,,,,,,,,,,,,,,,,,,,,,,,,276.56620675401064,None,2,0.38784943701466545,276.56620675401064,None,,,,,,,,,,,,,,,,None,None,None,,None,None,277.0023603049922,None,3,1,1.106006804970093,277.0023603049922,None,278.1001762293454,None,None,None,None,,40,001,2023_Jan_30_1717,searchDisc5,2021.2.3,60.28189489782824,
images/exp2c_trial_138_colour3_distractors1_r.png,r,3,3,1,0,,,,,0,38,38,38,,,,,,,,,,,,,,,,,,,,,,,,,,,,,,,,,,,,,,,,,,,278.11903286702,None,2,0.3198649469995871,278.11903286702,None,,,,,,,,,,,,,,,,None,None,None,,None,None,278.4836579770199,None,3,1,1.2240838750149123,278.4836579770199,None,279.7001542263024,None,None,None,None,,40,001,2023_Jan_30_1717,searchDisc5,2021.2.3,60.28189489782824,
images/exp2a_trial_75_colour3_distractors4_r.png,r,3,3,4,0,,,,,0,39,39,39,,,,,,,,,,,,,,,,,,,,,,,,,,,,,,,,,,,,,,,,,,,279.7162772830343,None,2,0.28796117496676743,279.7162772830343,None,,,,,,,,,,,,,,,,None,None,None,,None,None,280.05001652799547,None,3,1,0.7561732699978165,280.05001652799547,None,280.80028386131744,None,None,None,None,,40,001,2023_Jan_30_1717,searchDisc5,2021.2.3,60.28189489782824,
images/exp2c_trial_186_colour3_distractors4_l.png,l,1,3,4,0,,,,,0,40,40,40,,,,,,,,,,,,,,,,,,,,,,,,,,,,,,,,,,,,,,,,,,,280.81639787601307,None,2,0.32129776099463925,280.81639787601307,None,,,,,,,,,,,,,,,,None,None,None,,None,None,281.18371108704014,None,1,1,0.7563721910119057,281.18371108704014,None,281.9334737973113,None,None,None,None,,40,001,2023_Jan_30_1717,searchDisc5,2021.2.3,60.28189489782824,
images/exp1a_trial_176_colour1_distractors4_l.png,l,1,1,4,0,,,,,0,41,41,41,,,,,,,,,,,,,,,,,,,,,,,,,,,,,,,,,,,,,,,,,,,281.94966849999037,None,2,0.32154283102136105,281.94966849999037,None,,,,,,,,,,,,,,,,None,None,None,,None,None,282.31696477602236,None,1,1,0.8397232869756408,282.31696477602236,None,283.15042697030003,None,None,None,None,,40,001,2023_Jan_30_1717,searchDisc5,2021.2.3,60.28189489782824,
images/exp2b_trial_187_colour3_distractors9_l.png,l,1,3,9,0,,,,,0,42,42,42,,,,,,,,,,,,,,,,,,,,,,,,,,,,,,,,,,,,,,,,,,,283.16694405901944,None,2,0.3209798840107396,283.16694405901944,None,,,,,,,,,,,,,,,,None,None,None,,None,None,283.5332452200237,None,1,1,1.2224315269850194,283.5332452200237,None,284.7504113203322,None,None,None,None,,40,001,2023_Jan_30_1717,searchDisc5,2021.2.3,60.28189489782824,
images/exp2a_trial_100_colour1_distractors31_r.png,r,3,1,31,0,,,,,0,43,43,43,,,,,,,,,,,,,,,,,,,,,,,,,,,,,,,,,,,,,,,,,,,284.76900659303647,None,2,0.33759062498575076,284.76900659303647,None,,,,,,,,,,,,,,,,None,None,None,,None,None,285.15054188104114,None,3,1,1.5862925319815986,285.15054188104114,None,286.7338084753428,None,None,None,None,,40,001,2023_Jan_30_1717,searchDisc5,2021.2.3,60.28189489782824,
images/exp2c_trial_235_colour3_distractors4_r.png,r,3,3,4,0,,,,,0,44,44,44,,,,,,,,,,,,,,,,,,,,,,,,,,,,,,,,,,,,,,,,,,,286.752403889026,None,2,0.3044562430004589,286.752403889026,None,,,,,,,,,,,,,,,,None,None,None,,None,None,287.10044265404576,None,3,1,0.8026753919548355,287.10044265404576,None,287.8997772173316,None,None,None,None,,40,001,2023_Jan_30_1717,searchDisc5,2021.2.3,60.28189489782824,
images/exp2b_trial_16_colour1_distractors4_l.png,l,1,1,4,0,,,,,0,45,45,45,,,,,,,,,,,,,,,,,,,,,,,,,,,,,,,,,,,,,,,,,,,287.9190187510103,None,2,0.35525212599895895,287.9190187510103,None,,,,,,,,,,,,,,,,None,None,None,,None,None,288.31962356501026,None,1,1,0.7385737039730884,288.31962356501026,None,289.04976856833673,None,None,None,None,,40,001,2023_Jan_30_1717,searchDisc5,2021.2.3,60.28189489782824,
images/exp2c_trial_305_colour1_distractors9_l.png,l,1,1,9,0,,,,,0,46,46,46,,,,,,,,,,,,,,,,,,,,,,,,,,,,,,,,,,,,,,,,,,,289.067010749015,None,2,0.338522901001852,289.067010749015,None,,,,,,,,,,,,,,,,None,None,None,,None,None,289.44995823304635,None,1,1,0.9558590369997546,289.44995823304635,None,290.4006421683298,None,None,None,None,,40,001,2023_Jan_30_1717,searchDisc5,2021.2.3,60.28189489782824,
images/exp2a_trial_319_colour0_distractors0_l.png,l,1,0,0,0,,,,,0,47,47,47,,,,,,,,,,,,,,,,,,,,,,,,,,,,,,,,,,,,,,,,,,,290.41704353300156,None,2,0.30546332499943674,290.41704353300156,None,,,,,,,,,,,,,,,,None,None,None,,None,None,290.76741312799277,None,1,1,1.6896218940382823,290.76741312799277,None,292.45072257632273,None,None,None,None,,40,001,2023_Jan_30_1717,searchDisc5,2021.2.3,60.28189489782824,
images/exp2b_trial_158_colour0_distractors0_r.png,r,3,0,0,0,,,,,0,48,48,48,,,,,,,,,,,,,,,,,,,,,,,,,,,,,,,,,,,,,,,,,,,292.4671243330231,None,2,0.287617753027007,292.4671243330231,None,,,,,,,,,,,,,,,,None,None,None,,None,None,292.80013307504123,None,3,1,1.09027015598258,292.80013307504123,None,293.88391058830894,None,None,None,None,,40,001,2023_Jan_30_1717,searchDisc5,2021.2.3,60.28189489782824,
images/exp2c_trial_268_colour3_distractors9_r.png,r,3,3,9,0,,,,,0,49,49,49,,,,,,,,,,,,,,,,,,,,,,,,,,,,,,,,,,,,,,,,,,,293.9026011900278,None,2,0.27129913098178804,293.9026011900278,None,,,,,,,,,,,,,,,,None,None,None,,None,None,294.21748328302056,None,3,1,1.038863057969138,294.21748328302056,None,295.25051040030667,None,None,None,None,,40,001,2023_Jan_30_1717,searchDisc5,2021.2.3,60.28189489782824,
images/exp2a_trial_179_colour1_distractors31_l.png,l,1,1,31,0,,,,,0,50,50,50,,,,,,,,,,,,,,,,,,,,,,,,,,,,,,,,,,,,,,,,,,,295.26681315200403,None,2,0.2246750600170344,295.26681315200403,None,,,,,,,,,,,,,,,,None,None,None,,None,None,295.53391506901244,None,1,1,0.8504160729935393,295.53391506901244,None,296.3839848662901,None,None,None,None,,40,001,2023_Jan_30_1717,searchDisc5,2021.2.3,60.28189489782824,
images/exp2b_trial_304_colour1_distractors4_l.png,l,1,1,4,0,,,,,0,51,51,51,,,,,,,,,,,,,,,,,,,,,,,,,,,,,,,,,,,,,,,,,,,296.4003169470234,None,2,0.2544979420490563,296.4003169470234,None,,,,,,,,,,,,,,,,None,None,None,,None,None,296.7005691190134,None,1,1,0.9581797120044939,296.7005691190134,None,297.6506294813298,None,None,None,None,,40,001,2023_Jan_30_1717,searchDisc5,2021.2.3,60.28189489782824,
images/exp2a_trial_159_colour0_distractors0_l.png,l,1,0,0,0,,,,,0,52,52,52,,,,,,,,,,,,,,,,,,,,,,,,,,,,,,,,,,,,,,,,,,,297.6668457580381,None,2,0.26926141302101314,297.6668457580381,None,,,,,,,,,,,,,,,,None,None,None,,None,None,297.98421054304345,None,1,1,0.9738766649970785,297.98421054304345,None,298.9508687373309,None,None,None,None,,40,001,2023_Jan_30_1717,searchDisc5,2021.2.3,60.28189489782824,
images/exp2b_trial_182_colour2_distractors9_l.png,l,1,2,9,0,,,,,0,53,53,53,,,,,,,,,,,,,,,,,,,,,,,,,,,,,,,,,,,,,,,,,,,298.9673802900361,None,2,0.25409741303883493,298.9673802900361,None,,,,,,,,,,,,,,,,None,None,None,,None,None,299.2673926780117,None,1,1,0.6908621869515628,299.2673926780117,None,299.95072858131607,None,None,None,None,,40,001,2023_Jan_30_1717,searchDisc5,2021.2.3,60.28189489782824,
images/exp2b_trial_61_colour3_distractors31_l.png,l,1,3,31,0,,,,,0,54,54,54,,,,,,,,,,,,,,,,,,,,,,,,,,,,,,,,,,,,,,,,,,,299.9689128570026,None,2,0.25252026901580393,299.9689128570026,None,,,,,,,,,,,,,,,,None,None,None,,None,None,300.2674931960064,None,1,1,0.6375267640105449,300.2674931960064,None,300.9009201633453,None,None,None,None,,40,001,2023_Jan_30_1717,searchDisc5,2021.2.3,60.28189489782824,
images/exp1a_trial_210_colour1_distractors19_l.png,l,1,1,19,0,,,,,0,55,55,55,,,,,,,,,,,,,,,,,,,,,,,,,,,,,,,,,,,,,,,,,,,300.91761646803934,None,2,0.25438898301217705,300.91761646803934,None,,,,,,,,,,,,,,,,None,None,None,,None,None,301.2171241060132,None,1,1,3.6692823609919287,301.2171241060132,None,304.8842597233306,None,None,None,None,,40,001,2023_Jan_30_1717,searchDisc5,2021.2.3,60.28189489782824,
images/exp2c_trial_179_colour1_distractors31_l.png,l,1,1,31,0,,,,,0,56,56,56,,,,,,,,,,,,,,,,,,,,,,,,,,,,,,,,,,,,,,,,,,,304.90102676901734,None,2,0.2753287289524451,304.90102676901734,None,,,,,,,,,,,,,,,,None,None,None,,None,None,305.2171646230272,None,1,1,0.9657374739763327,305.2171646230272,None,306.18433975431253,None,None,None,None,,40,001,2023_Jan_30_1717,searchDisc5,2021.2.3,60.28189489782824,
images/exp1a_trial_189_colour3_distractors31_l.png,l,1,3,31,0,,,,,0,57,57,57,,,,,,,,,,,,,,,,,,,,,,,,,,,,,,,,,,,,,,,,,,,306.200380572991,None,2,0.304096050967928,306.200380572991,None,,,,,,,,,,,,,,,,None,None,None,,None,None,306.55105165200075,None,1,1,0.7340256390161812,306.55105165200075,None,307.2844114593172,None,None,None,None,,40,001,2023_Jan_30_1717,searchDisc5,2021.2.3,60.28189489782824,
images/exp2b_trial_252_colour3_distractors19_l.png,l,1,3,19,0,,,,,0,58,58,58,,,,,,,,,,,,,,,,,,,,,,,,,,,,,,,,,,,,,,,,,,,307.30020049301675,None,2,0.3395763359731063,307.30020049301675,None,,,,,,,,,,,,,,,,None,None,None,,None,None,307.6859076140099,None,1,1,0.7861357039655559,307.6859076140099,None,308.4677104553266,None,None,None,None,,40,001,2023_Jan_30_1717,searchDisc5,2021.2.3,60.28189489782824,
images/exp1a_trial_131_colour1_distractors19_r.png,r,3,1,19,0,,,,,0,59,59,59,,,,,,,,,,,,,,,,,,,,,,,,,,,,,,,,,,,,,,,,,,,308.48392483999487,None,2,0.33777931303484365,308.48392483999487,None,,,,,,,,,,,,,,,,None,None,None,,None,None,308.86783467401983,None,3,1,2.6489035330014303,308.86783467401983,None,311.5176824752998,None,None,None,None,,40,001,2023_Jan_30_1717,searchDisc5,2021.2.3,60.28189489782824,
images/exp1a_trial_226_colour1_distractors9_r.png,r,3,1,9,0,,,,,0,60,60,60,,,,,,,,,,,,,,,,,,,,,,,,,,,,,,,,,,,,,,,,,,,311.53396305599017,None,2,0.3047450610320084,311.53396305599017,None,,,,,,,,,,,,,,,,None,None,None,,None,None,311.88403491902864,None,3,1,1.4704323280020617,311.88403491902864,None,313.3511118013121,None,None,None,None,,40,001,2023_Jan_30_1717,searchDisc5,2021.2.3,60.28189489782824,
images/exp1a_trial_287_colour0_distractors0_l.png,l,1,0,0,0,,,,,0,61,61,61,,,,,,,,,,,,,,,,,,,,,,,,,,,,,,,,,,,,,,,,,,,313.36788486799924,None,2,0.2734929660218768,313.36788486799924,None,,,,,,,,,,,,,,,,None,None,None,,None,None,313.68460062803933,None,1,1,1.1547504260088317,313.68460062803933,None,314.83446939932765,None,None,None,None,,40,001,2023_Jan_30_1717,searchDisc5,2021.2.3,60.28189489782824,
images/exp1a_trial_241_colour1_distractors9_l.png,l,1,1,9,0,,,,,0,62,62,62,,,,,,,,,,,,,,,,,,,,,,,,,,,,,,,,,,,,,,,,,,,314.85095401800936,None,2,0.2710336919990368,314.85095401800936,None,,,,,,,,,,,,,,,,None,None,None,,None,None,315.1680834030267,None,1,1,0.7208932369831018,315.1680834030267,None,315.8841261873313,None,None,None,None,,40,001,2023_Jan_30_1717,searchDisc5,2021.2.3,60.28189489782824,
images/exp1a_trial_309_colour2_distractors4_l.png,l,1,2,4,0,,,,,0,63,63,63,,,,,,,,,,,,,,,,,,,,,,,,,,,,,,,,,,,,,,,,,,,315.90110142499907,None,2,0.2881446370156482,315.90110142499907,None,,,,,,,,,,,,,,,,None,None,None,,None,None,316.23490744800074,None,1,1,0.8729662349796854,316.23490744800074,None,317.10118843233795,None,None,None,None,,40,001,2023_Jan_30_1717,searchDisc5,2021.2.3,60.28189489782824,
images/exp1a_trial_28_colour3_distractors19_l.png,l,1,3,19,0,,,,,0,64,64,64,,,,,,,,,,,,,,,,,,,,,,,,,,,,,,,,,,,,,,,,,,,317.1171770929941,None,2,0.3365612920024432,317.1171770929941,None,,,,,,,,,,,,,,,,None,None,None,,None,None,317.5012239450007,None,1,1,0.8859056209912524,317.5012239450007,None,318.38482095932704,None,None,None,None,,40,001,2023_Jan_30_1717,searchDisc5,2021.2.3,60.28189489782824,
images/exp2b_trial_153_colour3_distractors1_l.png,l,1,3,1,0,,,,,0,65,65,65,,,,,,,,,,,,,,,,,,,,,,,,,,,,,,,,,,,,,,,,,,,318.40150951303076,None,2,0.28786062099970877,318.40150951303076,None,,,,,,,,,,,,,,,,None,None,None,,None,None,318.7348322769976,None,1,1,0.6569035930442624,318.7348322769976,None,319.38478301730356,None,None,None,None,,40,001,2023_Jan_30_1717,searchDisc5,2021.2.3,60.28189489782824,
images/exp2b_trial_80_colour1_distractors4_l.png,l,1,1,4,0,,,,,0,66,66,66,,,,,,,,,,,,,,,,,,,,,,,,,,,,,,,,,,,,,,,,,,,319.40327647700906,None,2,0.32114499795716256,319.40327647700906,None,,,,,,,,,,,,,,,,None,None,None,,None,None,319.7680670650443,None,1,1,0.606663551996462,319.7680670650443,None,320.3680119063065,None,None,None,None,,40,001,2023_Jan_30_1717,searchDisc5,2021.2.3,60.28189489782824,
images/exp2a_trial_305_colour1_distractors9_l.png,l,1,1,9,0,,,,,0,67,67,67,,,,,,,,,,,,,,,,,,,,,,,,,,,,,,,,,,,,,,,,,,,320.3840603019926,None,2,0.3039751879987307,320.3840603019926,None,,,,,,,,,,,,,,,,None,None,None,,None,None,320.7341706180014,None,1,1,0.5400167190236971,320.7341706180014,None,321.26807355330675,None,None,None,None,,40,001,2023_Jan_30_1717,searchDisc5,2021.2.3,60.28189489782824,
images/exp2a_trial_310_colour2_distractors9_l.png,l,1,2,9,0,,,,,0,68,68,68,,,,,,,,,,,,,,,,,,,,,,,,,,,,,,,,,,,,,,,,,,,321.28689812199445,None,2,0.3037239270051941,321.28689812199445,None,,,,,,,,,,,,,,,,None,None,None,,None,None,321.634488701995,None,1,1,0.8033898219582625,321.634488701995,None,322.4348129593127,None,None,None,None,,40,001,2023_Jan_30_1717,searchDisc5,2021.2.3,60.28189489782824,
images/exp2a_trial_268_colour3_distractors9_r.png,r,3,3,9,0,,,,,0,69,69,69,,,,,,,,,,,,,,,,,,,,,,,,,,,,,,,,,,,,,,,,,,,322.453324171016,None,2,0.3046606419957243,322.453324171016,None,,,,,,,,,,,,,,,,None,None,None,,None,None,322.80154186702566,None,3,1,0.8221148799639195,322.80154186702566,None,323.6183165353432,None,None,None,None,,40,001,2023_Jan_30_1717,searchDisc5,2021.2.3,60.28189489782824,
images/exp2a_trial_94_colour0_distractors0_r.png,r,3,0,0,0,,,,,0,70,70,70,,,,,,,,,,,,,,,,,,,,,,,,,,,,,,,,,,,,,,,,,,,323.6345083070337,None,2,0.2877535540028475,323.6345083070337,None,,,,,,,,,,,,,,,,None,None,None,,None,None,323.9682469330146,None,3,1,0.8064843990141526,323.9682469330146,None,324.76802175529883,None,None,None,None,,40,001,2023_Jan_30_1717,searchDisc5,2021.2.3,60.28189489782824,
images/exp2a_trial_59_colour3_distractors9_l.png,l,1,3,9,0,,,,,0,71,71,71,,,,,,,,,,,,,,,,,,,,,,,,,,,,,,,,,,,,,,,,,,,324.78414130804595,None,2,0.2879272010177374,324.78414130804595,None,,,,,,,,,,,,,,,,None,None,None,,None,None,325.1182927869959,None,1,1,1.0387955170008354,325.1182927869959,None,326.1514397803403,None,None,None,None,,40,001,2023_Jan_30_1717,searchDisc5,2021.2.3,60.28189489782824,
images/exp2b_trial_160_colour1_distractors1_r.png,r,3,1,1,0,,,,,0,72,72,72,,,,,,,,,,,,,,,,,,,,,,,,,,,,,,,,,,,,,,,,,,,326.1680418420001,None,2,0.3377415720024146,326.1680418420001,None,,,,,,,,,,,,,,,,None,None,None,,None,None,326.55166438099695,None,3,1,1.1395497749908827,326.55166438099695,None,327.68479005931295,None,None,None,None,,40,001,2023_Jan_30_1717,searchDisc5,2021.2.3,60.28189489782824,
images/exp1a_trial_156_colour3_distractors19_l.png,l,1,3,19,0,,,,,0,73,73,73,,,,,,,,,,,,,,,,,,,,,,,,,,,,,,,,,,,,,,,,,,,327.70351746404776,None,2,0.3043073099688627,327.70351746404776,None,,,,,,,,,,,,,,,,None,None,None,,None,None,328.05175882199546,None,1,1,1.034603674954269,328.05175882199546,None,329.08497694929247,None,None,None,None,,40,001,2023_Jan_30_1717,searchDisc5,2021.2.3,60.28189489782824,
images/exp2a_trial_14_colour3_distractors31_r.png,r,3,3,31,0,,,,,0,74,74,74,,,,,,,,,,,,,,,,,,,,,,,,,,,,,,,,,,,,,,,,,,,329.10117859899765,None,2,0.32312108599580824,329.10117859899765,None,,,,,,,,,,,,,,,,None,None,None,,None,None,329.46883166301996,None,3,1,0.9837708949926309,329.46883166301996,None,330.4510920373432,None,None,None,None,,40,001,2023_Jan_30_1717,searchDisc5,2021.2.3,60.28189489782824,
images/exp1a_trial_253_colour3_distractors31_l.png,l,1,3,31,0,,,,,0,75,75,75,,,,,,,,,,,,,,,,,,,,,,,,,,,,,,,,,,,,,,,,,,,330.47007459704764,None,2,0.25681367301149294,330.47007459704764,None,,,,,,,,,,,,,,,,None,None,None,,None,None,330.7681957940222,None,1,1,0.8308964319876395,330.7681957940222,None,331.60088378333603,None,None,None,None,,40,001,2023_Jan_30_1717,searchDisc5,2021.2.3,60.28189489782824,
images/exp2c_trial_21_colour2_distractors4_l.png,l,1,2,4,0,,,,,0,76,76,76,,,,,,,,,,,,,,,,,,,,,,,,,,,,,,,,,,,,,,,,,,,331.6184075230267,None,2,0.2887005730299279,331.6184075230267,None,,,,,,,,,,,,,,,,None,None,None,,None,None,331.9521623220062,None,1,1,0.7562338690040633,331.9521623220062,None,332.70161713132984,None,None,None,None,,40,001,2023_Jan_30_1717,searchDisc5,2021.2.3,60.28189489782824,
images/exp2b_trial_188_colour3_distractors19_l.png,l,1,3,19,0,,,,,0,77,77,77,,,,,,,,,,,,,,,,,,,,,,,,,,,,,,,,,,,,,,,,,,,332.7202994360123,None,2,0.2557519560214132,332.7202994360123,None,,,,,,,,,,,,,,,,None,None,None,,None,None,333.0180278440239,None,1,1,0.8367423439631239,333.0180278440239,None,333.85154350931407,None,None,None,None,,40,001,2023_Jan_30_1717,searchDisc5,2021.2.3,60.28189489782824,
images/exp1a_trial_57_colour3_distractors1_l.png,l,1,3,1,0,,,,,0,78,78,78,,,,,,,,,,,,,,,,,,,,,,,,,,,,,,,,,,,,,,,,,,,333.8684471300221,None,2,0.337631180009339,333.8684471300221,None,,,,,,,,,,,,,,,,None,None,None,,None,None,334.2513010459952,None,1,1,0.7234585910337046,334.2513010459952,None,334.9683567303291,None,None,None,None,,40,001,2023_Jan_30_1717,searchDisc5,2021.2.3,60.28189489782824,
images/exp1a_trial_206_colour3_distractors31_r.png,r,3,3,31,0,,,,,0,79,79,79,,,,,,,,,,,,,,,,,,,,,,,,,,,,,,,,,,,,,,,,,,,334.986653932021,None,2,0.33855983801186085,334.986653932021,None,,,,,,,,,,,,,,,,None,None,None,,None,None,335.36858385102823,None,3,1,0.9478223369806074,335.36858385102823,None,336.31844672132866,None,None,None,None,,40,001,2023_Jan_30_1717,searchDisc5,2021.2.3,60.28189489782824,
images/exp2c_trial_102_colour2_distractors4_r.png,r,3,2,4,0,,,,,0,80,80,80,,,,,,,,,,,,,,,,,,,,,,,,,,,,,,,,,,,,,,,,,,,336.3346673970227,None,2,0.2877790170023218,336.3346673970227,None,,,,,,,,,,,,,,,,None,None,None,,None,None,336.66820741904667,None,3,1,0.7055497580440715,336.66820741904667,None,337.368410006311,None,None,None,None,,40,001,2023_Jan_30_1717,searchDisc5,2021.2.3,60.28189489782824,
images/exp1a_trial_151_colour2_distractors19_l.png,l,1,2,19,0,,,,,0,81,81,81,,,,,,,,,,,,,,,,,,,,,,,,,,,,,,,,,,,,,,,,,,,337.38729663100094,None,2,0.2712984249810688,337.38729663100094,None,,,,,,,,,,,,,,,,None,None,None,,None,None,337.70138952700654,None,1,1,0.802630471996963,337.70138952700654,None,338.5019103953091,None,None,None,None,,40,001,2023_Jan_30_1717,searchDisc5,2021.2.3,60.28189489782824,
images/exp2c_trial_212_colour2_distractors1_l.png,l,1,2,1,0,,,,,0,82,82,82,,,,,,,,,,,,,,,,,,,,,,,,,,,,,,,,,,,,,,,,,,,338.5185158980312,None,2,0.2753301340271719,338.5185158980312,None,,,,,,,,,,,,,,,,None,None,None,,None,None,338.8351573900436,None,1,1,0.6324124300153926,338.8351573900436,None,339.4684434462979,None,None,None,None,,40,001,2023_Jan_30_1717,searchDisc5,2021.2.3,60.28189489782824,
images/exp2b_trial_105_colour2_distractors31_r.png,r,3,2,31,0,,,,,0,83,83,83,,,,,,,,,,,,,,,,,,,,,,,,,,,,,,,,,,,,,,,,,,,339.48507160303416,None,2,0.3041810489958152,339.48507160303416,None,,,,,,,,,,,,,,,,None,None,None,,None,None,339.8349052120466,None,3,1,0.9034824990085326,339.8349052120466,None,340.73516043429845,None,None,None,None,,40,001,2023_Jan_30_1717,searchDisc5,2021.2.3,60.28189489782824,
images/exp1a_trial_293_colour2_distractors1_r.png,r,3,2,1,0,,,,,0,84,84,84,,,,,,,,,,,,,,,,,,,,,,,,,,,,,,,,,,,,,,,,,,,340.7539480240084,None,2,0.25455846899421886,340.7539480240084,None,,,,,,,,,,,,,,,,None,None,None,,None,None,341.05141627800185,None,3,1,0.7920703359995969,341.05141627800185,None,341.83512753629475,None,None,None,None,,40,001,2023_Jan_30_1717,searchDisc5,2021.2.3,60.28189489782824,
images/exp2b_trial_34_colour1_distractors9_r.png,r,3,1,9,0,,,,,0,85,85,85,,,,,,,,,,,,,,,,,,,,,,,,,,,,,,,,,,,,,,,,,,,341.8519810560392,None,2,0.3028269700007513,341.8519810560392,None,,,,,,,,,,,,,,,,None,None,None,,None,None,342.20162154204445,None,3,1,0.7719884709804319,342.20162154204445,None,342.9685225333378,None,None,None,None,,40,001,2023_Jan_30_1717,searchDisc5,2021.2.3,60.28189489782824,
images/exp2c_trial_182_colour2_distractors9_l.png,l,1,2,9,0,,,,,0,86,86,86,,,,,,,,,,,,,,,,,,,,,,,,,,,,,,,,,,,,,,,,,,,342.98485618800623,None,2,0.30441659700591117,342.98485618800623,None,,,,,,,,,,,,,,,,None,None,None,,None,None,343.33506810001563,None,1,1,0.7884906699764542,343.33506810001563,None,344.1184699323203,None,None,None,None,,40,001,2023_Jan_30_1717,searchDisc5,2021.2.3,60.28189489782824,
images/exp2c_trial_92_colour3_distractors19_l.png,l,1,3,19,0,,,,,0,87,87,87,,,,,,,,,,,,,,,,,,,,,,,,,,,,,,,,,,,,,,,,,,,344.13468952599214,None,2,0.28759305499261245,344.13468952599214,None,,,,,,,,,,,,,,,,None,None,None,,None,None,344.46901269600494,None,1,1,1.3043220560066402,344.46901269600494,None,345.76787095630425,None,None,None,None,,40,001,2023_Jan_30_1717,searchDisc5,2021.2.3,60.28189489782824,
images/exp2c_trial_261_colour2_distractors1_r.png,r,3,2,1,0,,,,,0,88,88,88,,,,,,,,,,,,,,,,,,,,,,,,,,,,,,,,,,,,,,,,,,,345.7852532470133,None,2,0.37154849601211026,345.7852532470133,None,,,,,,,,,,,,,,,,None,None,None,,None,None,346.20360788702965,None,3,1,0.7734262180165388,346.20360788702965,None,346.968679459329,None,None,None,None,,40,001,2023_Jan_30_1717,searchDisc5,2021.2.3,60.28189489782824,
images/exp1a_trial_123_colour3_distractors9_l.png,l,1,3,9,0,,,,,0,89,89,89,,,,,,,,,,,,,,,,,,,,,,,,,,,,,,,,,,,,,,,,,,,346.9852841109969,None,2,0.28806345496559516,346.9852841109969,None,,,,,,,,,,,,,,,,None,None,None,,None,None,347.318856833037,None,1,1,1.0198616319685243,347.318856833037,None,348.33536763329175,None,None,None,None,,40,001,2023_Jan_30_1717,searchDisc5,2021.2.3,60.28189489782824,
images/exp2b_trial_186_colour3_distractors4_l.png,l,1,3,4,0,,,,,0,90,90,90,,,,,,,,,,,,,,,,,,,,,,,,,,,,,,,,,,,,,,,,,,,348.3520376480301,None,2,0.3712434269837104,348.3520376480301,None,,,,,,,,,,,,,,,,None,None,None,,None,None,348.7711550150416,None,1,1,0.7228037139866501,348.7711550150416,None,349.4854227283213,None,None,None,None,,40,001,2023_Jan_30_1717,searchDisc5,2021.2.3,60.28189489782824,
images/exp2c_trial_11_colour3_distractors4_r.png,r,3,3,4,0,,,,,0,91,91,91,,,,,,,,,,,,,,,,,,,,,,,,,,,,,,,,,,,,,,,,,,,349.50174157804577,None,2,0.3210621540201828,349.50174157804577,None,,,,,,,,,,,,,,,,None,None,None,,None,None,349.86909895500867,None,3,1,0.7892763670533895,349.86909895500867,None,350.6523239353264,None,None,None,None,,40,001,2023_Jan_30_1717,searchDisc5,2021.2.3,60.28189489782824,
images/exp2b_trial_91_colour3_distractors9_l.png,l,1,3,9,0,,,,,0,92,92,92,,,,,,,,,,,,,,,,,,,,,,,,,,,,,,,,,,,,,,,,,,,350.66882592602633,None,2,0.2713176080142148,350.66882592602633,None,,,,,,,,,,,,,,,,None,None,None,,None,None,350.98581591201946,None,1,1,1.1211995959747583,350.98581591201946,None,352.10226676330785,None,None,None,None,,40,001,2023_Jan_30_1717,searchDisc5,2021.2.3,60.28189489782824,
images/exp1a_trial_50_colour1_distractors19_l.png,l,1,1,19,0,,,,,0,93,93,93,,,,,,,,,,,,,,,,,,,,,,,,,,,,,,,,,,,,,,,,,,,352.12067712901626,None,2,0.2708682229858823,352.12067712901626,None,,,,,,,,,,,,,,,,None,None,None,,None,None,352.43545833200915,None,1,1,0.8522518299869262,352.43545833200915,None,353.28557014730177,None,None,None,None,,40,001,2023_Jan_30_1717,searchDisc5,2021.2.3,60.28189489782824,
images/exp2a_trial_162_colour1_distractors9_r.png,r,3,1,9,0,,,,,0,94,94,94,,,,,,,,,,,,,,,,,,,,,,,,,,,,,,,,,,,,,,,,,,,353.30173450900475,None,2,0.3046724440064281,353.30173450900475,None,,,,,,,,,,,,,,,,None,None,None,,None,None,353.6523078670143,None,3,1,0.8720452620182186,353.6523078670143,None,354.519142994337,None,None,None,None,,40,001,2023_Jan_30_1717,searchDisc5,2021.2.3,60.28189489782824,
images/exp2a_trial_154_colour3_distractors4_l.png,l,1,3,4,0,,,,,0,95,95,95,,,,,,,,,,,,,,,,,,,,,,,,,,,,,,,,,,,,,,,,,,,354.53559089801274,None,2,0.25440332700964063,354.53559089801274,None,,,,,,,,,,,,,,,,None,None,None,,None,None,354.8358342979918,None,1,1,0.7392482229624875,354.8358342979918,None,355.5689294443291,None,None,None,None,,40,001,2023_Jan_30_1717,searchDisc5,2021.2.3,60.28189489782824,
images/exp1a_trial_1_colour1_distractors4_r.png,r,3,1,4,0,,,,,0,96,96,96,,,,,,,,,,,,,,,,,,,,,,,,,,,,,,,,,,,,,,,,,,,355.58714109199354,None,2,0.3045434709638357,355.58714109199354,None,,,,,,,,,,,,,,,,None,None,None,,None,None,355.9358481710078,None,3,1,1.255706068011932,355.9358481710078,None,357.18572554332786,None,None,None,None,,40,001,2023_Jan_30_1717,searchDisc5,2021.2.3,60.28189489782824,
images/exp2c_trial_257_colour1_distractors4_r.png,r,3,1,4,0,,,,,0,97,97,97,,,,,,,,,,,,,,,,,,,,,,,,,,,,,,,,,,,,,,,,,,,357.2022481280146,None,2,0.30458772100973874,357.2022481280146,None,,,,,,,,,,,,,,,,None,None,None,,None,None,357.5518077930319,None,3,1,0.8059477259521373,357.5518077930319,None,358.3524873263377,None,None,None,None,,40,001,2023_Jan_30_1717,searchDisc5,2021.2.3,60.28189489782824,
images/exp2a_trial_78_colour3_distractors31_r.png,r,3,3,31,0,,,,,0,98,98,98,,,,,,,,,,,,,,,,,,,,,,,,,,,,,,,,,,,,,,,,,,,358.3687991630286,None,2,0.30598021199693903,358.3687991630286,None,,,,,,,,,,,,,,,,None,None,None,,None,None,358.7190290100407,None,3,1,0.6509800160420127,358.7190290100407,None,359.36871853630873,None,None,None,None,,40,001,2023_Jan_30_1717,searchDisc5,2021.2.3,60.28189489782824,
images/exp2a_trial_70_colour2_distractors4_r.png,r,3,2,4,0,,,,,0,99,99,99,,,,,,,,,,,,,,,,,,,,,,,,,,,,,,,,,,,,,,,,,,,359.3857137390296,None,2,0.3216215969878249,359.3857137390296,None,,,,,,,,,,,,,,,,None,None,None,,None,None,359.75248141400516,None,3,1,0.9531573050189763,359.75248141400516,None,360.7024547623296,None,None,None,None,,40,001,2023_Jan_30_1717,searchDisc5,2021.2.3,60.28189489782824,
images/exp2a_trial_286_colour0_distractors0_r.png,r,3,0,0,0,,,,,0,100,100,100,,,,,,,,,,,,,,,,,,,,,,,,,,,,,,,,,,,,,,,,,,,360.71828616503626,None,2,0.287747299997136,360.71828616503626,None,,,,,,,,,,,,,,,,None,None,None,,None,None,361.05258591799065,None,3,1,0.6734624120290391,361.05258591799065,None,361.7190577473084,None,None,None,None,,40,001,2023_Jan_30_1717,searchDisc5,2021.2.3,60.28189489782824,
images/exp2a_trial_180_colour2_distractors1_l.png,l,1,2,1,0,,,,,0,101,101,101,,,,,,,,,,,,,,,,,,,,,,,,,,,,,,,,,,,,,,,,,,,361.735826766002,None,2,0.32134199497522786,361.735826766002,None,,,,,,,,,,,,,,,,None,None,None,,None,None,362.10236745799193,None,1,1,0.7376267979852855,362.10236745799193,None,362.83492974433466,None,None,None,None,,40,001,2023_Jan_30_1717,searchDisc5,2021.2.3,60.28189489782824,
images/exp2c_trial_142_colour3_distractors31_r.png,r,3,3,31,0,,,,,0,102,102,102,,,,,,,,,,,,,,,,,,,,,,,,,,,,,,,,,,,,,,,,,,,362.8517088640365,None,2,0.32172766799340025,362.8517088640365,None,,,,,,,,,,,,,,,,None,None,None,,None,None,363.2193283800152,None,3,1,2.1868690680130385,363.2193283800152,None,365.4024933743349,None,None,None,None,,40,001,2023_Jan_30_1717,searchDisc5,2021.2.3,60.28189489782824,
images/exp2b_trial_129_colour1_distractors4_r.png,r,3,1,4,0,,,,,0,103,103,103,,,,,,,,,,,,,,,,,,,,,,,,,,,,,,,,,,,,,,,,,,,365.4185263480176,None,2,0.30395356996450573,365.4185263480176,None,,,,,,,,,,,,,,,,None,None,None,,None,None,365.76937905699015,None,3,1,0.7559126960113645,365.76937905699015,None,366.51937313433154,None,None,None,None,,40,001,2023_Jan_30_1717,searchDisc5,2021.2.3,60.28189489782824,
images/exp2c_trial_63_colour0_distractors0_l.png,l,1,0,0,0,,,,,0,104,104,104,,,,,,,,,,,,,,,,,,,,,,,,,,,,,,,,,,,,,,,,,,,366.5356034230208,None,2,0.3043023349600844,366.5356034230208,None,,,,,,,,,,,,,,,,None,None,None,,None,None,366.88621026999317,None,1,1,0.9236557129770517,366.88621026999317,None,367.80264755131793,None,None,None,None,,40,001,2023_Jan_30_1717,searchDisc5,2021.2.3,60.28189489782824,
images/exp2a_trial_11_colour3_distractors4_r.png,r,3,3,4,0,,,,,0,105,105,105,,,,,,,,,,,,,,,,,,,,,,,,,,,,,,,,,,,,,,,,,,,367.82083749503363,None,2,0.3711618999950588,367.82083749503363,None,,,,,,,,,,,,,,,,None,None,None,,None,None,368.23840733699035,None,3,1,1.1393487409804948,368.23840733699035,None,369.36936471934314,None,None,None,None,,40,001,2023_Jan_30_1717,searchDisc5,2021.2.3,60.28189489782824,
images/exp1a_trial_31_colour0_distractors0_l.png,l,1,0,0,0,,,,,0,106,106,106,,,,,,,,,,,,,,,,,,,,,,,,,,,,,,,,,,,,,,,,,,,369.38570793002145,None,2,0.2710655150003731,369.38570793002145,None,,,,,,,,,,,,,,,,None,None,None,,None,None,369.70300451799994,None,1,1,0.8737134899711236,369.70300451799994,None,370.56932884131675,None,None,None,None,,40,001,2023_Jan_30_1717,searchDisc5,2021.2.3,60.28189489782824,
images/exp2c_trial_168_colour2_distractors19_r.png,r,3,2,19,0,,,,,0,107,107,107,,,,,,,,,,,,,,,,,,,,,,,,,,,,,,,,,,,,,,,,,,,370.5860195150017,None,2,0.25645684998016804,370.5860195150017,None,,,,,,,,,,,,,,,,None,None,None,,None,None,370.88843167800223,None,3,1,1.2685516590136103,370.88843167800223,None,372.1525041613204,None,None,None,None,,40,001,2023_Jan_30_1717,searchDisc5,2021.2.3,60.28189489782824,
images/exp2a_trial_189_colour3_distractors31_l.png,l,1,3,31,0,,,,,0,108,108,108,,,,,,,,,,,,,,,,,,,,,,,,,,,,,,,,,,,,,,,,,,,372.17141640599584,None,2,0.2547410320257768,372.17141640599584,None,,,,,,,,,,,,,,,,None,None,None,,None,None,372.4695201680297,None,1,1,0.9366241589887068,372.4695201680297,None,373.40264055129956,None,None,None,None,,40,001,2023_Jan_30_1717,searchDisc5,2021.2.3,60.28189489782824,
images/exp2b_trial_202_colour3_distractors1_r.png,r,3,3,1,0,,,,,0,109,109,109,,,,,,,,,,,,,,,,,,,,,,,,,,,,,,,,,,,,,,,,,,,373.4193669860251,None,2,0.28747513802954927,373.4193669860251,None,,,,,,,,,,,,,,,,None,None,None,,None,None,373.75301696400857,None,3,1,1.0738832260249183,373.75301696400857,None,374.8194903143158,None,None,None,None,,40,001,2023_Jan_30_1717,searchDisc5,2021.2.3,60.28189489782824,
images/exp2b_trial_257_colour1_distractors4_r.png,r,3,1,4,0,,,,,0,110,110,110,,,,,,,,,,,,,,,,,,,,,,,,,,,,,,,,,,,,,,,,,,,374.8359878890333,None,2,0.2711572099942714,374.8359878890333,None,,,,,,,,,,,,,,,,None,None,None,,None,None,375.1531878170208,None,3,1,1.0064123169868253,375.1531878170208,None,376.15278742232476,None,None,None,None,,40,001,2023_Jan_30_1717,searchDisc5,2021.2.3,60.28189489782824,
images/exp1a_trial_94_colour0_distractors0_r.png,r,3,0,0,0,,,,,0,111,111,111,,,,,,,,,,,,,,,,,,,,,,,,,,,,,,,,,,,,,,,,,,,376.1697215689928,None,2,0.2207681099534966,376.1697215689928,None,,,,,,,,,,,,,,,,None,None,None,,None,None,376.4383821969968,None,3,1,0.6893726689741015,376.4383821969968,None,377.11866910531535,None,None,None,None,,40,001,2023_Jan_30_1717,searchDisc5,2021.2.3,60.28189489782824,
images/exp2c_trial_300_colour3_distractors9_r.png,r,3,3,9,0,,,,,0,112,112,112,,,,,,,,,,,,,,,,,,,,,,,,,,,,,,,,,,,,,,,,,,,377.1360316200298,None,2,0.22427172103198245,377.1360316200298,None,,,,,,,,,,,,,,,,None,None,None,,None,None,377.4027817750466,None,3,1,0.7028622850193642,377.4027817750466,None,378.102417179296,None,None,None,None,,40,001,2023_Jan_30_1717,searchDisc5,2021.2.3,60.28189489782824,
images/exp2c_trial_3_colour1_distractors19_r.png,r,3,1,19,0,,,,,0,113,113,113,,,,,,,,,,,,,,,,,,,,,,,,,,,,,,,,,,,,,,,,,,,378.11973346199375,None,2,0.27571856102440506,378.11973346199375,None,,,,,,,,,,,,,,,,None,None,None,,None,None,378.4361950890161,None,3,1,0.7165219799499027,378.4361950890161,None,379.1524348043313,None,None,None,None,,40,001,2023_Jan_30_1717,searchDisc5,2021.2.3,60.28189489782824,
images/exp1a_trial_246_colour2_distractors9_l.png,l,1,2,9,0,,,,,0,114,114,114,,,,,,,,,,,,,,,,,,,,,,,,,,,,,,,,,,,,,,,,,,,379.1696261659963,None,2,0.25715492595918477,379.1696261659963,None,,,,,,,,,,,,,,,,None,None,None,,None,None,379.4717215319979,None,1,1,0.8856982259894721,379.4717215319979,None,380.3528832203301,None,None,None,None,,40,001,2023_Jan_30_1717,searchDisc5,2021.2.3,60.28189489782824,
images/exp2c_trial_282_colour3_distractors4_l.png,l,1,3,4,0,,,,,0,115,115,115,,,,,,,,,,,,,,,,,,,,,,,,,,,,,,,,,,,,,,,,,,,380.3691718640039,None,2,0.27123637998010963,380.3691718640039,None,,,,,,,,,,,,,,,,None,None,None,,None,None,380.6863485960057,None,1,1,0.7724991450086236,380.6863485960057,None,381.45292257130495,None,None,None,None,,40,001,2023_Jan_30_1717,searchDisc5,2021.2.3,60.28189489782824,
images/exp1a_trial_164_colour1_distractors31_r.png,r,3,1,31,0,,,,,0,116,116,116,,,,,,,,,,,,,,,,,,,,,,,,,,,,,,,,,,,,,,,,,,,381.4715170620475,None,2,0.3042969960370101,381.4715170620475,None,,,,,,,,,,,,,,,,None,None,None,,None,None,381.81981457199436,None,3,1,1.251055050001014,381.81981457199436,None,383.0697323543427,None,None,None,None,,40,001,2023_Jan_30_1717,searchDisc5,2021.2.3,60.28189489782824,
images/exp2b_trial_157_colour3_distractors31_l.png,l,1,3,31,0,,,,,0,117,117,117,,,,,,,,,,,,,,,,,,,,,,,,,,,,,,,,,,,,,,,,,,,383.0883572890307,None,2,0.2210979629890062,383.0883572890307,None,,,,,,,,,,,,,,,,None,None,None,,None,None,383.3533344590105,None,1,1,0.9707830919651315,383.3533344590105,None,384.3197167463077,None,None,None,None,,40,001,2023_Jan_30_1717,searchDisc5,2021.2.3,60.28189489782824,
images/exp2c_trial_273_colour1_distractors9_l.png,l,1,1,9,0,,,,,0,118,118,118,,,,,,,,,,,,,,,,,,,,,,,,,,,,,,,,,,,,,,,,,,,384.33632891403977,None,2,0.23818355199182406,384.33632891403977,None,,,,,,,,,,,,,,,,None,None,None,,None,None,384.6201648580027,None,1,1,0.8550835130154155,384.6201648580027,None,385.46977331329254,None,None,None,None,,40,001,2023_Jan_30_1717,searchDisc5,2021.2.3,60.28189489782824,
images/exp2a_trial_293_colour2_distractors1_r.png,r,3,2,1,0,,,,,0,119,119,119,,,,,,,,,,,,,,,,,,,,,,,,,,,,,,,,,,,,,,,,,,,385.4858681890182,None,2,0.288164243043866,385.4858681890182,None,,,,,,,,,,,,,,,,None,None,None,,None,None,385.82004103803774,None,3,1,1.2059296289808117,385.82004103803774,None,387.0198117993132,None,None,None,None,,40,001,2023_Jan_30_1717,searchDisc5,2021.2.3,60.28189489782824,
images/exp2a_trial_295_colour2_distractors9_r.png,r,3,2,9,0,,,,,0,120,120,120,,,,,,,,,,,,,,,,,,,,,,,,,,,,,,,,,,,,,,,,,,,387.0362348940107,None,2,0.2877145900274627,387.0362348940107,None,,,,,,,,,,,,,,,,None,None,None,,None,None,387.37000002904097,None,3,1,1.2196113709942438,387.37000002904097,None,388.58648405832355,None,None,None,None,,40,001,2023_Jan_30_1717,searchDisc5,2021.2.3,60.28189489782824,
images/exp2b_trial_163_colour1_distractors19_r.png,r,3,1,19,0,,,,,0,121,121,121,,,,,,,,,,,,,,,,,,,,,,,,,,,,,,,,,,,,,,,,,,,388.6046735380078,None,2,0.27130961895454675,388.6046735380078,None,,,,,,,,,,,,,,,,None,None,None,,None,None,388.91994276701007,None,3,1,0.7703541140072048,388.91994276701007,None,389.686429879308,None,None,None,None,,40,001,2023_Jan_30_1717,searchDisc5,2021.2.3,60.28189489782824,
images/exp1a_trial_51_colour1_distractors31_l.png,l,1,1,31,0,,,,,0,122,122,122,,,,,,,,,,,,,,,,,,,,,,,,,,,,,,,,,,,,,,,,,,,389.7031280110241,None,2,0.2698144849855453,389.7031280110241,None,,,,,,,,,,,,,,,,None,None,None,,None,None,390.020041804004,None,1,1,2.218526207958348,390.020041804004,None,392.2366617323423,None,None,None,None,,40,001,2023_Jan_30_1717,searchDisc5,2021.2.3,60.28189489782824,
images/exp2a_trial_7_colour2_distractors9_r.png,r,3,2,9,0,,,,,0,123,123,123,,,,,,,,,,,,,,,,,,,,,,,,,,,,,,,,,,,,,,,,,,,392.25297201500507,None,2,0.2699693890172057,392.25297201500507,None,,,,,,,,,,,,,,,,None,None,None,,None,None,392.570167863043,None,3,1,1.3017832969781011,392.570167863043,None,393.87035557531635,None,None,None,None,,40,001,2023_Jan_30_1717,searchDisc5,2021.2.3,60.28189489782824,
images/exp2a_trial_273_colour1_distractors9_l.png,l,1,1,9,0,,,,,0,124,124,124,,,,,,,,,,,,,,,,,,,,,,,,,,,,,,,,,,,,,,,,,,,393.8867744380259,None,2,0.22447522595757619,393.8867744380259,None,,,,,,,,,,,,,,,,None,None,None,,None,None,394.1553848750191,None,1,1,1.3180744689889252,394.1553848750191,None,395.4699628003,None,None,None,None,,40,001,2023_Jan_30_1717,searchDisc5,2021.2.3,60.28189489782824,
images/exp2c_trial_28_colour3_distractors19_l.png,l,1,3,19,0,,,,,0,125,125,125,,,,,,,,,,,,,,,,,,,,,,,,,,,,,,,,,,,,,,,,,,,395.4866182060214,None,2,0.2546396440011449,395.4866182060214,None,,,,,,,,,,,,,,,,None,None,None,,None,None,395.7862349090283,None,1,1,0.9536655199481174,395.7862349090283,None,396.7366394973069,None,None,None,None,,40,001,2023_Jan_30_1717,searchDisc5,2021.2.3,60.28189489782824,
images/exp2a_trial_156_colour3_distractors19_l.png,l,1,3,19,0,,,,,0,126,126,126,,,,,,,,,,,,,,,,,,,,,,,,,,,,,,,,,,,,,,,,,,,396.7533676919993,None,2,0.4573770189890638,396.7533676919993,None,,,,,,,,,,,,,,,,None,None,None,,None,None,397.25562337302836,None,1,1,0.9688898979802616,397.25562337302836,None,398.22036940432736,None,None,None,None,,40,001,2023_Jan_30_1717,searchDisc5,2021.2.3,60.28189489782824,
images/exp2c_trial_256_colour1_distractors1_r.png,r,3,1,1,0,,,,,0,127,127,127,,,,,,,,,,,,,,,,,,,,,,,,,,,,,,,,,,,,,,,,,,,398.23661317903316,None,2,0.3044826179975644,398.23661317903316,None,,,,,,,,,,,,,,,,None,None,None,,None,None,398.5871832970297,None,3,1,1.2254491450148635,398.5871832970297,None,399.8038594153186,None,None,None,None,,40,001,2023_Jan_30_1717,searchDisc5,2021.2.3,60.28189489782824,
images/exp1a_trial_121_colour3_distractors1_l.png,l,1,3,1,0,,,,,0,128,128,128,,,,,,,,,,,,,,,,,,,,,,,,,,,,,,,,,,,,,,,,,,,399.8221455840394,None,2,0.2541545380372554,399.8221455840394,None,,,,,,,,,,,,,,,,None,None,None,,None,None,400.12051188002806,None,1,1,1.0397030360181816,400.12051188002806,None,401.15353328731726,None,None,None,None,,40,001,2023_Jan_30_1717,searchDisc5,2021.2.3,60.28189489782824,
images/exp2a_trial_102_colour2_distractors4_r.png,r,3,2,4,0,,,,,0,129,129,129,,,,,,,,,,,,,,,,,,,,,,,,,,,,,,,,,,,,,,,,,,,401.1700728959986,None,2,0.26922773697879165,401.1700728959986,None,,,,,,,,,,,,,,,,None,None,None,,None,None,401.4871201069909,None,3,1,1.7229338770266622,401.4871201069909,None,403.20352137231384,None,None,None,None,,40,001,2023_Jan_30_1717,searchDisc5,2021.2.3,60.28189489782824,
images/exp1a_trial_152_colour2_distractors31_l.png,l,1,2,31,0,,,,,0,130,130,130,,,,,,,,,,,,,,,,,,,,,,,,,,,,,,,,,,,,,,,,,,,403.2195356390439,None,2,0.23874871799489483,403.2195356390439,None,,,,,,,,,,,,,,,,None,None,None,,None,None,403.5038985480205,None,1,1,1.1154543139855377,403.5038985480205,None,404.62027662133914,None,None,None,None,,40,001,2023_Jan_30_1717,searchDisc5,2021.2.3,60.28189489782824,
images/exp2b_trial_310_colour2_distractors9_l.png,l,1,2,9,0,,,,,0,131,131,131,,,,,,,,,,,,,,,,,,,,,,,,,,,,,,,,,,,,,,,,,,,404.6391592710279,None,2,0.27056218398502097,404.6391592710279,None,,,,,,,,,,,,,,,,None,None,None,,None,None,404.95336168503854,None,1,1,0.6852857159683481,404.95336168503854,None,405.63728838032694,None,None,None,None,,40,001,2023_Jan_30_1717,searchDisc5,2021.2.3,60.28189489782824,
images/exp2b_trial_107_colour3_distractors4_r.png,r,3,3,4,0,,,,,0,132,132,132,,,,,,,,,,,,,,,,,,,,,,,,,,,,,,,,,,,,,,,,,,,405.6536745860358,None,2,0.30421877501066774,405.6536745860358,None,,,,,,,,,,,,,,,,None,None,None,,None,None,406.0031199119985,None,3,1,0.8741927419905551,406.0031199119985,None,406.8703119653219,None,None,None,None,,40,001,2023_Jan_30_1717,searchDisc5,2021.2.3,60.28189489782824,
images/exp2b_trial_301_colour3_distractors19_r.png,r,3,3,19,0,,,,,0,133,133,133,,,,,,,,,,,,,,,,,,,,,,,,,,,,,,,,,,,,,,,,,,,406.8867768649943,None,2,0.18966027098940685,406.8867768649943,None,,,,,,,,,,,,,,,,None,None,None,,None,None,407.12199086800683,None,3,1,0.7339757640147582,407.12199086800683,None,407.85365539530176,None,None,None,None,,40,001,2023_Jan_30_1717,searchDisc5,2021.2.3,60.28189489782824,
images/exp2c_trial_313_colour3_distractors1_l.png,l,1,3,1,0,,,,,0,134,134,134,,,,,,,,,,,,,,,,,,,,,,,,,,,,,,,,,,,,,,,,,,,407.8697005030117,None,2,0.27074419503333047,407.8697005030117,None,,,,,,,,,,,,,,,,None,None,None,,None,None,408.1874712690478,None,1,1,1.006749634980224,408.1874712690478,None,409.1869775583327,None,None,None,None,,40,001,2023_Jan_30_1717,searchDisc5,2021.2.3,60.28189489782824,
images/exp2a_trial_226_colour1_distractors9_r.png,r,3,1,9,0,,,,,0,135,135,135,,,,,,,,,,,,,,,,,,,,,,,,,,,,,,,,,,,,,,,,,,,409.2057908930001,None,2,0.2878422099747695,409.2057908930001,None,,,,,,,,,,,,,,,,None,None,None,,None,None,409.5371440500021,None,3,1,0.9052958760294132,409.5371440500021,None,410.4370826513332,None,None,None,None,,40,001,2023_Jan_30_1717,searchDisc5,2021.2.3,60.28189489782824,
images/exp2c_trial_236_colour3_distractors9_r.png,r,3,3,9,0,,,,,0,136,136,136,,,,,,,,,,,,,,,,,,,,,,,,,,,,,,,,,,,,,,,,,,,410.4558263660292,None,2,0.22101125703193247,410.4558263660292,None,,,,,,,,,,,,,,,,None,None,None,,None,None,410.7209729170427,None,3,1,1.2217028180020861,410.7209729170427,None,411.9370797283191,None,None,None,None,,40,001,2023_Jan_30_1717,searchDisc5,2021.2.3,60.28189489782824,
images/exp2b_trial_272_colour1_distractors4_l.png,l,1,1,4,0,,,,,0,137,137,137,,,,,,,,,,,,,,,,,,,,,,,,,,,,,,,,,,,,,,,,,,,411.95550771901617,None,2,0.22139765502652153,411.95550771901617,None,,,,,,,,,,,,,,,,None,None,None,,None,None,412.22066978999646,None,1,1,1.2060026690014638,412.22066978999646,None,413.4205002343224,None,None,None,None,,40,001,2023_Jan_30_1717,searchDisc5,2021.2.3,60.28189489782824,
images/exp2c_trial_169_colour2_distractors31_r.png,r,3,2,31,0,,,,,0,138,138,138,,,,,,,,,,,,,,,,,,,,,,,,,,,,,,,,,,,,,,,,,,,413.4371973919915,None,2,0.2548724350053817,413.4371973919915,None,,,,,,,,,,,,,,,,None,None,None,,None,None,413.7394158830284,None,3,1,0.9199120840057731,413.7394158830284,None,414.6538586433453,None,None,None,None,,40,001,2023_Jan_30_1717,searchDisc5,2021.2.3,60.28189489782824,
images/exp1a_trial_264_colour2_distractors19_r.png,r,3,2,19,0,,,,,0,139,139,139,,,,,,,,,,,,,,,,,,,,,,,,,,,,,,,,,,,,,,,,,,,414.67058158502914,None,2,0.20678953197784722,414.67058158502914,None,,,,,,,,,,,,,,,,None,None,None,,None,None,414.9225715450011,None,3,1,0.7856633519986644,414.9225715450011,None,415.7039197933336,None,None,None,None,,40,001,2023_Jan_30_1717,searchDisc5,2021.2.3,60.28189489782824,
images/exp2b_trial_269_colour3_distractors19_r.png,r,3,3,19,0,,,,,0,140,140,140,,,,,,,,,,,,,,,,,,,,,,,,,,,,,,,,,,,,,,,,,,,415.7207428330439,None,2,0.2546167849795893,415.7207428330439,None,,,,,,,,,,,,,,,,None,None,None,,None,None,416.0229583280161,None,3,1,0.6347085309680551,416.0229583280161,None,416.65346847029286,None,None,None,None,,40,001,2023_Jan_30_1717,searchDisc5,2021.2.3,60.28189489782824,
images/exp1a_trial_6_colour2_distractors4_r.png,r,3,2,4,0,,,,,0,141,141,141,,,,,,,,,,,,,,,,,,,,,,,,,,,,,,,,,,,,,,,,,,,416.670126979996,None,2,0.24031055497471243,416.670126979996,None,,,,,,,,,,,,,,,,None,None,None,,None,None,416.95623697404517,None,3,1,0.671619621978607,416.95623697404517,None,417.62071780933184,None,None,None,None,,40,001,2023_Jan_30_1717,searchDisc5,2021.2.3,60.28189489782824,
images/exp2a_trial_61_colour3_distractors31_l.png,l,1,3,31,0,,,,,0,142,142,142,,,,,,,,,,,,,,,,,,,,,,,,,,,,,,,,,,,,,,,,,,,417.6365030290326,None,2,0.2697069139685482,417.6365030290326,None,,,,,,,,,,,,,,,,None,None,None,,None,None,417.95426302502165,None,1,1,0.7537322079879232,417.95426302502165,None,418.70413298430503,None,None,None,None,,40,001,2023_Jan_30_1717,searchDisc5,2021.2.3,60.28189489782824,
images/exp2c_trial_304_colour1_distractors4_l.png,l,1,1,4,0,,,,,0,143,143,143,,,,,,,,,,,,,,,,,,,,,,,,,,,,,,,,,,,,,,,,,,,418.7207215829985,None,2,0.27093245298601687,418.7207215829985,None,,,,,,,,,,,,,,,,None,None,None,,None,None,419.03779106400907,None,1,1,0.5730604100390337,419.03779106400907,None,419.6042270423204,None,None,None,None,,40,001,2023_Jan_30_1717,searchDisc5,2021.2.3,60.28189489782824,
images/exp1a_trial_15_colour1_distractors1_l.png,l,1,1,1,0,,,,,0,144,144,144,,,,,,,,,,,,,,,,,,,,,,,,,,,,,,,,,,,,,,,,,,,419.6204621139914,None,2,0.2710467320284806,419.6204621139914,None,,,,,,,,,,,,,,,,None,None,None,,None,None,419.93765217904,None,1,1,1.1894572639721446,419.93765217904,None,421.1199661633291,None,None,None,None,,40,001,2023_Jan_30_1717,searchDisc5,2021.2.3,60.28189489782824,
images/exp2b_trial_246_colour2_distractors9_l.png,l,1,2,9,0,,,,,0,145,145,145,,,,,,,,,,,,,,,,,,,,,,,,,,,,,,,,,,,,,,,,,,,421.13740994001273,None,2,0.2406450950074941,421.13740994001273,None,,,,,,,,,,,,,,,,None,None,None,,None,None,421.42409877403406,None,1,1,0.8035255750291981,421.42409877403406,None,422.2209665113187,None,None,None,None,,40,001,2023_Jan_30_1717,searchDisc5,2021.2.3,60.28189489782824,
images/exp2a_trial_233_colour2_distractors31_r.png,r,3,2,31,0,,,,,0,146,146,146,,,,,,,,,,,,,,,,,,,,,,,,,,,,,,,,,,,,,,,,,,,422.23681343800854,None,2,0.2873591349925846,422.23681343800854,None,,,,,,,,,,,,,,,,None,None,None,,None,None,422.5701669449918,None,3,1,0.8124220620375127,422.5701669449918,None,423.3875701173383,None,None,None,None,,40,001,2023_Jan_30_1717,searchDisc5,2021.2.3,60.28189489782824,
images/exp2b_trial_96_colour1_distractors1_r.png,r,3,1,1,0,,,,,0,147,147,147,,,,,,,,,,,,,,,,,,,,,,,,,,,,,,,,,,,,,,,,,,,423.40494030102855,None,2,0.2387839499861002,423.40494030102855,None,,,,,,,,,,,,,,,,None,None,None,,None,None,423.68975828704424,None,3,1,0.7589437940041535,423.68975828704424,None,424.44081550932606,None,None,None,None,,40,001,2023_Jan_30_1717,searchDisc5,2021.2.3,60.28189489782824,
images/exp2a_trial_150_colour2_distractors9_l.png,l,1,2,9,0,,,,,0,148,148,148,,,,,,,,,,,,,,,,,,,,,,,,,,,,,,,,,,,,,,,,,,,424.4551741920295,None,2,0.30308644304750487,424.4551741920295,None,,,,,,,,,,,,,,,,None,None,None,,None,None,424.8073989220429,None,1,1,1.515753403014969,424.8073989220429,None,426.3209503722901,None,None,None,None,,40,001,2023_Jan_30_1717,searchDisc5,2021.2.3,60.28189489782824,
images/exp2c_trial_48_colour1_distractors4_l.png,l,1,1,4,0,,,,,0,149,149,149,,,,,,,,,,,,,,,,,,,,,,,,,,,,,,,,,,,,,,,,,,,426.33764658804284,None,2,0.4722176020150073,426.33764658804284,None,,,,,,,,,,,,,,,,None,None,None,,None,None,426.85477616102435,None,1,1,1.422044784994796,426.85477616102435,None,428.2713341273193,None,None,None,None,,40,001,2023_Jan_30_1717,searchDisc5,2021.2.3,60.28189489782824,
images/exp1a_trial_256_colour1_distractors1_r.png,r,3,1,1,0,,,,,0,150,150,150,,,,,,,,,,,,,,,,,,,,,,,,,,,,,,,,,,,,,,,,,,,428.2887053360464,None,2,0.2895062589668669,428.2887053360464,None,,,,,,,,,,,,,,,,None,None,None,,None,None,428.622335682041,None,3,1,1.5041155720246024,428.622335682041,None,430.121173519321,None,None,None,None,,40,001,2023_Jan_30_1717,searchDisc5,2021.2.3,60.28189489782824,
images/exp2b_trial_150_colour2_distractors9_l.png,l,1,2,9,0,,,,,0,151,151,151,,,,,,,,,,,,,,,,,,,,,,,,,,,,,,,,,,,,,,,,,,,430.13883873599116,None,2,0.18706432200269774,430.13883873599116,None,,,,,,,,,,,,,,,,None,None,None,,None,None,430.37127092899755,None,1,1,1.0560554369585589,430.37127092899755,None,431.4211124423018,None,None,None,None,,40,001,2023_Jan_30_1717,searchDisc5,2021.2.3,60.28189489782824,
images/exp2b_trial_93_colour3_distractors31_l.png,l,1,3,31,0,,,,,0,152,152,152,,,,,,,,,,,,,,,,,,,,,,,,,,,,,,,,,,,,,,,,,,,431.4377987040207,None,2,0.18709408800350502,431.4377987040207,None,,,,,,,,,,,,,,,,None,None,None,,None,None,431.674024433014,None,1,1,0.754635451012291,431.674024433014,None,432.42115009229747,None,None,None,None,,40,001,2023_Jan_30_1717,searchDisc5,2021.2.3,60.28189489782824,
images/exp2b_trial_247_colour2_distractors19_l.png,l,1,2,19,0,,,,,0,153,153,153,,,,,,,,,,,,,,,,,,,,,,,,,,,,,,,,,,,,,,,,,,,432.4379720890429,None,2,0.28806977201020345,432.4379720890429,None,,,,,,,,,,,,,,,,None,None,None,,None,None,432.771974428033,None,1,1,0.7221478320425376,432.771974428033,None,433.4878156843188,None,None,None,None,,40,001,2023_Jan_30_1717,searchDisc5,2021.2.3,60.28189489782824,
images/exp2b_trial_110_colour3_distractors31_r.png,r,3,3,31,0,,,,,0,154,154,154,,,,,,,,,,,,,,,,,,,,,,,,,,,,,,,,,,,,,,,,,,,433.50661977904383,None,2,0.25778522103792056,433.50661977904383,None,,,,,,,,,,,,,,,,None,None,None,,None,None,433.8069700910128,None,3,1,1.2345560250105336,433.8069700910128,None,435.03794332031976,None,None,None,None,,40,001,2023_Jan_30_1717,searchDisc5,2021.2.3,60.28189489782824,
images/exp2b_trial_127_colour0_distractors0_l.png,l,1,0,0,0,,,,,0,155,155,155,,,,,,,,,,,,,,,,,,,,,,,,,,,,,,,,,,,,,,,,,,,435.0565942370449,None,2,0.21905937400879338,435.0565942370449,None,,,,,,,,,,,,,,,,None,None,None,,None,None,435.3207707470283,None,1,1,0.9239386970293708,435.3207707470283,None,436.23803115429473,None,None,None,None,,40,001,2023_Jan_30_1717,searchDisc5,2021.2.3,60.28189489782824,
images/exp1a_trial_205_colour3_distractors19_r.png,r,3,3,19,0,,,,,0,156,156,156,,,,,,,,,,,,,,,,,,,,,,,,,,,,,,,,,,,,,,,,,,,436.2554781170329,None,2,0.24061669001821429,436.2554781170329,None,,,,,,,,,,,,,,,,None,None,None,,None,None,436.5410505339969,None,3,1,1.1661299509578384,436.5410505339969,None,437.7047889463429,None,None,None,None,,40,001,2023_Jan_30_1717,searchDisc5,2021.2.3,60.28189489782824,
images/exp2c_trial_0_colour1_distractors1_r.png,r,3,1,1,0,,,,,0,157,157,157,,,,,,,,,,,,,,,,,,,,,,,,,,,,,,,,,,,,,,,,,,,437.72133020102046,None,2,0.28845899703446776,437.72133020102046,None,,,,,,,,,,,,,,,,None,None,None,,None,None,438.0549638810335,None,3,1,0.9224757759948261,438.0549638810335,None,438.97130585534615,None,None,None,None,,40,001,2023_Jan_30_1717,searchDisc5,2021.2.3,60.28189489782824,
images/exp2b_trial_152_colour2_distractors31_l.png,l,1,2,31,0,,,,,0,158,158,158,,,,,,,,,,,,,,,,,,,,,,,,,,,,,,,,,,,,,,,,,,,438.98792805103585,None,2,0.3555154679925181,438.98792805103585,None,,,,,,,,,,,,,,,,None,None,None,,None,None,439.39082347403746,None,1,1,1.2027780300122686,439.39082347403746,None,440.5880431382975,None,None,None,None,,40,001,2023_Jan_30_1717,searchDisc5,2021.2.3,60.28189489782824,
images/exp2b_trial_114_colour1_distractors19_l.png,l,1,1,19,0,,,,,0,159,159,159,,,,,,,,,,,,,,,,,,,,,,,,,,,,,,,,,,,,,,,,,,,440.6053089960478,None,2,0.40763152396539226,440.6053089960478,None,,,,,,,,,,,,,,,,None,None,None,,None,None,441.0579855130054,None,1,1,0.7178151260013692,441.0579855130054,None,441.77139669729513,None,None,None,None,,40,001,2023_Jan_30_1717,searchDisc5,2021.2.3,60.28189489782824,
images/exp2c_trial_33_colour1_distractors4_r.png,r,3,1,4,0,,,,,0,160,160,160,,,,,,,,,,,,,,,,,,,,,,,,,,,,,,,,,,,,,,,,,,,441.7884080870426,None,2,0.3547586940112524,441.7884080870426,None,,,,,,,,,,,,,,,,None,None,None,,None,None,442.18852087302366,None,3,1,0.9894670089706779,442.18852087302366,None,443.1714977952943,None,None,None,None,,40,001,2023_Jan_30_1717,searchDisc5,2021.2.3,60.28189489782824,
images/exp2a_trial_54_colour2_distractors9_l.png,l,1,2,9,0,,,,,0,161,161,161,,,,,,,,,,,,,,,,,,,,,,,,,,,,,,,,,,,,,,,,,,,443.189029065019,None,2,0.20636144903255627,443.189029065019,None,,,,,,,,,,,,,,,,None,None,None,,None,None,443.44111666700337,None,1,1,0.8491931569878943,443.44111666700337,None,444.2878845683008,None,None,None,None,,40,001,2023_Jan_30_1717,searchDisc5,2021.2.3,60.28189489782824,
images/exp2a_trial_236_colour3_distractors9_r.png,r,3,3,9,0,,,,,0,162,162,162,,,,,,,,,,,,,,,,,,,,,,,,,,,,,,,,,,,,,,,,,,,444.30796350503806,None,2,0.25481608498375863,444.30796350503806,None,,,,,,,,,,,,,,,,None,None,None,,None,None,444.60605921800015,None,3,1,0.7066029160050675,444.60605921800015,None,445.3048500623263,None,None,None,None,,40,001,2023_Jan_30_1717,searchDisc5,2021.2.3,60.28189489782824,
images/exp2b_trial_227_colour1_distractors19_r.png,r,3,1,19,0,,,,,0,163,163,163,,,,,,,,,,,,,,,,,,,,,,,,,,,,,,,,,,,,,,,,,,,445.3215152390185,None,2,0.18784207600401714,445.3215152390185,None,,,,,,,,,,,,,,,,None,None,None,,None,None,445.55698296404444,None,3,1,0.8360475189983845,445.55698296404444,None,446.38818888229434,None,None,None,None,,40,001,2023_Jan_30_1717,searchDisc5,2021.2.3,60.28189489782824,
images/exp1a_trial_60_colour3_distractors19_l.png,l,1,3,19,0,,,,,0,164,164,164,,,,,,,,,,,,,,,,,,,,,,,,,,,,,,,,,,,,,,,,,,,446.40549491601996,None,2,0.24001958104781806,446.40549491601996,None,,,,,,,,,,,,,,,,None,None,None,,None,None,446.68843800999457,None,1,1,0.7679855010355823,446.68843800999457,None,447.4549350133457,None,None,None,None,,40,001,2023_Jan_30_1717,searchDisc5,2021.2.3,60.28189489782824,
images/exp2c_trial_62_colour0_distractors0_r.png,r,3,0,0,0,,,,,0,165,165,165,,,,,,,,,,,,,,,,,,,,,,,,,,,,,,,,,,,,,,,,,,,447.47175243200036,None,2,0.25793917098781094,447.47175243200036,None,,,,,,,,,,,,,,,,None,None,None,,None,None,447.77407820604276,None,3,1,1.3189964789780788,447.77407820604276,None,449.08819054529886,None,None,None,None,,40,001,2023_Jan_30_1717,searchDisc5,2021.2.3,60.28189489782824,
images/exp2a_trial_62_colour0_distractors0_r.png,r,3,0,0,0,,,,,0,166,166,166,,,,,,,,,,,,,,,,,,,,,,,,,,,,,,,,,,,,,,,,,,,449.1055845069932,None,2,0.20539287599967793,449.1055845069932,None,,,,,,,,,,,,,,,,None,None,None,,None,None,449.3551409050124,None,3,1,0.8384104769793339,449.3551409050124,None,450.1876692273363,None,None,None,None,,40,001,2023_Jan_30_1717,searchDisc5,2021.2.3,60.28189489782824,
images/exp2c_trial_68_colour1_distractors31_r.png,r,3,1,31,0,,,,,0,167,167,167,,,,,,,,,,,,,,,,,,,,,,,,,,,,,,,,,,,,,,,,,,,450.2058985190233,None,2,0.19052350497804582,450.2058985190233,None,,,,,,,,,,,,,,,,None,None,None,,None,None,450.4414222930209,None,3,1,0.7503225090331398,450.4414222930209,None,451.18766771434457,None,None,None,None,,40,001,2023_Jan_30_1717,searchDisc5,2021.2.3,60.28189489782824,
images/exp2a_trial_105_colour2_distractors31_r.png,r,3,2,31,0,,,,,0,168,168,168,,,,,,,,,,,,,,,,,,,,,,,,,,,,,,,,,,,,,,,,,,,451.2060603220016,None,2,0.13931416801642627,451.2060603220016,None,,,,,,,,,,,,,,,,None,None,None,,None,None,451.3885984310182,None,3,1,1.6622719549923204,451.3885984310182,None,453.0550322293129,None,None,None,None,,40,001,2023_Jan_30_1717,searchDisc5,2021.2.3,60.28189489782824,
images/exp1a_trial_291_colour1_distractors19_r.png,r,3,1,19,0,,,,,0,169,169,169,,,,,,,,,,,,,,,,,,,,,,,,,,,,,,,,,,,,,,,,,,,453.07175627700053,None,2,0.1575097840395756,453.07175627700053,None,,,,,,,,,,,,,,,,None,None,None,,None,None,453.27401399001246,None,3,1,1.084094923979137,453.27401399001246,None,454.3551142933138,None,None,None,None,,40,001,2023_Jan_30_1717,searchDisc5,2021.2.3,60.28189489782824,
images/exp2c_trial_242_colour1_distractors19_l.png,l,1,1,19,0,,,,,0,170,170,170,,,,,,,,,,,,,,,,,,,,,,,,,,,,,,,,,,,,,,,,,,,454.3747594640008,None,2,0.13631004700437188,454.3747594640008,None,,,,,,,,,,,,,,,,None,None,None,,None,None,454.55758490704466,None,1,1,1.1062056560185738,454.55758490704466,None,455.6552839122887,None,None,None,None,,40,001,2023_Jan_30_1717,searchDisc5,2021.2.3,60.28189489782824,
images/exp1a_trial_115_colour1_distractors31_l.png,l,1,1,31,0,,,,,0,171,171,171,,,,,,,,,,,,,,,,,,,,,,,,,,,,,,,,,,,,,,,,,,,455.6726135990466,None,2,0.2379863599780947,455.6726135990466,None,,,,,,,,,,,,,,,,None,None,None,,None,None,455.9555705100065,None,1,1,1.4653072609798983,455.9555705100065,None,457.4218261502974,None,None,None,None,,40,001,2023_Jan_30_1717,searchDisc5,2021.2.3,60.28189489782824,
images/exp2c_trial_224_colour1_distractors1_r.png,r,3,1,1,0,,,,,0,172,172,172,,,,,,,,,,,,,,,,,,,,,,,,,,,,,,,,,,,,,,,,,,,457.4385751709924,None,2,0.20504304696805775,457.4385751709924,None,,,,,,,,,,,,,,,,None,None,None,,None,None,457.69075856899144,None,1,0,0.6718212470295839,457.69075856899144,None,458.35493719231454,None,None,None,None,,40,001,2023_Jan_30_1717,searchDisc5,2021.2.3,60.28189489782824,
images/exp1a_trial_192_colour1_distractors1_r.png,r,3,1,1,0,,,,,0,173,173,173,,,,,,,,,,,,,,,,,,,,,,,,,,,,,,,,,,,,,,,,,,,458.3729469740065,None,2,1.9736467349575832,458.3729469740065,None,,,,,,,,,,,,,,,,None,None,None,,None,None,460.3887781689991,None,3,1,0.8711633060011081,460.3887781689991,None,461.25528026532265,None,None,None,None,,40,001,2023_Jan_30_1717,searchDisc5,2021.2.3,60.28189489782824,
images/exp2b_trial_44_colour3_distractors9_r.png,r,3,3,9,0,,,,,0,174,174,174,,,,,,,,,,,,,,,,,,,,,,,,,,,,,,,,,,,,,,,,,,,461.27279135002755,None,2,0.2379937510122545,461.27279135002755,None,,,,,,,,,,,,,,,,None,None,None,,None,None,461.55644942703657,None,3,1,0.8062249549548142,461.55644942703657,None,462.356399368291,None,None,None,None,,40,001,2023_Jan_30_1717,searchDisc5,2021.2.3,60.28189489782824,
images/exp2c_trial_205_colour3_distractors19_r.png,r,3,3,19,0,,,,,0,175,175,175,,,,,,,,,,,,,,,,,,,,,,,,,,,,,,,,,,,,,,,,,,,462.37202160200104,None,2,0.23695763101568446,462.37202160200104,None,,,,,,,,,,,,,,,,None,None,None,,None,None,462.6561354760197,None,3,1,1.3040279030101374,462.6561354760197,None,463.95509479232715,None,None,None,None,,40,001,2023_Jan_30_1717,searchDisc5,2021.2.3,60.28189489782824,
images/exp2a_trial_265_colour2_distractors31_r.png,r,3,2,31,0,,,,,0,176,176,176,,,,,,,,,,,,,,,,,,,,,,,,,,,,,,,,,,,,,,,,,,,463.97202665999066,None,2,0.22246195503976196,463.97202665999066,None,,,,,,,,,,,,,,,,None,None,None,,None,None,464.24380131502403,None,3,1,0.9112771599902771,464.24380131502403,None,465.15487728329026,None,None,None,None,,40,001,2023_Jan_30_1717,searchDisc5,2021.2.3,60.28189489782824,
images/exp2b_trial_23_colour2_distractors19_l.png,l,1,2,19,0,,,,,0,177,177,177,,,,,,,,,,,,,,,,,,,,,,,,,,,,,,,,,,,,,,,,,,,465.1722744849976,None,2,0.22545012400951236,465.1722744849976,None,,,,,,,,,,,,,,,,None,None,None,,None,None,465.4414120980073,None,1,1,0.935870443994645,465.4414120980073,None,466.37201401629136,None,None,None,None,,40,001,2023_Jan_30_1717,searchDisc5,2021.2.3,60.28189489782824,
images/exp2b_trial_18_colour1_distractors19_l.png,l,1,1,19,0,,,,,0,178,178,178,,,,,,,,,,,,,,,,,,,,,,,,,,,,,,,,,,,,,,,,,,,466.3892718850402,None,2,0.4702874749782495,466.3892718850402,None,,,,,,,,,,,,,,,,None,None,None,,None,None,466.90562093502376,None,1,1,1.2368252750020474,466.90562093502376,None,468.13841680032783,None,None,None,None,,40,001,2023_Jan_30_1717,searchDisc5,2021.2.3,60.28189489782824,
images/exp2c_trial_218_colour3_distractors4_l.png,l,1,3,4,0,,,,,0,179,179,179,,,,,,,,,,,,,,,,,,,,,,,,,,,,,,,,,,,,,,,,,,,468.1555213740212,None,2,0.35567352798534557,468.1555213740212,None,,,,,,,,,,,,,,,,None,None,None,,None,None,468.5584728770191,None,1,1,1.0216315279831178,468.5584728770191,None,469.5721254113305,None,None,None,None,,40,001,2023_Jan_30_1717,searchDisc5,2021.2.3,60.28189489782824,
images/exp2a_trial_166_colour2_distractors4_r.png,r,3,2,4,0,,,,,0,180,180,180,,,,,,,,,,,,,,,,,,,,,,,,,,,,,,,,,,,,,,,,,,,469.5888346650172,None,2,0.3881007430027239,469.5888346650172,None,,,,,,,,,,,,,,,,None,None,None,,None,None,470.0254356910009,None,3,1,0.9874530860106461,470.0254356910009,None,471.00550351131824,None,None,None,None,,40,001,2023_Jan_30_1717,searchDisc5,2021.2.3,60.28189489782824,
images/exp2a_trial_117_colour2_distractors4_l.png,l,1,2,4,0,,,,,0,181,181,181,,,,,,,,,,,,,,,,,,,,,,,,,,,,,,,,,,,,,,,,,,,471.0222573970095,None,2,0.30472685903077945,471.0222573970095,None,,,,,,,,,,,,,,,,None,None,None,,None,None,471.3732177100028,None,1,1,1.1533963580150157,471.3732177100028,None,472.5220639753097,None,None,None,None,,40,001,2023_Jan_30_1717,searchDisc5,2021.2.3,60.28189489782824,
images/exp2c_trial_91_colour3_distractors9_l.png,l,1,3,9,0,,,,,0,182,182,182,,,,,,,,,,,,,,,,,,,,,,,,,,,,,,,,,,,,,,,,,,,472.5390668140026,None,2,0.3722895310493186,472.5390668140026,None,,,,,,,,,,,,,,,,None,None,None,,None,None,472.95779857301386,None,1,1,1.2898546700016595,472.95779857301386,None,474.24105079329456,None,None,None,None,,40,001,2023_Jan_30_1717,searchDisc5,2021.2.3,60.28189489782824,
images/exp2b_trial_103_colour2_distractors9_r.png,r,3,2,9,0,,,,,0,183,183,183,,,,,,,,,,,,,,,,,,,,,,,,,,,,,,,,,,,,,,,,,,,474.2571137580089,None,2,0.37010910600656644,474.2571137580089,None,,,,,,,,,,,,,,,,None,None,None,,None,None,474.67568990704603,None,3,1,0.7719414239982143,474.67568990704603,None,475.44002321429434,None,None,None,None,,40,001,2023_Jan_30_1717,searchDisc5,2021.2.3,60.28189489782824,
images/exp2a_trial_211_colour1_distractors31_l.png,l,1,1,31,0,,,,,0,184,184,184,,,,,,,,,,,,,,,,,,,,,,,,,,,,,,,,,,,,,,,,,,,475.4570242590271,None,2,0.3201939039863646,475.4570242590271,None,,,,,,,,,,,,,,,,None,None,None,,None,None,475.82314342301106,None,1,1,0.889072555990424,475.82314342301106,None,476.7077575123112,None,None,None,None,,40,001,2023_Jan_30_1717,searchDisc5,2021.2.3,60.28189489782824,
images/exp2a_trial_300_colour3_distractors9_r.png,r,3,3,9,0,,,,,0,185,185,185,,,,,,,,,,,,,,,,,,,,,,,,,,,,,,,,,,,,,,,,,,,476.72504782601027,None,2,0.28585135098546743,476.72504782601027,None,,,,,,,,,,,,,,,,None,None,None,,None,None,477.0560956770205,None,3,1,0.8052643789560534,477.0560956770205,None,477.8557928093069,None,None,None,None,,40,001,2023_Jan_30_1717,searchDisc5,2021.2.3,60.28189489782824,
images/exp2a_trial_97_colour1_distractors4_r.png,r,3,1,4,0,,,,,0,186,186,186,,,,,,,,,,,,,,,,,,,,,,,,,,,,,,,,,,,,,,,,,,,477.8728446630412,None,2,0.2712644370039925,477.8728446630412,None,,,,,,,,,,,,,,,,None,None,None,,None,None,478.1894669450121,None,3,1,0.7560698810266331,478.1894669450121,None,478.9391936832981,None,None,None,None,,40,001,2023_Jan_30_1717,searchDisc5,2021.2.3,60.28189489782824,
images/exp1a_trial_186_colour3_distractors4_l.png,l,1,3,4,0,,,,,0,187,187,187,,,,,,,,,,,,,,,,,,,,,,,,,,,,,,,,,,,,,,,,,,,478.95562390604755,None,2,0.28890808002324775,478.95562390604755,None,,,,,,,,,,,,,,,,None,None,None,,None,None,479.2893273830414,None,1,1,0.739130996982567,479.2893273830414,None,480.02355263833306,None,None,None,None,,40,001,2023_Jan_30_1717,searchDisc5,2021.2.3,60.28189489782824,
images/exp2c_trial_231_colour2_distractors9_r.png,r,3,2,9,0,,,,,0,188,188,188,,,,,,,,,,,,,,,,,,,,,,,,,,,,,,,,,,,,,,,,,,,480.0401765709976,None,2,0.28733524202834815,480.0401765709976,None,,,,,,,,,,,,,,,,None,None,None,,None,None,480.3731198690366,None,3,1,0.8205162020167336,480.3731198690366,None,481.1892213463143,None,None,None,None,,40,001,2023_Jan_30_1717,searchDisc5,2021.2.3,60.28189489782824,
images/exp1a_trial_75_colour3_distractors4_r.png,r,3,3,4,0,,,,,0,189,189,189,,,,,,,,,,,,,,,,,,,,,,,,,,,,,,,,,,,,,,,,,,,481.20581961103017,None,2,0.23784017097204924,481.20581961103017,None,,,,,,,,,,,,,,,,None,None,None,,None,None,481.49034479202237,None,3,1,0.7216746159829199,481.49034479202237,None,482.205903427297,None,None,None,None,,40,001,2023_Jan_30_1717,searchDisc5,2021.2.3,60.28189489782824,
images/exp2a_trial_20_colour2_distractors1_l.png,l,1,2,1,0,,,,,0,190,190,190,,,,,,,,,,,,,,,,,,,,,,,,,,,,,,,,,,,,,,,,,,,482.2225286930334,None,2,0.23868324497016147,482.2225286930334,None,,,,,,,,,,,,,,,,None,None,None,,None,None,482.50623067701235,None,1,1,0.9214756449800916,482.50623067701235,None,483.42259430131526,None,None,None,None,,40,001,2023_Jan_30_1717,searchDisc5,2021.2.3,60.28189489782824,
images/exp2b_trial_148_colour2_distractors1_l.png,l,1,2,1,0,,,,,0,191,191,191,,,,,,,,,,,,,,,,,,,,,,,,,,,,,,,,,,,,,,,,,,,483.44185295701027,None,2,0.22226245899219066,483.44185295701027,None,,,,,,,,,,,,,,,,None,None,None,,None,None,483.7064231900149,None,1,1,0.7896110569708981,483.7064231900149,None,484.4896804613236,None,None,None,None,,40,001,2023_Jan_30_1717,searchDisc5,2021.2.3,60.28189489782824,
images/exp1a_trial_29_colour3_distractors31_l.png,l,1,3,31,0,,,,,0,192,192,192,,,,,,,,,,,,,,,,,,,,,,,,,,,,,,,,,,,,,,,,,,,484.50683468504576,None,2,0.24017707799794152,484.50683468504576,None,,,,,,,,,,,,,,,,None,None,None,,None,None,484.78952229302377,None,1,1,0.8314760099747218,484.78952229302377,None,485.6225839993276,None,None,None,None,,40,001,2023_Jan_30_1717,searchDisc5,2021.2.3,60.28189489782824,
images/exp2a_trial_176_colour1_distractors4_l.png,l,1,1,4,0,,,,,0,193,193,193,,,,,,,,,,,,,,,,,,,,,,,,,,,,,,,,,,,,,,,,,,,485.6400351100019,None,2,0.2544557810178958,485.6400351100019,None,,,,,,,,,,,,,,,,None,None,None,,None,None,485.94253629102604,None,1,1,0.8229830689961091,485.94253629102604,None,486.75596046829014,None,None,None,None,,40,001,2023_Jan_30_1717,searchDisc5,2021.2.3,60.28189489782824,
images/exp2b_trial_217_colour3_distractors1_l.png,l,1,3,1,0,,,,,0,194,194,194,,,,,,,,,,,,,,,,,,,,,,,,,,,,,,,,,,,,,,,,,,,486.7725185750169,None,2,0.25558811001246795,486.7725185750169,None,,,,,,,,,,,,,,,,None,None,None,,None,None,487.07276826899033,None,1,1,0.7909468280267902,487.07276826899033,None,487.85616786629544,None,None,None,None,,40,001,2023_Jan_30_1717,searchDisc5,2021.2.3,60.28189489782824,
images/exp1a_trial_279_colour2_distractors19_l.png,l,1,2,19,0,,,,,0,195,195,195,,,,,,,,,,,,,,,,,,,,,,,,,,,,,,,,,,,,,,,,,,,487.87451675900957,None,2,0.33606664097169414,487.87451675900957,None,,,,,,,,,,,,,,,,None,None,None,,None,None,488.25918976799585,None,1,1,0.7523580639972351,488.25918976799585,None,489.0060567833425,None,None,None,None,,40,001,2023_Jan_30_1717,searchDisc5,2021.2.3,60.28189489782824,
images/exp2c_trial_43_colour3_distractors4_r.png,r,3,3,4,0,,,,,0,196,196,196,,,,,,,,,,,,,,,,,,,,,,,,,,,,,,,,,,,,,,,,,,,489.02205896301894,None,2,0.3393388010445051,489.02205896301894,None,,,,,,,,,,,,,,,,None,None,None,,None,None,489.40931320702657,None,3,1,1.7376074580242857,489.40931320702657,None,491.13946033632965,None,None,None,None,,40,001,2023_Jan_30_1717,searchDisc5,2021.2.3,60.28189489782824,
images/exp1a_trial_215_colour2_distractors19_l.png,l,1,2,19,0,,,,,0,197,197,197,,,,,,,,,,,,,,,,,,,,,,,,,,,,,,,,,,,,,,,,,,,491.1581875300035,None,2,0.2546491560060531,491.1581875300035,None,,,,,,,,,,,,,,,,None,None,None,,None,None,491.4574937460129,None,1,1,0.903027729014866,491.4574937460129,None,492.357016066293,None,None,None,None,,40,001,2023_Jan_30_1717,searchDisc5,2021.2.3,60.28189489782824,
images/exp2b_trial_176_colour1_distractors4_l.png,l,1,1,4,0,,,,,0,198,198,198,,,,,,,,,,,,,,,,,,,,,,,,,,,,,,,,,,,,,,,,,,,492.37383771000896,None,2,0.2873042920255102,492.37383771000896,None,,,,,,,,,,,,,,,,None,None,None,,None,None,492.7063342460315,None,1,1,0.8222160749719478,492.7063342460315,None,493.5228193163348,None,None,None,None,,40,001,2023_Jan_30_1717,searchDisc5,2021.2.3,60.28189489782824,
images/exp2a_trial_171_colour3_distractors4_r.png,r,3,3,4,0,,,,,0,199,199,199,,,,,,,,,,,,,,,,,,,,,,,,,,,,,,,,,,,,,,,,,,,493.54203052300727,None,2,0.2716927300207317,493.54203052300727,None,,,,,,,,,,,,,,,,None,None,None,,None,None,493.85642935399665,None,3,1,0.9058088989695534,493.85642935399665,None,494.7562623353151,None,None,None,None,,40,001,2023_Jan_30_1717,searchDisc5,2021.2.3,60.28189489782824,
images/exp2c_trial_188_colour3_distractors19_l.png,l,1,3,19,0,,,,,0,200,200,200,,,,,,,,,,,,,,,,,,,,,,,,,,,,,,,,,,,,,,,,,,,494.77547939599026,None,2,0.2379785330267623,494.77547939599026,None,,,,,,,,,,,,,,,,None,None,None,,None,None,495.05662309902254,None,1,1,1.5205835459637456,495.05662309902254,None,496.5728789103159,None,None,None,None,,40,001,2023_Jan_30_1717,searchDisc5,2021.2.3,60.28189489782824,
images/exp2a_trial_21_colour2_distractors4_l.png,l,1,2,4,0,,,,,0,201,201,201,,,,,,,,,,,,,,,,,,,,,,,,,,,,,,,,,,,,,,,,,,,496.5899363720091,None,2,0.272075652028434,496.5899363720091,None,,,,,,,,,,,,,,,,None,None,None,,None,None,496.90699489199324,None,1,1,0.7371873750234954,496.90699489199324,None,497.6398100583174,None,None,None,None,,40,001,2023_Jan_30_1717,searchDisc5,2021.2.3,60.28189489782824,
images/exp1a_trial_84_colour2_distractors1_l.png,l,1,2,1,0,,,,,0,202,202,202,,,,,,,,,,,,,,,,,,,,,,,,,,,,,,,,,,,,,,,,,,,497.6562893090304,None,2,0.28872542700264603,497.6562893090304,None,,,,,,,,,,,,,,,,None,None,None,,None,None,497.99010363104753,None,1,1,0.6558172249933705,497.99010363104753,None,498.63973739530775,None,None,None,None,,40,001,2023_Jan_30_1717,searchDisc5,2021.2.3,60.28189489782824,
images/exp2c_trial_36_colour1_distractors31_r.png,r,3,1,31,0,,,,,0,203,203,203,,,,,,,,,,,,,,,,,,,,,,,,,,,,,,,,,,,,,,,,,,,498.65717090002727,None,2,0.30469261296093464,498.65717090002727,None,,,,,,,,,,,,,,,,None,None,None,,None,None,499.0073470590287,None,3,1,0.9553675130009651,499.0073470590287,None,499.95645671730745,None,None,None,None,,40,001,2023_Jan_30_1717,searchDisc5,2021.2.3,60.28189489782824,
images/exp2a_trial_232_colour2_distractors19_r.png,r,3,2,19,0,,,,,0,204,204,204,,,,,,,,,,,,,,,,,,,,,,,,,,,,,,,,,,,,,,,,,,,499.9737740830169,None,2,0.1547345020226203,499.9737740830169,None,,,,,,,,,,,,,,,,None,None,None,,None,None,500.176722275035,None,3,1,0.9485462150187232,500.176722275035,None,501.1239329793316,None,None,None,None,,40,001,2023_Jan_30_1717,searchDisc5,2021.2.3,60.28189489782824,
images/exp2b_trial_24_colour2_distractors31_l.png,l,1,2,31,0,,,,,0,205,205,205,,,,,,,,,,,,,,,,,,,,,,,,,,,,,,,,,,,,,,,,,,,501.13976020301925,None,2,0.1889173099771142,501.13976020301925,None,,,,,,,,,,,,,,,,None,None,None,,None,None,501.3753432590165,None,1,1,0.9337891589966603,501.3753432590165,None,502.3063222533383,None,None,None,None,,40,001,2023_Jan_30_1717,searchDisc5,2021.2.3,60.28189489782824,
images/exp2a_trial_284_colour3_distractors19_l.png,l,1,3,19,0,,,,,0,206,206,206,,,,,,,,,,,,,,,,,,,,,,,,,,,,,,,,,,,,,,,,,,,502.3238740740344,None,2,0.257294625043869,502.3238740740344,None,,,,,,,,,,,,,,,,None,None,None,,None,None,502.6259583780193,None,1,1,0.636954921996221,502.6259583780193,None,503.25647701430717,None,None,None,None,,40,001,2023_Jan_30_1717,searchDisc5,2021.2.3,60.28189489782824,
images/exp2a_trial_63_colour0_distractors0_l.png,l,1,0,0,0,,,,,0,207,207,207,,,,,,,,,,,,,,,,,,,,,,,,,,,,,,,,,,,,,,,,,,,503.27378890902037,None,2,0.2045533949858509,503.27378890902037,None,,,,,,,,,,,,,,,,None,None,None,,None,None,503.52640910301125,None,1,1,0.8892866719979793,503.52640910301125,None,504.40753124133334,None,None,None,None,,40,001,2023_Jan_30_1717,searchDisc5,2021.2.3,60.28189489782824,
images/exp2a_trial_136_colour2_distractors19_r.png,r,3,2,19,0,,,,,0,208,208,208,,,,,,,,,,,,,,,,,,,,,,,,,,,,,,,,,,,,,,,,,,,504.4238025480299,None,2,0.32134806201793253,504.4238025480299,None,,,,,,,,,,,,,,,,None,None,None,,None,None,504.7926405990147,None,3,1,0.8817646600073203,504.7926405990147,None,505.67318111433997,None,None,None,None,,40,001,2023_Jan_30_1717,searchDisc5,2021.2.3,60.28189489782824,
images/exp2b_trial_204_colour3_distractors9_r.png,r,3,3,9,0,,,,,0,209,209,209,,,,,,,,,,,,,,,,,,,,,,,,,,,,,,,,,,,,,,,,,,,505.6898097789963,None,2,0.1888187499716878,505.6898097789963,None,,,,,,,,,,,,,,,,None,None,None,,None,None,505.9244283750304,None,3,1,1.3698713560006581,505.9244283750304,None,507.28984598928946,None,None,None,None,,40,001,2023_Jan_30_1717,searchDisc5,2021.2.3,60.28189489782824,
images/exp2a_trial_155_colour3_distractors9_l.png,l,1,3,9,0,,,,,0,210,210,210,,,,,,,,,,,,,,,,,,,,,,,,,,,,,,,,,,,,,,,,,,,507.3071007420076,None,2,0.15600285300752148,507.3071007420076,None,,,,,,,,,,,,,,,,None,None,None,,None,None,507.5090946010314,None,1,1,0.9210105799720623,507.5090946010314,None,508.42326354733086,None,None,None,None,,40,001,2023_Jan_30_1717,searchDisc5,2021.2.3,60.28189489782824,
images/exp1a_trial_311_colour2_distractors19_l.png,l,1,2,19,0,,,,,0,211,211,211,,,,,,,,,,,,,,,,,,,,,,,,,,,,,,,,,,,,,,,,,,,508.4399548440124,None,2,0.20794718398246914,508.4399548440124,None,,,,,,,,,,,,,,,,None,None,None,,None,None,508.69250201102113,None,1,1,0.7147072479710914,508.69250201102113,None,509.40599135830416,None,None,None,None,,40,001,2023_Jan_30_1717,searchDisc5,2021.2.3,60.28189489782824,
images/exp2c_trial_172_colour3_distractors9_r.png,r,3,3,9,0,,,,,0,212,212,212,,,,,,,,,,,,,,,,,,,,,,,,,,,,,,,,,,,,,,,,,,,509.42429636401357,None,2,0.2053302860003896,509.42429636401357,None,,,,,,,,,,,,,,,,None,None,None,,None,None,509.67577628500294,None,3,1,0.9878515039454214,509.67577628500294,None,510.6566330633068,None,None,None,None,,40,001,2023_Jan_30_1717,searchDisc5,2021.2.3,60.28189489782824,
images/exp2c_trial_110_colour3_distractors31_r.png,r,3,3,31,0,,,,,0,213,213,213,,,,,,,,,,,,,,,,,,,,,,,,,,,,,,,,,,,,,,,,,,,510.6734283970436,None,2,0.12126908201025799,510.6734283970436,None,,,,,,,,,,,,,,,,None,None,None,,None,None,510.8432585520204,None,3,1,1.0364556910353713,510.8432585520204,None,511.87336227929336,None,None,None,None,,40,001,2023_Jan_30_1717,searchDisc5,2021.2.3,60.28189489782824,
images/exp1a_trial_39_colour2_distractors9_r.png,r,3,2,9,0,,,,,0,214,214,214,,,,,,,,,,,,,,,,,,,,,,,,,,,,,,,,,,,,,,,,,,,511.892471551022,None,2,0.10689451202051714,511.892471551022,None,,,,,,,,,,,,,,,,None,None,None,,None,None,512.0426194370375,None,3,1,2.2174939659889787,512.0426194370375,None,514.2567447723413,None,None,None,None,,40,001,2023_Jan_30_1717,searchDisc5,2021.2.3,60.28189489782824,
images/exp2a_trial_119_colour2_distractors19_l.png,l,1,2,19,0,,,,,0,215,215,215,,,,,,,,,,,,,,,,,,,,,,,,,,,,,,,,,,,,,,,,,,,514.2742790229968,None,2,0.38879459496820346,514.2742790229968,None,,,,,,,,,,,,,,,,None,None,None,,None,None,514.7100857740152,None,1,1,1.2135023850132711,514.7100857740152,None,515.9233477543166,None,None,None,None,,40,001,2023_Jan_30_1717,searchDisc5,2021.2.3,60.28189489782824,
images/exp1a_trial_102_colour2_distractors4_r.png,r,3,2,4,0,,,,,0,216,216,216,,,,,,,,,,,,,,,,,,,,,,,,,,,,,,,,,,,,,,,,,,,515.9402721080114,None,2,0.23781649500597268,515.9402721080114,None,,,,,,,,,,,,,,,,None,None,None,,None,None,516.2237815840053,None,3,1,0.9057196849607863,516.2237815840053,None,517.1234578473086,None,None,None,None,,40,001,2023_Jan_30_1717,searchDisc5,2021.2.3,60.28189489782824,
images/exp2a_trial_139_colour3_distractors4_r.png,r,3,3,4,0,,,,,0,217,217,217,,,,,,,,,,,,,,,,,,,,,,,,,,,,,,,,,,,,,,,,,,,517.1401759210275,None,2,0.0899836519965902,517.1401759210275,None,,,,,,,,,,,,,,,,None,None,None,,None,None,517.2768025040277,None,3,1,0.8538135760463774,517.2768025040277,None,518.1234704503149,None,None,None,None,,40,001,2023_Jan_30_1717,searchDisc5,2021.2.3,60.28189489782824,
images/exp1a_trial_41_colour2_distractors31_r.png,r,3,2,31,0,,,,,0,218,218,218,,,,,,,,,,,,,,,,,,,,,,,,,,,,,,,,,,,,,,,,,,,518.1428901590407,None,2,0.10484000499127433,518.1428901590407,None,,,,,,,,,,,,,,,,None,None,None,,None,None,518.2924115610076,None,3,1,0.7673977200174704,518.2924115610076,None,519.057007969328,None,None,None,None,,40,001,2023_Jan_30_1717,searchDisc5,2021.2.3,60.28189489782824,
images/exp2b_trial_135_colour2_distractors9_r.png,r,3,2,9,0,,,,,0,219,219,219,,,,,,,,,,,,,,,,,,,,,,,,,,,,,,,,,,,,,,,,,,,519.0756898900145,None,2,0.1045932230190374,519.0756898900145,None,,,,,,,,,,,,,,,,None,None,None,,None,None,519.2249242819962,None,3,1,0.6225764640257694,519.2249242819962,None,519.8403611792892,None,None,None,None,,40,001,2023_Jan_30_1717,searchDisc5,2021.2.3,60.28189489782824,
images/exp2a_trial_67_colour1_distractors19_r.png,r,3,1,19,0,,,,,0,220,220,220,,,,,,,,,,,,,,,,,,,,,,,,,,,,,,,,,,,,,,,,,,,519.8569438810227,None,2,0.12105246301507577,519.8569438810227,None,,,,,,,,,,,,,,,,None,None,None,,None,None,520.0242401740397,None,3,1,0.9528953080298379,520.0242401740397,None,520.972934082296,None,None,None,None,,40,001,2023_Jan_30_1717,searchDisc5,2021.2.3,60.28189489782824,
images/exp2c_trial_53_colour2_distractors4_l.png,l,1,2,4,0,,,,,0,221,221,221,,,,,,,,,,,,,,,,,,,,,,,,,,,,,,,,,,,,,,,,,,,520.9902832680382,None,2,0.08842517400626093,520.9902832680382,None,,,,,,,,,,,,,,,,None,None,None,,None,None,521.1265893010423,None,1,1,0.9896654530311935,521.1265893010423,None,522.1069733873301,None,None,None,None,,40,001,2023_Jan_30_1717,searchDisc5,2021.2.3,60.28189489782824,
images/exp2c_trial_107_colour3_distractors4_r.png,r,3,3,4,0,,,,,0,222,222,222,,,,,,,,,,,,,,,,,,,,,,,,,,,,,,,,,,,,,,,,,,,522.1242004940286,None,2,0.20379977201810107,522.1242004940286,None,,,,,,,,,,,,,,,,None,None,None,,None,None,522.3753121109912,None,3,1,1.2566786059760489,522.3753121109912,None,523.6236458483327,None,None,None,None,,40,001,2023_Jan_30_1717,searchDisc5,2021.2.3,60.28189489782824,
images/exp2b_trial_52_colour2_distractors1_l.png,l,1,2,1,0,,,,,0,223,223,223,,,,,,,,,,,,,,,,,,,,,,,,,,,,,,,,,,,,,,,,,,,523.6410265600425,None,2,0.07468136103125289,523.6410265600425,None,,,,,,,,,,,,,,,,None,None,None,,None,None,523.7586304279976,None,1,1,1.2700399280292913,523.7586304279976,None,525.0237838372996,None,None,None,None,,40,001,2023_Jan_30_1717,searchDisc5,2021.2.3,60.28189489782824,
images/exp1a_trial_155_colour3_distractors9_l.png,l,1,3,9,0,,,,,0,224,224,224,,,,,,,,,,,,,,,,,,,,,,,,,,,,,,,,,,,,,,,,,,,525.0431935359957,None,2,0.28896081098355353,525.0431935359957,None,,,,,,,,,,,,,,,,None,None,None,,None,None,525.3742102810065,None,1,1,0.8201933389646001,525.3742102810065,None,526.190430472343,None,None,None,None,,40,001,2023_Jan_30_1717,searchDisc5,2021.2.3,60.28189489782824,
